"trial_type","trial_index","time_elapsed","internal_node_id","Script_Picker","Block_Type","success","timeout","failed_images","failed_audio","failed_video","rt","url","responses","question_order","stimulus","key_press","response"
"pavlovia","0","4","0.0-0.0","1","Low_HMMActual","","","","","","","","","","","",""
"preload","1","5","0.0-1.0","1","Low_HMMActual","true","false","[]","[]","[]","","","","","","",""
"external-html","2","3576","0.0-2.0-0.0","1","Low_HMMActual","","","","","","3540.175000001909","consent.html","","","","",""
"survey-multi-choice","3","7265","0.0-2.0-1.0","1","Low_HMMActual","","","","","","3687.2199999997974","","{""Q0"":""Male"",""Q1"":""White""}","[0,1]","","",""
"survey-text","4","9851","0.0-2.0-2.0","1","Low_HMMActual","","","","","","2584.820000000036","","{""Q0"":""25""}","","","",""
"survey-text","5","25334","0.0-2.0-3.0","1","Low_HMMActual","","","","","","15376.79500000013","","{""Q0"":""605e587133c1251ac9b2486c""}","","","",""
"image-keyboard-response","6","34129","0.0-3.0-0.0","1","Low_HMMActual","","","","","","8691.275000001042","","","","tutorial/tutorial1.png"," ",""
"image-keyboard-response","7","38086","0.0-3.0-0.1","1","Low_HMMActual","","","","","","3956.5550000006624","","","","tutorial/tutorial2.png"," ",""
"image-keyboard-response","8","40659","0.0-3.0-0.2","1","Low_HMMActual","","","","","","2572.3649999999907","","","","tutorial/tutorial3.png"," ",""
"image-keyboard-response","9","41959","0.0-3.0-0.3","1","Low_HMMActual","","","","","","1299.5350000019243","","","","tutorial/tutorial4.png"," ",""
"image-keyboard-response","10","43013","0.0-3.0-0.4","1","Low_HMMActual","","","","","","1054.5149999998102","","","","tutorial/tutorial5.png"," ",""
"image-keyboard-response","11","45200","0.0-3.0-0.5","1","Low_HMMActual","","","","","","2185.8400000019174","","","","tutorial/tutorial6.png"," ",""
"image-keyboard-response","12","46587","0.0-3.0-0.6","1","Low_HMMActual","","","","","","1387.3050000001967","","","","tutorial/tutorial7.png"," ",""
"image-keyboard-response","13","66413","0.0-3.0-0.7","1","Low_HMMActual","","","","","","19824.860000000626","","","","tutorial/tutorial8.png"," ",""
"image-keyboard-response","14","67604","0.0-3.0-0.8","1","Low_HMMActual","","","","","","1191.2049999991723","","","","tutorial/tutorial9.png"," ",""
"image-keyboard-response","15","71285","0.0-3.0-0.9","1","Low_HMMActual","","","","","","3680.5899999999383","","","","tutorial/tutorial10.png"," ",""
"image-keyboard-response","16","72427","0.0-3.0-0.10","1","Low_HMMActual","","","","","","1141.4550000008603","","","","tutorial/tutorial11.png"," ",""
"image-keyboard-response","17","73910","0.0-3.0-0.11","1","Low_HMMActual","","","","","","1482.5899999996182","","","","tutorial/tutorial12.png"," ",""
"image-keyboard-response","18","81088","0.0-3.0-0.12","1","Low_HMMActual","","","","","","7176.9249999997555","","","","tutorial/tutorial13.png"," ",""
"image-keyboard-response","19","93283","0.0-3.0-0.13","1","Low_HMMActual","","","","","","12194.58499999746","","","","tutorial/tutorial14.png"," ",""
"image-keyboard-response","20","94202","0.0-3.0-0.14","1","Low_HMMActual","","","","","","918.9599999990605","","","","tutorial/tutorial15.png"," ",""
"image-keyboard-response","21","99700","0.0-4.0","1","Low_HMMActual","","","","","","5497.459999998682","","","","tutorial/tutorial16.png","arrowup",""
"image-keyboard-response","22","108989","0.0-5.0","1","Low_HMMActual","","","","","","7312.494999998307","","","","tutorial/tutorial17.png","arrowright",""
"image-keyboard-response","23","113709","0.0-6.0","1","Low_HMMActual","","","","","","3755.2399999985937","","","","tutorial/tutorial18.png","arrowleft",""
"image-keyboard-response","24","121795","0.0-7.0","1","Low_HMMActual","","","","","","6098.894999999175","","","","tutorial/tutorial19.png"," ",""
"html-keyboard-response","25","124667","0.0-8.0","112","Low_HMMActual","","","","","","2868.030000001454","","","","<div class=""container"" style=""height:800px;width:800px;display:flex;flex-direction:column;justify-content:center;align-items:center;text-align:center;font-weight:normal;font-family:Arial;font-size:20px""><p>Loading episode&hellip;</p><div>"," ",""
"image-button-response","26","136968","0.0-9.0-0.0","112","Low_HMMActual","","","","","","12299.305000000459","","","","Images/NoChoice.png","","0"
"image-button-response","27","137274","0.0-9.0-1.0","112","Low_HMMActual","","","","","","null","","","","Images/BlackBeadChoice.png","","null"
"image-button-response","28","137781","0.0-9.0-2.0","112","Low_HMMActual","","","","","","null","","","","Images/BlackBeadChoiceCorrect.png","","null"
"image-button-response","29","142227","0.0-9.0-0.1","112","Low_HMMActual","","","","","","4445.12499999837","","","","Images/NewTrialBC.png","","2"
"image-button-response","30","142528","0.0-9.0-1.1","112","Low_HMMActual","","","","","","null","","","","Images/WhiteBeadChoice.png","","null"
"image-button-response","31","143030","0.0-9.0-2.1","112","Low_HMMActual","","","","","","null","","","","Images/WhiteBeadChoiceWrong.png","","null"
"image-button-response","32","150863","0.0-9.0-0.2","112","Low_HMMActual","","","","","","7831.379999999626","","","","Images/NewTrialBC.png","","0"
"image-button-response","33","151165","0.0-9.0-1.2","112","Low_HMMActual","","","","","","null","","","","Images/BlackBeadChoice.png","","null"
"image-button-response","34","151675","0.0-9.0-2.2","112","Low_HMMActual","","","","","","null","","","","Images/BlackBeadChoiceWrong.png","","null"
"image-button-response","35","155398","0.0-9.0-0.3","112","Low_HMMActual","","","","","","3721.7249999994237","","","","Images/NewTrialWC.png","","2"
"image-button-response","36","155700","0.0-9.0-1.3","112","Low_HMMActual","","","","","","null","","","","Images/WhiteBeadChoice.png","","null"
"image-button-response","37","156204","0.0-9.0-2.3","112","Low_HMMActual","","","","","","null","","","","Images/WhiteBeadChoiceWrong.png","","null"
"image-button-response","38","157015","0.0-9.0-0.4","112","Low_HMMActual","","","","","","809.4049999999697","","","","Images/NewTrialBC.png","","0"
"image-button-response","39","157329","0.0-9.0-1.4","112","Low_HMMActual","","","","","","null","","","","Images/BlackBeadChoice.png","","null"
"image-button-response","40","157834","0.0-9.0-2.4","112","Low_HMMActual","","","","","","null","","","","Images/BlackBeadChoiceCorrect.png","","null"
"image-button-response","41","158983","0.0-9.0-0.5","112","Low_HMMActual","","","","","","1146.7999999986205","","","","Images/NewTrialBC.png","","1"
"image-button-response","42","159285","0.0-9.0-1.5","112","Low_HMMActual","","","","","","null","","","","Images/BlackBeadChoice.png","","null"
"image-button-response","43","159800","0.0-9.0-2.5","112","Low_HMMActual","","","","","","null","","","","Images/BlackBeadChoiceCorrect.png","","null"
"image-button-response","44","161364","0.0-9.0-0.6","112","Low_HMMActual","","","","","","1562.130000002071","","","","Images/NewTrialBC.png","","0"
"image-button-response","45","161680","0.0-9.0-1.6","112","Low_HMMActual","","","","","","null","","","","Images/BlackBeadChoice.png","","null"
"image-button-response","46","162186","0.0-9.0-2.6","112","Low_HMMActual","","","","","","null","","","","Images/BlackBeadChoiceWrong.png","","null"
"image-button-response","47","163452","0.0-9.0-0.7","112","Low_HMMActual","","","","","","1265.1399999995192","","","","Images/NewTrialWC.png","","2"
"image-button-response","48","163764","0.0-9.0-1.7","112","Low_HMMActual","","","","","","null","","","","Images/WhiteBeadChoice.png","","null"
"image-button-response","49","164278","0.0-9.0-2.7","112","Low_HMMActual","","","","","","null","","","","Images/WhiteBeadChoiceWrong.png","","null"
"image-button-response","50","169059","0.0-9.0-0.8","112","Low_HMMActual","","","","","","4780.389999999898","","","","Images/NewTrialBC.png","","0"
"image-button-response","51","169361","0.0-9.0-1.8","112","Low_HMMActual","","","","","","null","","","","Images/BlackBeadChoice.png","","null"
"image-button-response","52","169862","0.0-9.0-2.8","112","Low_HMMActual","","","","","","null","","","","Images/BlackBeadChoiceCorrect.png","","null"
"image-button-response","53","172116","0.0-9.0-0.9","112","Low_HMMActual","","","","","","2252.730000000156","","","","Images/NewTrialBC.png","","0"
"image-button-response","54","172433","0.0-9.0-1.9","112","Low_HMMActual","","","","","","null","","","","Images/BlackBeadChoice.png","","null"
"image-button-response","55","172934","0.0-9.0-2.9","112","Low_HMMActual","","","","","","null","","","","Images/BlackBeadChoiceCorrect.png","","null"
"html-keyboard-response","56","175172","0.0-10.0","112","Low_HMMActual","","","","","","2237.520000002405","","","",""," ",""
"image-keyboard-response","57","176487","0.0-11.0","112","Low_HMMActual","","","","","","1314.7900000003574","","","","tutorial/tutorial20.png"," ",""
"html-keyboard-response","58","185544","0.0-12.0","56","Low_HMMActual","","","","","","9053.325000000768","","","","<div class=""container"" style=""height:800px;width:800px;display:flex;flex-direction:column;justify-content:center;align-items:center;text-align:center;font-weight:normal;font-family:Arial;font-size:20px""><p>Loading episode&hellip;</p><div>"," ",""
"image-button-response","59","188767","0.0-13.0-0.0","56","Low_HMMActual","","","","","","3222.1299999982875","","","","Images/NoChoice.png","","0"
"image-button-response","60","189069","0.0-13.0-1.0","56","Low_HMMActual","","","","","","null","","","","Images/BlackBeadChoice.png","","null"
"image-button-response","61","189583","0.0-13.0-2.0","56","Low_HMMActual","","","","","","null","","","","Images/BlackBeadChoiceCorrect.png","","null"
"image-button-response","62","193527","0.0-13.0-0.1","56","Low_HMMActual","","","","","","3942.784999999276","","","","Images/NewTrialBC.png","","0"
"image-button-response","63","193830","0.0-13.0-1.1","56","Low_HMMActual","","","","","","null","","","","Images/BlackBeadChoice.png","","null"
"image-button-response","64","194346","0.0-13.0-2.1","56","Low_HMMActual","","","","","","null","","","","Images/BlackBeadChoiceWrong.png","","null"
"image-button-response","65","197326","0.0-13.0-0.2","56","Low_HMMActual","","","","","","2979.395000002114","","","","Images/NewTrialWC.png","","2"
"image-button-response","66","197627","0.0-13.0-1.2","56","Low_HMMActual","","","","","","null","","","","Images/WhiteBeadChoice.png","","null"
"image-button-response","67","198130","0.0-13.0-2.2","56","Low_HMMActual","","","","","","null","","","","Images/WhiteBeadChoiceWrong.png","","null"
"image-button-response","68","201503","0.0-13.0-0.3","56","Low_HMMActual","","","","","","3372.3399999980757","","","","Images/NewTrialBC.png","","0"
"image-button-response","69","201804","0.0-13.0-1.3","56","Low_HMMActual","","","","","","null","","","","Images/BlackBeadChoice.png","","null"
"image-button-response","70","202319","0.0-13.0-2.3","56","Low_HMMActual","","","","","","null","","","","Images/BlackBeadChoiceCorrect.png","","null"
"image-button-response","71","203945","0.0-13.0-0.4","56","Low_HMMActual","","","","","","1624.3549999999232","","","","Images/NewTrialBC.png","","0"
"image-button-response","72","204246","0.0-13.0-1.4","56","Low_HMMActual","","","","","","null","","","","Images/BlackBeadChoice.png","","null"
"image-button-response","73","204748","0.0-13.0-2.4","56","Low_HMMActual","","","","","","null","","","","Images/BlackBeadChoiceCorrect.png","","null"
"image-button-response","74","205610","0.0-13.0-0.5","56","Low_HMMActual","","","","","","859.9900000008347","","","","Images/NewTrialBC.png","","1"
"image-button-response","75","205912","0.0-13.0-1.5","56","Low_HMMActual","","","","","","null","","","","Images/BlackBeadChoice.png","","null"
"image-button-response","76","206413","0.0-13.0-2.5","56","Low_HMMActual","","","","","","null","","","","Images/BlackBeadChoiceWrong.png","","null"
"image-button-response","77","208171","0.0-13.0-0.6","56","Low_HMMActual","","","","","","1756.904999998369","","","","Images/NewTrialWC.png","","3"
"image-button-response","78","208472","0.0-13.0-1.6","56","Low_HMMActual","","","","","","null","","","","Images/WhiteBeadChoice.png","","null"
"image-button-response","79","208973","0.0-13.0-2.6","56","Low_HMMActual","","","","","","null","","","","Images/WhiteBeadChoiceWrong.png","","null"
"image-button-response","80","212924","0.0-13.0-0.7","56","Low_HMMActual","","","","","","3949.8850000018138","","","","Images/NewTrialBC.png","","0"
"image-button-response","81","213229","0.0-13.0-1.7","56","Low_HMMActual","","","","","","null","","","","Images/BlackBeadChoice.png","","null"
"image-button-response","82","213731","0.0-13.0-2.7","56","Low_HMMActual","","","","","","null","","","","Images/BlackBeadChoiceCorrect.png","","null"
"image-button-response","83","215522","0.0-13.0-0.8","56","Low_HMMActual","","","","","","1788.9150000009977","","","","Images/NewTrialBC.png","","1"
"image-button-response","84","215823","0.0-13.0-1.8","56","Low_HMMActual","","","","","","null","","","","Images/BlackBeadChoice.png","","null"
"image-button-response","85","216329","0.0-13.0-2.8","56","Low_HMMActual","","","","","","null","","","","Images/BlackBeadChoiceWrong.png","","null"
"image-button-response","86","219902","0.0-13.0-0.9","56","Low_HMMActual","","","","","","3571.635000000242","","","","Images/NewTrialWC.png","","3"
"image-button-response","87","220203","0.0-13.0-1.9","56","Low_HMMActual","","","","","","null","","","","Images/WhiteBeadChoice.png","","null"
"image-button-response","88","220704","0.0-13.0-2.9","56","Low_HMMActual","","","","","","null","","","","Images/WhiteBeadChoiceCorrect.png","","null"
"image-button-response","89","223249","0.0-13.0-0.10","56","Low_HMMActual","","","","","","2543.2550000004994","","","","Images/NewTrialWC.png","","2"
"image-button-response","90","223563","0.0-13.0-1.10","56","Low_HMMActual","","","","","","null","","","","Images/WhiteBeadChoice.png","","null"
"image-button-response","91","224066","0.0-13.0-2.10","56","Low_HMMActual","","","","","","null","","","","Images/WhiteBeadChoiceWrong.png","","null"
"image-button-response","92","230305","0.0-13.0-0.11","56","Low_HMMActual","","","","","","6237.955000000511","","","","Images/NewTrialBC.png","","0"
"image-button-response","93","230606","0.0-13.0-1.11","56","Low_HMMActual","","","","","","null","","","","Images/BlackBeadChoice.png","","null"
"image-button-response","94","231108","0.0-13.0-2.11","56","Low_HMMActual","","","","","","null","","","","Images/BlackBeadChoiceCorrect.png","","null"
"image-button-response","95","234687","0.0-13.0-0.12","56","Low_HMMActual","","","","","","3577.7300000008836","","","","Images/NewTrialBC.png","","1"
"image-button-response","96","234988","0.0-13.0-1.12","56","Low_HMMActual","","","","","","null","","","","Images/BlackBeadChoice.png","","null"
"image-button-response","97","235490","0.0-13.0-2.12","56","Low_HMMActual","","","","","","null","","","","Images/BlackBeadChoiceCorrect.png","","null"
"image-button-response","98","237023","0.0-13.0-0.13","56","Low_HMMActual","","","","","","1531.9200000012643","","","","Images/NewTrialBC.png","","3"
"image-button-response","99","237324","0.0-13.0-1.13","56","Low_HMMActual","","","","","","null","","","","Images/WhiteBeadChoice.png","","null"
"image-button-response","100","237826","0.0-13.0-2.13","56","Low_HMMActual","","","","","","null","","","","Images/WhiteBeadChoiceWrong.png","","null"
"image-button-response","101","238720","0.0-13.0-0.14","56","Low_HMMActual","","","","","","892.5650000019232","","","","Images/NewTrialBC.png","","1"
"image-button-response","102","239021","0.0-13.0-1.14","56","Low_HMMActual","","","","","","null","","","","Images/BlackBeadChoice.png","","null"
"image-button-response","103","239523","0.0-13.0-2.14","56","Low_HMMActual","","","","","","null","","","","Images/BlackBeadChoiceCorrect.png","","null"
"image-button-response","104","240304","0.0-13.0-0.15","56","Low_HMMActual","","","","","","779.965000001539","","","","Images/NewTrialBC.png","","0"
"image-button-response","105","240605","0.0-13.0-1.15","56","Low_HMMActual","","","","","","null","","","","Images/BlackBeadChoice.png","","null"
"image-button-response","106","241106","0.0-13.0-2.15","56","Low_HMMActual","","","","","","null","","","","Images/BlackBeadChoiceWrong.png","","null"
"image-button-response","107","241857","0.0-13.0-0.16","56","Low_HMMActual","","","","","","749.4100000003527","","","","Images/NewTrialWC.png","","3"
"image-button-response","108","242158","0.0-13.0-1.16","56","Low_HMMActual","","","","","","null","","","","Images/WhiteBeadChoice.png","","null"
"image-button-response","109","242667","0.0-13.0-2.16","56","Low_HMMActual","","","","","","null","","","","Images/WhiteBeadChoiceCorrect.png","","null"
"image-button-response","110","243885","0.0-13.0-0.17","56","Low_HMMActual","","","","","","1216.2849999986065","","","","Images/NewTrialWC.png","","2"
"image-button-response","111","244200","0.0-13.0-1.17","56","Low_HMMActual","","","","","","null","","","","Images/WhiteBeadChoice.png","","null"
"image-button-response","112","244701","0.0-13.0-2.17","56","Low_HMMActual","","","","","","null","","","","Images/WhiteBeadChoiceWrong.png","","null"
"image-button-response","113","246861","0.0-13.0-0.18","56","Low_HMMActual","","","","","","2158.9550000026065","","","","Images/NewTrialBC.png","","0"
"image-button-response","114","247162","0.0-13.0-1.18","56","Low_HMMActual","","","","","","null","","","","Images/BlackBeadChoice.png","","null"
"image-button-response","115","247676","0.0-13.0-2.18","56","Low_HMMActual","","","","","","null","","","","Images/BlackBeadChoiceWrong.png","","null"
"image-button-response","116","249895","0.0-13.0-0.19","56","Low_HMMActual","","","","","","2216.935000000376","","","","Images/NewTrialWC.png","","3"
"image-button-response","117","250205","0.0-13.0-1.19","56","Low_HMMActual","","","","","","null","","","","Images/WhiteBeadChoice.png","","null"
"image-button-response","118","250706","0.0-13.0-2.19","56","Low_HMMActual","","","","","","null","","","","Images/WhiteBeadChoiceCorrect.png","","null"
"image-button-response","119","251163","0.0-13.0-0.20","56","Low_HMMActual","","","","","","454.99000000199885","","","","Images/NewTrialWC.png","","3"
"image-button-response","120","251464","0.0-13.0-1.20","56","Low_HMMActual","","","","","","null","","","","Images/WhiteBeadChoice.png","","null"
"image-button-response","121","251966","0.0-13.0-2.20","56","Low_HMMActual","","","","","","null","","","","Images/WhiteBeadChoiceWrong.png","","null"
"image-button-response","122","253235","0.0-13.0-0.21","56","Low_HMMActual","","","","","","1267.59999999922","","","","Images/NewTrialBC.png","","0"
"image-button-response","123","253537","0.0-13.0-1.21","56","Low_HMMActual","","","","","","null","","","","Images/BlackBeadChoice.png","","null"
"image-button-response","124","254053","0.0-13.0-2.21","56","Low_HMMActual","","","","","","null","","","","Images/BlackBeadChoiceWrong.png","","null"
"image-button-response","125","258604","0.0-13.0-0.22","56","Low_HMMActual","","","","","","4549.029999998311","","","","Images/NewTrialWC.png","","2"
"image-button-response","126","258905","0.0-13.0-1.22","56","Low_HMMActual","","","","","","null","","","","Images/WhiteBeadChoice.png","","null"
"image-button-response","127","259406","0.0-13.0-2.22","56","Low_HMMActual","","","","","","null","","","","Images/WhiteBeadChoiceWrong.png","","null"
"image-button-response","128","263886","0.0-13.0-0.23","56","Low_HMMActual","","","","","","4478.664999998757","","","","Images/NewTrialBC.png","","0"
"image-button-response","129","264187","0.0-13.0-1.23","56","Low_HMMActual","","","","","","null","","","","Images/BlackBeadChoice.png","","null"
"image-button-response","130","264702","0.0-13.0-2.23","56","Low_HMMActual","","","","","","null","","","","Images/BlackBeadChoiceCorrect.png","","null"
"image-button-response","131","265372","0.0-13.0-0.24","56","Low_HMMActual","","","","","","669.129999998433","","","","Images/NewTrialBC.png","","1"
"image-button-response","132","265674","0.0-13.0-1.24","56","Low_HMMActual","","","","","","null","","","","Images/BlackBeadChoice.png","","null"
"image-button-response","133","266175","0.0-13.0-2.24","56","Low_HMMActual","","","","","","null","","","","Images/BlackBeadChoiceCorrect.png","","null"
"image-button-response","134","267270","0.0-13.0-0.25","56","Low_HMMActual","","","","","","1093.650000002468","","","","Images/NewTrialBC.png","","1"
"image-button-response","135","267571","0.0-13.0-1.25","56","Low_HMMActual","","","","","","null","","","","Images/BlackBeadChoice.png","","null"
"image-button-response","136","268073","0.0-13.0-2.25","56","Low_HMMActual","","","","","","null","","","","Images/BlackBeadChoiceCorrect.png","","null"
"image-button-response","137","268686","0.0-13.0-0.26","56","Low_HMMActual","","","","","","611.2700000012992","","","","Images/NewTrialBC.png","","1"
"image-button-response","138","268987","0.0-13.0-1.26","56","Low_HMMActual","","","","","","null","","","","Images/BlackBeadChoice.png","","null"
"image-button-response","139","269488","0.0-13.0-2.26","56","Low_HMMActual","","","","","","null","","","","Images/BlackBeadChoiceCorrect.png","","null"
"image-button-response","140","270072","0.0-13.0-0.27","56","Low_HMMActual","","","","","","582.8049999981886","","","","Images/NewTrialBC.png","","1"
"image-button-response","141","270374","0.0-13.0-1.27","56","Low_HMMActual","","","","","","null","","","","Images/BlackBeadChoice.png","","null"
"image-button-response","142","270876","0.0-13.0-2.27","56","Low_HMMActual","","","","","","null","","","","Images/BlackBeadChoiceCorrect.png","","null"
"image-button-response","143","271198","0.0-13.0-0.28","56","Low_HMMActual","","","","","","319.91500000003725","","","","Images/NewTrialBC.png","","1"
"image-button-response","144","271500","0.0-13.0-1.28","56","Low_HMMActual","","","","","","null","","","","Images/BlackBeadChoice.png","","null"
"image-button-response","145","272002","0.0-13.0-2.28","56","Low_HMMActual","","","","","","null","","","","Images/BlackBeadChoiceCorrect.png","","null"
"image-button-response","146","272804","0.0-13.0-0.29","56","Low_HMMActual","","","","","","801.34000000183","","","","Images/NewTrialBC.png","","0"
"image-button-response","147","273114","0.0-13.0-1.29","56","Low_HMMActual","","","","","","null","","","","Images/BlackBeadChoice.png","","null"
"image-button-response","148","273619","0.0-13.0-2.29","56","Low_HMMActual","","","","","","null","","","","Images/BlackBeadChoiceCorrect.png","","null"
"image-button-response","149","273978","0.0-13.0-0.30","56","Low_HMMActual","","","","","","357.85500000201864","","","","Images/NewTrialBC.png","","0"
"image-button-response","150","274280","0.0-13.0-1.30","56","Low_HMMActual","","","","","","null","","","","Images/BlackBeadChoice.png","","null"
"image-button-response","151","274781","0.0-13.0-2.30","56","Low_HMMActual","","","","","","null","","","","Images/BlackBeadChoiceWrong.png","","null"
"image-button-response","152","275328","0.0-13.0-0.31","56","Low_HMMActual","","","","","","546.2600000028033","","","","Images/NewTrialWC.png","","3"
"image-button-response","153","275629","0.0-13.0-1.31","56","Low_HMMActual","","","","","","null","","","","Images/WhiteBeadChoice.png","","null"
"image-button-response","154","276130","0.0-13.0-2.31","56","Low_HMMActual","","","","","","null","","","","Images/WhiteBeadChoiceWrong.png","","null"
"image-button-response","155","277419","0.0-13.0-0.32","56","Low_HMMActual","","","","","","1287.6300000025076","","","","Images/NewTrialBC.png","","0"
"image-button-response","156","277721","0.0-13.0-1.32","56","Low_HMMActual","","","","","","null","","","","Images/BlackBeadChoice.png","","null"
"image-button-response","157","278222","0.0-13.0-2.32","56","Low_HMMActual","","","","","","null","","","","Images/BlackBeadChoiceCorrect.png","","null"
"image-button-response","158","278469","0.0-13.0-0.33","56","Low_HMMActual","","","","","","245.48500000307104","","","","Images/NewTrialBC.png","","0"
"image-button-response","159","278780","0.0-13.0-1.33","56","Low_HMMActual","","","","","","null","","","","Images/BlackBeadChoice.png","","null"
"image-button-response","160","279281","0.0-13.0-2.33","56","Low_HMMActual","","","","","","null","","","","Images/BlackBeadChoiceCorrect.png","","null"
"image-button-response","161","279724","0.0-13.0-0.34","56","Low_HMMActual","","","","","","441.8050000022631","","","","Images/NewTrialBC.png","","1"
"image-button-response","162","280026","0.0-13.0-1.34","56","Low_HMMActual","","","","","","null","","","","Images/BlackBeadChoice.png","","null"
"image-button-response","163","280527","0.0-13.0-2.34","56","Low_HMMActual","","","","","","null","","","","Images/BlackBeadChoiceCorrect.png","","null"
"image-button-response","164","280683","0.0-13.0-0.35","56","Low_HMMActual","","","","","","154.60999999777414","","","","Images/NewTrialBC.png","","0"
"image-button-response","165","280985","0.0-13.0-1.35","56","Low_HMMActual","","","","","","null","","","","Images/BlackBeadChoice.png","","null"
"image-button-response","166","281494","0.0-13.0-2.35","56","Low_HMMActual","","","","","","null","","","","Images/BlackBeadChoiceCorrect.png","","null"
"image-button-response","167","281585","0.0-13.0-0.36","56","Low_HMMActual","","","","","","89.50499999988824","","","","Images/NewTrialBC.png","","0"
"image-button-response","168","281887","0.0-13.0-1.36","56","Low_HMMActual","","","","","","null","","","","Images/BlackBeadChoice.png","","null"
"image-button-response","169","282389","0.0-13.0-2.36","56","Low_HMMActual","","","","","","null","","","","Images/BlackBeadChoiceCorrect.png","","null"
"image-button-response","170","282507","0.0-13.0-0.37","56","Low_HMMActual","","","","","","117.36000000021886","","","","Images/NewTrialBC.png","","0"
"image-button-response","171","282809","0.0-13.0-1.37","56","Low_HMMActual","","","","","","null","","","","Images/BlackBeadChoice.png","","null"
"image-button-response","172","283310","0.0-13.0-2.37","56","Low_HMMActual","","","","","","null","","","","Images/BlackBeadChoiceCorrect.png","","null"
"image-button-response","173","283479","0.0-13.0-0.38","56","Low_HMMActual","","","","","","167.33499999827472","","","","Images/NewTrialBC.png","","0"
"image-button-response","174","283780","0.0-13.0-1.38","56","Low_HMMActual","","","","","","null","","","","Images/BlackBeadChoice.png","","null"
"image-button-response","175","284281","0.0-13.0-2.38","56","Low_HMMActual","","","","","","null","","","","Images/BlackBeadChoiceCorrect.png","","null"
"image-button-response","176","284378","0.0-13.0-0.39","56","Low_HMMActual","","","","","","95.47999999998137","","","","Images/NewTrialBC.png","","0"
"image-button-response","177","284679","0.0-13.0-1.39","56","Low_HMMActual","","","","","","null","","","","Images/BlackBeadChoice.png","","null"
"image-button-response","178","285181","0.0-13.0-2.39","56","Low_HMMActual","","","","","","null","","","","Images/BlackBeadChoiceCorrect.png","","null"
"image-button-response","179","285459","0.0-13.0-0.40","56","Low_HMMActual","","","","","","276.38500000105705","","","","Images/NewTrialBC.png","","0"
"image-button-response","180","285765","0.0-13.0-1.40","56","Low_HMMActual","","","","","","null","","","","Images/BlackBeadChoice.png","","null"
"image-button-response","181","286267","0.0-13.0-2.40","56","Low_HMMActual","","","","","","null","","","","Images/BlackBeadChoiceWrong.png","","null"
"image-button-response","182","288304","0.0-13.0-0.41","56","Low_HMMActual","","","","","","2035.6350000001257","","","","Images/NewTrialWC.png","","3"
"image-button-response","183","288605","0.0-13.0-1.41","56","Low_HMMActual","","","","","","null","","","","Images/WhiteBeadChoice.png","","null"
"image-button-response","184","289106","0.0-13.0-2.41","56","Low_HMMActual","","","","","","null","","","","Images/WhiteBeadChoiceWrong.png","","null"
"image-button-response","185","289755","0.0-13.0-0.42","56","Low_HMMActual","","","","","","647.1700000002165","","","","Images/NewTrialBC.png","","0"
"image-button-response","186","290072","0.0-13.0-1.42","56","Low_HMMActual","","","","","","null","","","","Images/BlackBeadChoice.png","","null"
"image-button-response","187","290573","0.0-13.0-2.42","56","Low_HMMActual","","","","","","null","","","","Images/BlackBeadChoiceCorrect.png","","null"
"image-button-response","188","290788","0.0-13.0-0.43","56","Low_HMMActual","","","","","","213.27999999996973","","","","Images/NewTrialBC.png","","0"
"image-button-response","189","291093","0.0-13.0-1.43","56","Low_HMMActual","","","","","","null","","","","Images/BlackBeadChoice.png","","null"
"image-button-response","190","291604","0.0-13.0-2.43","56","Low_HMMActual","","","","","","null","","","","Images/BlackBeadChoiceWrong.png","","null"
"image-button-response","191","294580","0.0-13.0-0.44","56","Low_HMMActual","","","","","","2974.3750000015716","","","","Images/NewTrialWC.png","","2"
"image-button-response","192","294881","0.0-13.0-1.44","56","Low_HMMActual","","","","","","null","","","","Images/WhiteBeadChoice.png","","null"
"image-button-response","193","295382","0.0-13.0-2.44","56","Low_HMMActual","","","","","","null","","","","Images/WhiteBeadChoiceWrong.png","","null"
"image-button-response","194","297194","0.0-13.0-0.45","56","Low_HMMActual","","","","","","1810.1950000018114","","","","Images/NewTrialBC.png","","0"
"image-button-response","195","297499","0.0-13.0-1.45","56","Low_HMMActual","","","","","","null","","","","Images/BlackBeadChoice.png","","null"
"image-button-response","196","298000","0.0-13.0-2.45","56","Low_HMMActual","","","","","","null","","","","Images/BlackBeadChoiceCorrect.png","","null"
"image-button-response","197","298409","0.0-13.0-0.46","56","Low_HMMActual","","","","","","406.7849999992177","","","","Images/NewTrialBC.png","","1"
"image-button-response","198","298710","0.0-13.0-1.46","56","Low_HMMActual","","","","","","null","","","","Images/BlackBeadChoice.png","","null"
"image-button-response","199","299212","0.0-13.0-2.46","56","Low_HMMActual","","","","","","null","","","","Images/BlackBeadChoiceCorrect.png","","null"
"image-button-response","200","299386","0.0-13.0-0.47","56","Low_HMMActual","","","","","","172.66499999829102","","","","Images/NewTrialBC.png","","0"
"image-button-response","201","299694","0.0-13.0-1.47","56","Low_HMMActual","","","","","","null","","","","Images/BlackBeadChoice.png","","null"
"image-button-response","202","300196","0.0-13.0-2.47","56","Low_HMMActual","","","","","","null","","","","Images/BlackBeadChoiceCorrect.png","","null"
"image-button-response","203","300521","0.0-13.0-0.48","56","Low_HMMActual","","","","","","323.164999998","","","","Images/NewTrialBC.png","","1"
"image-button-response","204","300822","0.0-13.0-1.48","56","Low_HMMActual","","","","","","null","","","","Images/BlackBeadChoice.png","","null"
"image-button-response","205","301329","0.0-13.0-2.48","56","Low_HMMActual","","","","","","null","","","","Images/BlackBeadChoiceWrong.png","","null"
"image-button-response","206","301680","0.0-13.0-0.49","56","Low_HMMActual","","","","","","349.44999999791617","","","","Images/NewTrialWC.png","","3"
"image-button-response","207","301981","0.0-13.0-1.49","56","Low_HMMActual","","","","","","null","","","","Images/WhiteBeadChoice.png","","null"
"image-button-response","208","302482","0.0-13.0-2.49","56","Low_HMMActual","","","","","","null","","","","Images/WhiteBeadChoiceWrong.png","","null"
"image-button-response","209","302994","0.0-13.0-0.50","56","Low_HMMActual","","","","","","510.8749999999418","","","","Images/NewTrialBC.png","","0"
"image-button-response","210","303296","0.0-13.0-1.50","56","Low_HMMActual","","","","","","null","","","","Images/BlackBeadChoice.png","","null"
"image-button-response","211","303797","0.0-13.0-2.50","56","Low_HMMActual","","","","","","null","","","","Images/BlackBeadChoiceCorrect.png","","null"
"image-button-response","212","304230","0.0-13.0-0.51","56","Low_HMMActual","","","","","","432.1750000016764","","","","Images/NewTrialBC.png","","1"
"image-button-response","213","304533","0.0-13.0-1.51","56","Low_HMMActual","","","","","","null","","","","Images/BlackBeadChoice.png","","null"
"image-button-response","214","305034","0.0-13.0-2.51","56","Low_HMMActual","","","","","","null","","","","Images/BlackBeadChoiceCorrect.png","","null"
"image-button-response","215","305395","0.0-13.0-0.52","56","Low_HMMActual","","","","","","359.3350000010105","","","","Images/NewTrialBC.png","","0"
"image-button-response","216","305700","0.0-13.0-1.52","56","Low_HMMActual","","","","","","null","","","","Images/BlackBeadChoice.png","","null"
"image-button-response","217","306202","0.0-13.0-2.52","56","Low_HMMActual","","","","","","null","","","","Images/BlackBeadChoiceCorrect.png","","null"
"image-button-response","218","306764","0.0-13.0-0.53","56","Low_HMMActual","","","","","","560.105000000447","","","","Images/NewTrialBC.png","","1"
"image-button-response","219","307069","0.0-13.0-1.53","56","Low_HMMActual","","","","","","null","","","","Images/BlackBeadChoice.png","","null"
"image-button-response","220","307570","0.0-13.0-2.53","56","Low_HMMActual","","","","","","null","","","","Images/BlackBeadChoiceCorrect.png","","null"
"image-button-response","221","308077","0.0-13.0-0.54","56","Low_HMMActual","","","","","","506.0250000023516","","","","Images/NewTrialBC.png","","0"
"image-button-response","222","308379","0.0-13.0-1.54","56","Low_HMMActual","","","","","","null","","","","Images/BlackBeadChoice.png","","null"
"image-button-response","223","308880","0.0-13.0-2.54","56","Low_HMMActual","","","","","","null","","","","Images/BlackBeadChoiceWrong.png","","null"
"image-button-response","224","309381","0.0-13.0-0.55","56","Low_HMMActual","","","","","","500.4300000000512","","","","Images/NewTrialWC.png","","3"
"image-button-response","225","309683","0.0-13.0-1.55","56","Low_HMMActual","","","","","","null","","","","Images/WhiteBeadChoice.png","","null"
"image-button-response","226","310184","0.0-13.0-2.55","56","Low_HMMActual","","","","","","null","","","","Images/WhiteBeadChoiceWrong.png","","null"
"image-button-response","227","311046","0.0-13.0-0.56","56","Low_HMMActual","","","","","","860.8099999983096","","","","Images/NewTrialBC.png","","0"
"image-button-response","228","311348","0.0-13.0-1.56","56","Low_HMMActual","","","","","","null","","","","Images/BlackBeadChoice.png","","null"
"image-button-response","229","311859","0.0-13.0-2.56","56","Low_HMMActual","","","","","","null","","","","Images/BlackBeadChoiceCorrect.png","","null"
"image-button-response","230","314040","0.0-13.0-0.57","56","Low_HMMActual","","","","","","2179.745000001276","","","","Images/NewTrialBC.png","","0"
"image-button-response","231","314354","0.0-13.0-1.57","56","Low_HMMActual","","","","","","null","","","","Images/BlackBeadChoice.png","","null"
"image-button-response","232","314869","0.0-13.0-2.57","56","Low_HMMActual","","","","","","null","","","","Images/BlackBeadChoiceCorrect.png","","null"
"image-button-response","233","315652","0.0-13.0-0.58","56","Low_HMMActual","","","","","","781.2950000006822","","","","Images/NewTrialBC.png","","1"
"image-button-response","234","315953","0.0-13.0-1.58","56","Low_HMMActual","","","","","","null","","","","Images/BlackBeadChoice.png","","null"
"image-button-response","235","316464","0.0-13.0-2.58","56","Low_HMMActual","","","","","","null","","","","Images/BlackBeadChoiceCorrect.png","","null"
"image-button-response","236","317234","0.0-13.0-0.59","56","Low_HMMActual","","","","","","768.6099999991711","","","","Images/NewTrialBC.png","","0"
"image-button-response","237","317536","0.0-13.0-1.59","56","Low_HMMActual","","","","","","null","","","","Images/BlackBeadChoice.png","","null"
"image-button-response","238","318037","0.0-13.0-2.59","56","Low_HMMActual","","","","","","null","","","","Images/BlackBeadChoiceCorrect.png","","null"
"image-button-response","239","318439","0.0-13.0-0.60","56","Low_HMMActual","","","","","","400.62500000203727","","","","Images/NewTrialBC.png","","0"
"image-button-response","240","318754","0.0-13.0-1.60","56","Low_HMMActual","","","","","","null","","","","Images/BlackBeadChoice.png","","null"
"image-button-response","241","319255","0.0-13.0-2.60","56","Low_HMMActual","","","","","","null","","","","Images/BlackBeadChoiceCorrect.png","","null"
"image-button-response","242","319542","0.0-13.0-0.61","56","Low_HMMActual","","","","","","284.84499999828404","","","","Images/NewTrialBC.png","","0"
"image-button-response","243","319844","0.0-13.0-1.61","56","Low_HMMActual","","","","","","null","","","","Images/BlackBeadChoice.png","","null"
"image-button-response","244","320345","0.0-13.0-2.61","56","Low_HMMActual","","","","","","null","","","","Images/BlackBeadChoiceCorrect.png","","null"
"image-button-response","245","321431","0.0-13.0-0.62","56","Low_HMMActual","","","","","","1084.7200000025332","","","","Images/NewTrialBC.png","","0"
"image-button-response","246","321733","0.0-13.0-1.62","56","Low_HMMActual","","","","","","null","","","","Images/BlackBeadChoice.png","","null"
"image-button-response","247","322234","0.0-13.0-2.62","56","Low_HMMActual","","","","","","null","","","","Images/BlackBeadChoiceWrong.png","","null"
"image-button-response","248","324969","0.0-13.0-0.63","56","Low_HMMActual","","","","","","2734.1750000014435","","","","Images/NewTrialWC.png","","3"
"image-button-response","249","325272","0.0-13.0-1.63","56","Low_HMMActual","","","","","","null","","","","Images/WhiteBeadChoice.png","","null"
"image-button-response","250","325774","0.0-13.0-2.63","56","Low_HMMActual","","","","","","null","","","","Images/WhiteBeadChoiceWrong.png","","null"
"image-button-response","251","327749","0.0-13.0-0.64","56","Low_HMMActual","","","","","","1974.1050000011455","","","","Images/NewTrialBC.png","","0"
"image-button-response","252","328054","0.0-13.0-1.64","56","Low_HMMActual","","","","","","null","","","","Images/BlackBeadChoice.png","","null"
"image-button-response","253","328556","0.0-13.0-2.64","56","Low_HMMActual","","","","","","null","","","","Images/BlackBeadChoiceCorrect.png","","null"
"image-button-response","254","328706","0.0-13.0-0.65","56","Low_HMMActual","","","","","","148.62999999971362","","","","Images/NewTrialBC.png","","0"
"image-button-response","255","329007","0.0-13.0-1.65","56","Low_HMMActual","","","","","","null","","","","Images/BlackBeadChoice.png","","null"
"image-button-response","256","329509","0.0-13.0-2.65","56","Low_HMMActual","","","","","","null","","","","Images/BlackBeadChoiceWrong.png","","null"
"image-button-response","257","330191","0.0-13.0-0.66","56","Low_HMMActual","","","","","","681.0799999984447","","","","Images/NewTrialWC.png","","2"
"image-button-response","258","330493","0.0-13.0-1.66","56","Low_HMMActual","","","","","","null","","","","Images/WhiteBeadChoice.png","","null"
"image-button-response","259","330994","0.0-13.0-2.66","56","Low_HMMActual","","","","","","null","","","","Images/WhiteBeadChoiceWrong.png","","null"
"image-button-response","260","331347","0.0-13.0-0.67","56","Low_HMMActual","","","","","","351.73500000021886","","","","Images/NewTrialBC.png","","0"
"image-button-response","261","331648","0.0-13.0-1.67","56","Low_HMMActual","","","","","","null","","","","Images/BlackBeadChoice.png","","null"
"image-button-response","262","332149","0.0-13.0-2.67","56","Low_HMMActual","","","","","","null","","","","Images/BlackBeadChoiceCorrect.png","","null"
"image-button-response","263","332608","0.0-13.0-0.68","56","Low_HMMActual","","","","","","457.3449999988661","","","","Images/NewTrialBC.png","","0"
"image-button-response","264","332912","0.0-13.0-1.68","56","Low_HMMActual","","","","","","null","","","","Images/BlackBeadChoice.png","","null"
"image-button-response","265","333413","0.0-13.0-2.68","56","Low_HMMActual","","","","","","null","","","","Images/BlackBeadChoiceWrong.png","","null"
"image-button-response","266","333994","0.0-13.0-0.69","56","Low_HMMActual","","","","","","579.649999999674","","","","Images/NewTrialWC.png","","3"
"image-button-response","267","334295","0.0-13.0-1.69","56","Low_HMMActual","","","","","","null","","","","Images/WhiteBeadChoice.png","","null"
"image-button-response","268","334797","0.0-13.0-2.69","56","Low_HMMActual","","","","","","null","","","","Images/WhiteBeadChoiceCorrect.png","","null"
"image-button-response","269","334918","0.0-13.0-0.70","56","Low_HMMActual","","","","","","119.95000000024447","","","","Images/NewTrialWC.png","","3"
"image-button-response","270","335219","0.0-13.0-1.70","56","Low_HMMActual","","","","","","null","","","","Images/WhiteBeadChoice.png","","null"
"image-button-response","271","335721","0.0-13.0-2.70","56","Low_HMMActual","","","","","","null","","","","Images/WhiteBeadChoiceWrong.png","","null"
"image-button-response","272","335929","0.0-13.0-0.71","56","Low_HMMActual","","","","","","206.88500000326894","","","","Images/NewTrialBC.png","","1"
"image-button-response","273","336230","0.0-13.0-1.71","56","Low_HMMActual","","","","","","null","","","","Images/BlackBeadChoice.png","","null"
"image-button-response","274","336732","0.0-13.0-2.71","56","Low_HMMActual","","","","","","null","","","","Images/BlackBeadChoiceCorrect.png","","null"
"image-button-response","275","338010","0.0-13.0-0.72","56","Low_HMMActual","","","","","","1276.355000001844","","","","Images/NewTrialBC.png","","0"
"image-button-response","276","338312","0.0-13.0-1.72","56","Low_HMMActual","","","","","","null","","","","Images/BlackBeadChoice.png","","null"
"image-button-response","277","338828","0.0-13.0-2.72","56","Low_HMMActual","","","","","","null","","","","Images/BlackBeadChoiceCorrect.png","","null"
"image-button-response","278","339025","0.0-13.0-0.73","56","Low_HMMActual","","","","","","196.11000000080094","","","","Images/NewTrialBC.png","","0"
"image-button-response","279","339329","0.0-13.0-1.73","56","Low_HMMActual","","","","","","null","","","","Images/BlackBeadChoice.png","","null"
"image-button-response","280","339845","0.0-13.0-2.73","56","Low_HMMActual","","","","","","null","","","","Images/BlackBeadChoiceCorrect.png","","null"
"image-button-response","281","340125","0.0-13.0-0.74","56","Low_HMMActual","","","","","","279.15500000014435","","","","Images/NewTrialBC.png","","0"
"image-button-response","282","340429","0.0-13.0-1.74","56","Low_HMMActual","","","","","","null","","","","Images/BlackBeadChoice.png","","null"
"image-button-response","283","340931","0.0-13.0-2.74","56","Low_HMMActual","","","","","","null","","","","Images/BlackBeadChoiceWrong.png","","null"
"image-button-response","284","341431","0.0-13.0-0.75","56","Low_HMMActual","","","","","","498.1899999984307","","","","Images/NewTrialWC.png","","3"
"image-button-response","285","341732","0.0-13.0-1.75","56","Low_HMMActual","","","","","","null","","","","Images/WhiteBeadChoice.png","","null"
"image-button-response","286","342233","0.0-13.0-2.75","56","Low_HMMActual","","","","","","null","","","","Images/WhiteBeadChoiceCorrect.png","","null"
"image-button-response","287","343091","0.0-13.0-0.76","56","Low_HMMActual","","","","","","856.7699999985052","","","","Images/NewTrialWC.png","","3"
"image-button-response","288","343393","0.0-13.0-1.76","56","Low_HMMActual","","","","","","null","","","","Images/WhiteBeadChoice.png","","null"
"image-button-response","289","343895","0.0-13.0-2.76","56","Low_HMMActual","","","","","","null","","","","Images/WhiteBeadChoiceCorrect.png","","null"
"image-button-response","290","344342","0.0-13.0-0.77","56","Low_HMMActual","","","","","","444.25500000215834","","","","Images/NewTrialWC.png","","3"
"image-button-response","291","344643","0.0-13.0-1.77","56","Low_HMMActual","","","","","","null","","","","Images/WhiteBeadChoice.png","","null"
"image-button-response","292","345144","0.0-13.0-2.77","56","Low_HMMActual","","","","","","null","","","","Images/WhiteBeadChoiceWrong.png","","null"
"image-button-response","293","345876","0.0-13.0-0.78","56","Low_HMMActual","","","","","","731.434999997844","","","","Images/NewTrialBC.png","","0"
"image-button-response","294","346184","0.0-13.0-1.78","56","Low_HMMActual","","","","","","null","","","","Images/BlackBeadChoice.png","","null"
"image-button-response","295","346694","0.0-13.0-2.78","56","Low_HMMActual","","","","","","null","","","","Images/BlackBeadChoiceCorrect.png","","null"
"image-button-response","296","346829","0.0-13.0-0.79","56","Low_HMMActual","","","","","","132.5749999996624","","","","Images/NewTrialBC.png","","0"
"image-button-response","297","347139","0.0-13.0-1.79","56","Low_HMMActual","","","","","","null","","","","Images/BlackBeadChoice.png","","null"
"image-button-response","298","347640","0.0-13.0-2.79","56","Low_HMMActual","","","","","","null","","","","Images/BlackBeadChoiceWrong.png","","null"
"image-button-response","299","348256","0.0-13.0-0.80","56","Low_HMMActual","","","","","","612.1399999974528","","","","Images/NewTrialWC.png","","3"
"image-button-response","300","348557","0.0-13.0-1.80","56","Low_HMMActual","","","","","","null","","","","Images/WhiteBeadChoice.png","","null"
"image-button-response","301","349058","0.0-13.0-2.80","56","Low_HMMActual","","","","","","null","","","","Images/WhiteBeadChoiceWrong.png","","null"
"image-button-response","302","349502","0.0-13.0-0.81","56","Low_HMMActual","","","","","","442.6800000000512","","","","Images/NewTrialBC.png","","0"
"image-button-response","303","349803","0.0-13.0-1.81","56","Low_HMMActual","","","","","","null","","","","Images/BlackBeadChoice.png","","null"
"image-button-response","304","350305","0.0-13.0-2.81","56","Low_HMMActual","","","","","","null","","","","Images/BlackBeadChoiceCorrect.png","","null"
"image-button-response","305","351155","0.0-13.0-0.82","56","Low_HMMActual","","","","","","848.4500000012922","","","","Images/NewTrialBC.png","","0"
"image-button-response","306","351461","0.0-13.0-1.82","56","Low_HMMActual","","","","","","null","","","","Images/BlackBeadChoice.png","","null"
"image-button-response","307","351967","0.0-13.0-2.82","56","Low_HMMActual","","","","","","null","","","","Images/BlackBeadChoiceWrong.png","","null"
"image-button-response","308","352625","0.0-13.0-0.83","56","Low_HMMActual","","","","","","655.7600000015227","","","","Images/NewTrialWC.png","","3"
"image-button-response","309","352926","0.0-13.0-1.83","56","Low_HMMActual","","","","","","null","","","","Images/WhiteBeadChoice.png","","null"
"image-button-response","310","353427","0.0-13.0-2.83","56","Low_HMMActual","","","","","","null","","","","Images/WhiteBeadChoiceWrong.png","","null"
"image-button-response","311","354889","0.0-13.0-0.84","56","Low_HMMActual","","","","","","1460.8100000004633","","","","Images/NewTrialBC.png","","0"
"image-button-response","312","355191","0.0-13.0-1.84","56","Low_HMMActual","","","","","","null","","","","Images/BlackBeadChoice.png","","null"
"image-button-response","313","355692","0.0-13.0-2.84","56","Low_HMMActual","","","","","","null","","","","Images/BlackBeadChoiceCorrect.png","","null"
"image-button-response","314","357288","0.0-13.0-0.85","56","Low_HMMActual","","","","","","1594.499999999185","","","","Images/NewTrialBC.png","","0"
"image-button-response","315","357590","0.0-13.0-1.85","56","Low_HMMActual","","","","","","null","","","","Images/BlackBeadChoice.png","","null"
"image-button-response","316","358092","0.0-13.0-2.85","56","Low_HMMActual","","","","","","null","","","","Images/BlackBeadChoiceCorrect.png","","null"
"image-button-response","317","358459","0.0-13.0-0.86","56","Low_HMMActual","","","","","","365.8499999983469","","","","Images/NewTrialBC.png","","0"
"image-button-response","318","358761","0.0-13.0-1.86","56","Low_HMMActual","","","","","","null","","","","Images/BlackBeadChoice.png","","null"
"image-button-response","319","359262","0.0-13.0-2.86","56","Low_HMMActual","","","","","","null","","","","Images/BlackBeadChoiceWrong.png","","null"
"image-button-response","320","359456","0.0-13.0-0.87","56","Low_HMMActual","","","","","","192.13500000117347","","","","Images/NewTrialWC.png","","3"
"image-button-response","321","359758","0.0-13.0-1.87","56","Low_HMMActual","","","","","","null","","","","Images/WhiteBeadChoice.png","","null"
"image-button-response","322","360259","0.0-13.0-2.87","56","Low_HMMActual","","","","","","null","","","","Images/WhiteBeadChoiceWrong.png","","null"
"image-button-response","323","361026","0.0-13.0-0.88","56","Low_HMMActual","","","","","","765.9400000011083","","","","Images/NewTrialBC.png","","0"
"image-button-response","324","361328","0.0-13.0-1.88","56","Low_HMMActual","","","","","","null","","","","Images/BlackBeadChoice.png","","null"
"image-button-response","325","361829","0.0-13.0-2.88","56","Low_HMMActual","","","","","","null","","","","Images/BlackBeadChoiceWrong.png","","null"
"image-button-response","326","362076","0.0-13.0-0.89","56","Low_HMMActual","","","","","","245.36000000080094","","","","Images/NewTrialWC.png","","2"
"image-button-response","327","362378","0.0-13.0-1.89","56","Low_HMMActual","","","","","","null","","","","Images/WhiteBeadChoice.png","","null"
"image-button-response","328","362879","0.0-13.0-2.89","56","Low_HMMActual","","","","","","null","","","","Images/WhiteBeadChoiceWrong.png","","null"
"image-button-response","329","363749","0.0-13.0-0.90","56","Low_HMMActual","","","","","","868.3949999976903","","","","Images/NewTrialBC.png","","1"
"image-button-response","330","364050","0.0-13.0-1.90","56","Low_HMMActual","","","","","","null","","","","Images/BlackBeadChoice.png","","null"
"image-button-response","331","364552","0.0-13.0-2.90","56","Low_HMMActual","","","","","","null","","","","Images/BlackBeadChoiceCorrect.png","","null"
"image-button-response","332","365048","0.0-13.0-0.91","56","Low_HMMActual","","","","","","494.0299999980489","","","","Images/NewTrialBC.png","","0"
"image-button-response","333","365350","0.0-13.0-1.91","56","Low_HMMActual","","","","","","null","","","","Images/BlackBeadChoice.png","","null"
"image-button-response","334","365853","0.0-13.0-2.91","56","Low_HMMActual","","","","","","448.6250000009313","","","","Images/BlackBeadChoiceCorrect.png","","0"
"image-button-response","335","366880","0.0-13.0-0.92","56","Low_HMMActual","","","","","","1025.2799999979907","","","","Images/NewTrialBC.png","","0"
"image-button-response","336","367181","0.0-13.0-1.92","56","Low_HMMActual","","","","","","null","","","","Images/BlackBeadChoice.png","","null"
"image-button-response","337","367696","0.0-13.0-2.92","56","Low_HMMActual","","","","","","391.7449999972014","","","","Images/BlackBeadChoiceCorrect.png","","0"
"image-button-response","338","368300","0.0-13.0-0.93","56","Low_HMMActual","","","","","","602.9200000011479","","","","Images/NewTrialBC.png","","0"
"image-button-response","339","368603","0.0-13.0-1.93","56","Low_HMMActual","","","","","","null","","","","Images/BlackBeadChoice.png","","null"
"image-button-response","340","369110","0.0-13.0-2.93","56","Low_HMMActual","","","","","","467.1699999998673","","","","Images/BlackBeadChoiceCorrect.png","","0"
"image-button-response","341","370147","0.0-13.0-0.94","56","Low_HMMActual","","","","","","1035.5399999971269","","","","Images/NewTrialBC.png","","0"
"image-button-response","342","370448","0.0-13.0-1.94","56","Low_HMMActual","","","","","","null","","","","Images/BlackBeadChoice.png","","null"
"image-button-response","343","370950","0.0-13.0-2.94","56","Low_HMMActual","","","","","","null","","","","Images/BlackBeadChoiceCorrect.png","","null"
"image-button-response","344","371294","0.0-13.0-0.95","56","Low_HMMActual","","","","","","343.0350000017206","","","","Images/NewTrialBC.png","","0"
"image-button-response","345","371595","0.0-13.0-1.95","56","Low_HMMActual","","","","","","null","","","","Images/BlackBeadChoice.png","","null"
"image-button-response","346","372097","0.0-13.0-2.95","56","Low_HMMActual","","","","","","null","","","","Images/BlackBeadChoiceCorrect.png","","null"
"image-button-response","347","372260","0.0-13.0-0.96","56","Low_HMMActual","","","","","","162.04500000091502","","","","Images/NewTrialBC.png","","0"
"image-button-response","348","372562","0.0-13.0-1.96","56","Low_HMMActual","","","","","","null","","","","Images/BlackBeadChoice.png","","null"
"image-button-response","349","373068","0.0-13.0-2.96","56","Low_HMMActual","","","","","","null","","","","Images/BlackBeadChoiceCorrect.png","","null"
"image-button-response","350","373601","0.0-13.0-0.97","56","Low_HMMActual","","","","","","531.0500000013853","","","","Images/NewTrialBC.png","","0"
"image-button-response","351","373902","0.0-13.0-1.97","56","Low_HMMActual","","","","","","null","","","","Images/BlackBeadChoice.png","","null"
"image-button-response","352","374404","0.0-13.0-2.97","56","Low_HMMActual","","","","","","null","","","","Images/BlackBeadChoiceWrong.png","","null"
"image-button-response","353","374849","0.0-13.0-0.98","56","Low_HMMActual","","","","","","444.0099999992526","","","","Images/NewTrialWC.png","","2"
"image-button-response","354","375150","0.0-13.0-1.98","56","Low_HMMActual","","","","","","null","","","","Images/WhiteBeadChoice.png","","null"
"image-button-response","355","375652","0.0-13.0-2.98","56","Low_HMMActual","","","","","","null","","","","Images/WhiteBeadChoiceWrong.png","","null"
"image-button-response","356","376377","0.0-13.0-0.99","56","Low_HMMActual","","","","","","722.7800000000279","","","","Images/NewTrialBC.png","","1"
"image-button-response","357","376685","0.0-13.0-1.99","56","Low_HMMActual","","","","","","null","","","","Images/BlackBeadChoice.png","","null"
"image-button-response","358","377186","0.0-13.0-2.99","56","Low_HMMActual","","","","","","null","","","","Images/BlackBeadChoiceCorrect.png","","null"
"image-button-response","359","378229","0.0-13.0-0.100","56","Low_HMMActual","","","","","","1041.3399999997346","","","","Images/NewTrialBC.png","","0"
"image-button-response","360","378531","0.0-13.0-1.100","56","Low_HMMActual","","","","","","null","","","","Images/BlackBeadChoice.png","","null"
"image-button-response","361","379032","0.0-13.0-2.100","56","Low_HMMActual","","","","","","null","","","","Images/BlackBeadChoiceWrong.png","","null"
"image-button-response","362","379939","0.0-13.0-0.101","56","Low_HMMActual","","","","","","905.9849999976577","","","","Images/NewTrialWC.png","","3"
"image-button-response","363","380254","0.0-13.0-1.101","56","Low_HMMActual","","","","","","null","","","","Images/WhiteBeadChoice.png","","null"
"image-button-response","364","380757","0.0-13.0-2.101","56","Low_HMMActual","","","","","","null","","","","Images/WhiteBeadChoiceCorrect.png","","null"
"image-button-response","365","381028","0.0-13.0-0.102","56","Low_HMMActual","","","","","","270.1200000010431","","","","Images/NewTrialWC.png","","3"
"image-button-response","366","381340","0.0-13.0-1.102","56","Low_HMMActual","","","","","","null","","","","Images/WhiteBeadChoice.png","","null"
"image-button-response","367","381841","0.0-13.0-2.102","56","Low_HMMActual","","","","","","null","","","","Images/WhiteBeadChoiceCorrect.png","","null"
"image-button-response","368","382002","0.0-13.0-0.103","56","Low_HMMActual","","","","","","159.26000000035856","","","","Images/NewTrialWC.png","","2"
"image-button-response","369","382316","0.0-13.0-1.103","56","Low_HMMActual","","","","","","null","","","","Images/WhiteBeadChoice.png","","null"
"image-button-response","370","382817","0.0-13.0-2.103","56","Low_HMMActual","","","","","","null","","","","Images/WhiteBeadChoiceCorrect.png","","null"
"image-button-response","371","383394","0.0-13.0-0.104","56","Low_HMMActual","","","","","","575.0999999982305","","","","Images/NewTrialWC.png","","2"
"image-button-response","372","383696","0.0-13.0-1.104","56","Low_HMMActual","","","","","","null","","","","Images/WhiteBeadChoice.png","","null"
"image-button-response","373","384201","0.0-13.0-2.104","56","Low_HMMActual","","","","","","null","","","","Images/WhiteBeadChoiceCorrect.png","","null"
"image-button-response","374","384456","0.0-13.0-0.105","56","Low_HMMActual","","","","","","252.98499999917112","","","","Images/NewTrialWC.png","","2"
"image-button-response","375","384769","0.0-13.0-1.105","56","Low_HMMActual","","","","","","null","","","","Images/WhiteBeadChoice.png","","null"
"image-button-response","376","385286","0.0-13.0-2.105","56","Low_HMMActual","","","","","","null","","","","Images/WhiteBeadChoiceCorrect.png","","null"
"image-button-response","377","385405","0.0-13.0-0.106","56","Low_HMMActual","","","","","","117.56499999685911","","","","Images/NewTrialWC.png","","2"
"image-button-response","378","385706","0.0-13.0-1.106","56","Low_HMMActual","","","","","","null","","","","Images/WhiteBeadChoice.png","","null"
"image-button-response","379","386208","0.0-13.0-2.106","56","Low_HMMActual","","","","","","null","","","","Images/WhiteBeadChoiceWrong.png","","null"
"image-button-response","380","387656","0.0-13.0-0.107","56","Low_HMMActual","","","","","","1447.280000000319","","","","Images/NewTrialBC.png","","0"
"image-button-response","381","387969","0.0-13.0-1.107","56","Low_HMMActual","","","","","","null","","","","Images/BlackBeadChoice.png","","null"
"image-button-response","382","388477","0.0-13.0-2.107","56","Low_HMMActual","","","","","","null","","","","Images/BlackBeadChoiceWrong.png","","null"
"image-button-response","383","390251","0.0-13.0-0.108","56","Low_HMMActual","","","","","","1772.3649999970803","","","","Images/NewTrialWC.png","","3"
"image-button-response","384","390560","0.0-13.0-1.108","56","Low_HMMActual","","","","","","null","","","","Images/WhiteBeadChoice.png","","null"
"image-button-response","385","391061","0.0-13.0-2.108","56","Low_HMMActual","","","","","","null","","","","Images/WhiteBeadChoiceWrong.png","","null"
"image-button-response","386","391506","0.0-13.0-0.109","56","Low_HMMActual","","","","","","443.6749999986496","","","","Images/NewTrialBC.png","","0"
"image-button-response","387","391808","0.0-13.0-1.109","56","Low_HMMActual","","","","","","null","","","","Images/BlackBeadChoice.png","","null"
"image-button-response","388","392309","0.0-13.0-2.109","56","Low_HMMActual","","","","","","460.914999999688","","","","Images/BlackBeadChoiceCorrect.png","","0"
"image-button-response","389","393344","0.0-13.0-0.110","56","Low_HMMActual","","","","","","1033.0749999993714","","","","Images/NewTrialBC.png","","1"
"image-button-response","390","393646","0.0-13.0-1.110","56","Low_HMMActual","","","","","","null","","","","Images/BlackBeadChoice.png","","null"
"image-button-response","391","394152","0.0-13.0-2.110","56","Low_HMMActual","","","","","","null","","","","Images/BlackBeadChoiceCorrect.png","","null"
"image-button-response","392","395285","0.0-13.0-0.111","56","Low_HMMActual","","","","","","1130.9999999976135","","","","Images/NewTrialBC.png","","1"
"image-button-response","393","395592","0.0-13.0-1.111","56","Low_HMMActual","","","","","","null","","","","Images/BlackBeadChoice.png","","null"
"image-button-response","394","396093","0.0-13.0-2.111","56","Low_HMMActual","","","","","","null","","","","Images/BlackBeadChoiceCorrect.png","","null"
"image-button-response","395","396205","0.0-13.0-0.112","56","Low_HMMActual","","","","","","110.44999999646097","","","","Images/NewTrialBC.png","","0"
"image-button-response","396","396517","0.0-13.0-1.112","56","Low_HMMActual","","","","","","null","","","","Images/BlackBeadChoice.png","","null"
"image-button-response","397","397034","0.0-13.0-2.112","56","Low_HMMActual","","","","","","null","","","","Images/BlackBeadChoiceCorrect.png","","null"
"image-button-response","398","397367","0.0-13.0-0.113","56","Low_HMMActual","","","","","","331.160000001546","","","","Images/NewTrialBC.png","","0"
"image-button-response","399","397680","0.0-13.0-1.113","56","Low_HMMActual","","","","","","null","","","","Images/BlackBeadChoice.png","","null"
"image-button-response","400","398182","0.0-13.0-2.113","56","Low_HMMActual","","","","","","null","","","","Images/BlackBeadChoiceCorrect.png","","null"
"image-button-response","401","398433","0.0-13.0-0.114","56","Low_HMMActual","","","","","","249.2099999981583","","","","Images/NewTrialBC.png","","1"
"image-button-response","402","398738","0.0-13.0-1.114","56","Low_HMMActual","","","","","","null","","","","Images/BlackBeadChoice.png","","null"
"image-button-response","403","399240","0.0-13.0-2.114","56","Low_HMMActual","","","","","","null","","","","Images/BlackBeadChoiceCorrect.png","","null"
"image-button-response","404","399399","0.0-13.0-0.115","56","Low_HMMActual","","","","","","157.55000000353903","","","","Images/NewTrialBC.png","","0"
"image-button-response","405","399714","0.0-13.0-1.115","56","Low_HMMActual","","","","","","null","","","","Images/BlackBeadChoice.png","","null"
"image-button-response","406","400216","0.0-13.0-2.115","56","Low_HMMActual","","","","","","null","","","","Images/BlackBeadChoiceCorrect.png","","null"
"image-button-response","407","400468","0.0-13.0-0.116","56","Low_HMMActual","","","","","","250.65499999985332","","","","Images/NewTrialBC.png","","1"
"image-button-response","408","400779","0.0-13.0-1.116","56","Low_HMMActual","","","","","","null","","","","Images/BlackBeadChoice.png","","null"
"image-button-response","409","401281","0.0-13.0-2.116","56","Low_HMMActual","","","","","","null","","","","Images/BlackBeadChoiceCorrect.png","","null"
"image-button-response","410","401456","0.0-13.0-0.117","56","Low_HMMActual","","","","","","173.88000000210013","","","","Images/NewTrialBC.png","","0"
"image-button-response","411","401762","0.0-13.0-1.117","56","Low_HMMActual","","","","","","null","","","","Images/BlackBeadChoice.png","","null"
"image-button-response","412","402264","0.0-13.0-2.117","56","Low_HMMActual","","","","","","464.44500000140397","","","","Images/BlackBeadChoiceCorrect.png","","0"
"image-button-response","413","403638","0.0-13.0-0.118","56","Low_HMMActual","","","","","","1372.6099999985308","","","","Images/NewTrialBC.png","","0"
"image-button-response","414","403939","0.0-13.0-1.118","56","Low_HMMActual","","","","","","null","","","","Images/BlackBeadChoice.png","","null"
"image-button-response","415","404455","0.0-13.0-2.118","56","Low_HMMActual","","","","","","417.269999998156","","","","Images/BlackBeadChoiceCorrect.png","","0"
"image-button-response","416","404929","0.0-13.0-0.119","56","Low_HMMActual","","","","","","472.3050000029616","","","","Images/NewTrialBC.png","","0"
"image-button-response","417","405239","0.0-13.0-1.119","56","Low_HMMActual","","","","","","null","","","","Images/BlackBeadChoice.png","","null"
"image-button-response","418","405741","0.0-13.0-2.119","56","Low_HMMActual","","","","","","null","","","","Images/BlackBeadChoiceCorrect.png","","null"
"image-button-response","419","405867","0.0-13.0-0.120","56","Low_HMMActual","","","","","","124.64000000187661","","","","Images/NewTrialBC.png","","0"
"image-button-response","420","406173","0.0-13.0-1.120","56","Low_HMMActual","","","","","","null","","","","Images/BlackBeadChoice.png","","null"
"image-button-response","421","406675","0.0-13.0-2.120","56","Low_HMMActual","","","","","","null","","","","Images/BlackBeadChoiceCorrect.png","","null"
"image-button-response","422","407463","0.0-13.0-0.121","56","Low_HMMActual","","","","","","786.1000000011409","","","","Images/NewTrialBC.png","","0"
"image-button-response","423","407779","0.0-13.0-1.121","56","Low_HMMActual","","","","","","null","","","","Images/BlackBeadChoice.png","","null"
"image-button-response","424","408290","0.0-13.0-2.121","56","Low_HMMActual","","","","","","null","","","","Images/BlackBeadChoiceCorrect.png","","null"
"image-button-response","425","409252","0.0-13.0-0.122","56","Low_HMMActual","","","","","","960.5599999995902","","","","Images/NewTrialBC.png","","0"
"image-button-response","426","409555","0.0-13.0-1.122","56","Low_HMMActual","","","","","","null","","","","Images/BlackBeadChoice.png","","null"
"image-button-response","427","410056","0.0-13.0-2.122","56","Low_HMMActual","","","","","","null","","","","Images/BlackBeadChoiceCorrect.png","","null"
"image-button-response","428","411046","0.0-13.0-0.123","56","Low_HMMActual","","","","","","988.3300000001327","","","","Images/NewTrialBC.png","","1"
"image-button-response","429","411351","0.0-13.0-1.123","56","Low_HMMActual","","","","","","null","","","","Images/BlackBeadChoice.png","","null"
"image-button-response","430","411853","0.0-13.0-2.123","56","Low_HMMActual","","","","","","null","","","","Images/BlackBeadChoiceCorrect.png","","null"
"image-button-response","431","412008","0.0-13.0-0.124","56","Low_HMMActual","","","","","","152.5949999995646","","","","Images/NewTrialBC.png","","0"
"image-button-response","432","412322","0.0-13.0-1.124","56","Low_HMMActual","","","","","","null","","","","Images/BlackBeadChoice.png","","null"
"image-button-response","433","412825","0.0-13.0-2.124","56","Low_HMMActual","","","","","","null","","","","Images/BlackBeadChoiceCorrect.png","","null"
"image-button-response","434","412953","0.0-13.0-0.125","56","Low_HMMActual","","","","","","126.38999999762746","","","","Images/NewTrialBC.png","","0"
"image-button-response","435","413264","0.0-13.0-1.125","56","Low_HMMActual","","","","","","null","","","","Images/BlackBeadChoice.png","","null"
"image-button-response","436","413765","0.0-13.0-2.125","56","Low_HMMActual","","","","","","null","","","","Images/BlackBeadChoiceCorrect.png","","null"
"image-button-response","437","414352","0.0-13.0-0.126","56","Low_HMMActual","","","","","","585.5799999990268","","","","Images/NewTrialBC.png","","1"
"image-button-response","438","414662","0.0-13.0-1.126","56","Low_HMMActual","","","","","","null","","","","Images/BlackBeadChoice.png","","null"
"image-button-response","439","415163","0.0-13.0-2.126","56","Low_HMMActual","","","","","","null","","","","Images/BlackBeadChoiceCorrect.png","","null"
"image-button-response","440","415347","0.0-13.0-0.127","56","Low_HMMActual","","","","","","181.62999999913154","","","","Images/NewTrialBC.png","","0"
"image-button-response","441","415652","0.0-13.0-1.127","56","Low_HMMActual","","","","","","null","","","","Images/BlackBeadChoice.png","","null"
"image-button-response","442","416155","0.0-13.0-2.127","56","Low_HMMActual","","","","","","null","","","","Images/BlackBeadChoiceCorrect.png","","null"
"image-button-response","443","416294","0.0-13.0-0.128","56","Low_HMMActual","","","","","","137.21000000077765","","","","Images/NewTrialBC.png","","0"
"image-button-response","444","416608","0.0-13.0-1.128","56","Low_HMMActual","","","","","","null","","","","Images/BlackBeadChoice.png","","null"
"image-button-response","445","417109","0.0-13.0-2.128","56","Low_HMMActual","","","","","","null","","","","Images/BlackBeadChoiceCorrect.png","","null"
"image-button-response","446","417480","0.0-13.0-0.129","56","Low_HMMActual","","","","","","364.6049999988172","","","","Images/NewTrialBC.png","","0"
"image-button-response","447","417795","0.0-13.0-1.129","56","Low_HMMActual","","","","","","null","","","","Images/BlackBeadChoice.png","","null"
"image-button-response","448","418304","0.0-13.0-2.129","56","Low_HMMActual","","","","","","452.2949999991106","","","","Images/BlackBeadChoiceCorrect.png","","0"
"image-button-response","449","418761","0.0-13.0-0.130","56","Low_HMMActual","","","","","","454.669999999227","","","","Images/NewTrialBC.png","","0"
"image-button-response","450","419067","0.0-13.0-1.130","56","Low_HMMActual","","","","","","null","","","","Images/BlackBeadChoice.png","","null"
"image-button-response","451","419570","0.0-13.0-2.130","56","Low_HMMActual","","","","","","null","","","","Images/BlackBeadChoiceCorrect.png","","null"
"image-button-response","452","419935","0.0-13.0-0.131","56","Low_HMMActual","","","","","","364.37000000302214","","","","Images/NewTrialBC.png","","0"
"image-button-response","453","420251","0.0-13.0-1.131","56","Low_HMMActual","","","","","","null","","","","Images/BlackBeadChoice.png","","null"
"image-button-response","454","420767","0.0-13.0-2.131","56","Low_HMMActual","","","","","","null","","","","Images/BlackBeadChoiceCorrect.png","","null"
"image-button-response","455","420980","0.0-13.0-0.132","56","Low_HMMActual","","","","","","212.53000000066822","","","","Images/NewTrialBC.png","","0"
"image-button-response","456","421291","0.0-13.0-1.132","56","Low_HMMActual","","","","","","null","","","","Images/BlackBeadChoice.png","","null"
"image-button-response","457","421809","0.0-13.0-2.132","56","Low_HMMActual","","","","","","null","","","","Images/BlackBeadChoiceCorrect.png","","null"
"image-button-response","458","421986","0.0-13.0-0.133","56","Low_HMMActual","","","","","","174.49499999929685","","","","Images/NewTrialBC.png","","0"
"image-button-response","459","422297","0.0-13.0-1.133","56","Low_HMMActual","","","","","","null","","","","Images/BlackBeadChoice.png","","null"
"image-button-response","460","422804","0.0-13.0-2.133","56","Low_HMMActual","","","","","","null","","","","Images/BlackBeadChoiceCorrect.png","","null"
"image-button-response","461","423087","0.0-13.0-0.134","56","Low_HMMActual","","","","","","281.39999999984866","","","","Images/NewTrialBC.png","","0"
"image-button-response","462","423395","0.0-13.0-1.134","56","Low_HMMActual","","","","","","null","","","","Images/BlackBeadChoice.png","","null"
"image-button-response","463","423904","0.0-13.0-2.134","56","Low_HMMActual","","","","","","null","","","","Images/BlackBeadChoiceWrong.png","","null"
"image-button-response","464","424905","0.0-13.0-0.135","56","Low_HMMActual","","","","","","998.6749999989406","","","","Images/NewTrialWC.png","","3"
"image-button-response","465","425215","0.0-13.0-1.135","56","Low_HMMActual","","","","","","null","","","","Images/WhiteBeadChoice.png","","null"
"image-button-response","466","425719","0.0-13.0-2.135","56","Low_HMMActual","","","","","","null","","","","Images/WhiteBeadChoiceWrong.png","","null"
"image-button-response","467","427690","0.0-13.0-0.136","56","Low_HMMActual","","","","","","1969.6600000024773","","","","Images/NewTrialBC.png","","3"
"image-button-response","468","428000","0.0-13.0-1.136","56","Low_HMMActual","","","","","","null","","","","Images/WhiteBeadChoice.png","","null"
"image-button-response","469","428501","0.0-13.0-2.136","56","Low_HMMActual","","","","","","null","","","","Images/WhiteBeadChoiceWrong.png","","null"
"image-button-response","470","428936","0.0-13.0-0.137","56","Low_HMMActual","","","","","","433.61000000004424","","","","Images/NewTrialBC.png","","0"
"image-button-response","471","429241","0.0-13.0-1.137","56","Low_HMMActual","","","","","","null","","","","Images/BlackBeadChoice.png","","null"
"image-button-response","472","429759","0.0-13.0-2.137","56","Low_HMMActual","","","","","","null","","","","Images/BlackBeadChoiceCorrect.png","","null"
"image-button-response","473","430025","0.0-13.0-0.138","56","Low_HMMActual","","","","","","265.39000000047963","","","","Images/NewTrialBC.png","","0"
"image-button-response","474","430338","0.0-13.0-1.138","56","Low_HMMActual","","","","","","null","","","","Images/BlackBeadChoice.png","","null"
"image-button-response","475","430840","0.0-13.0-2.138","56","Low_HMMActual","","","","","","null","","","","Images/BlackBeadChoiceCorrect.png","","null"
"image-button-response","476","431847","0.0-13.0-0.139","56","Low_HMMActual","","","","","","1006.5250000006636","","","","Images/NewTrialBC.png","","0"
"image-button-response","477","432153","0.0-13.0-1.139","56","Low_HMMActual","","","","","","null","","","","Images/BlackBeadChoice.png","","null"
"image-button-response","478","432669","0.0-13.0-2.139","56","Low_HMMActual","","","","","","null","","","","Images/BlackBeadChoiceCorrect.png","","null"
"image-button-response","479","433092","0.0-13.0-0.140","56","Low_HMMActual","","","","","","421.49000000063097","","","","Images/NewTrialBC.png","","0"
"image-button-response","480","433394","0.0-13.0-1.140","56","Low_HMMActual","","","","","","null","","","","Images/BlackBeadChoice.png","","null"
"image-button-response","481","433904","0.0-13.0-2.140","56","Low_HMMActual","","","","","","null","","","","Images/BlackBeadChoiceCorrect.png","","null"
"image-button-response","482","434524","0.0-13.0-0.141","56","Low_HMMActual","","","","","","617.4050000008428","","","","Images/NewTrialBC.png","","0"
"image-button-response","483","434834","0.0-13.0-1.141","56","Low_HMMActual","","","","","","null","","","","Images/BlackBeadChoice.png","","null"
"image-button-response","484","435339","0.0-13.0-2.141","56","Low_HMMActual","","","","","","null","","","","Images/BlackBeadChoiceCorrect.png","","null"
"image-button-response","485","435944","0.0-13.0-0.142","56","Low_HMMActual","","","","","","604.1199999999953","","","","Images/NewTrialBC.png","","0"
"image-button-response","486","436250","0.0-13.0-1.142","56","Low_HMMActual","","","","","","null","","","","Images/BlackBeadChoice.png","","null"
"image-button-response","487","436771","0.0-13.0-2.142","56","Low_HMMActual","","","","","","null","","","","Images/BlackBeadChoiceWrong.png","","null"
"image-button-response","488","437736","0.0-13.0-0.143","56","Low_HMMActual","","","","","","963.5699999998906","","","","Images/NewTrialWC.png","","2"
"image-button-response","489","438037","0.0-13.0-1.143","56","Low_HMMActual","","","","","","null","","","","Images/WhiteBeadChoice.png","","null"
"image-button-response","490","438539","0.0-13.0-2.143","56","Low_HMMActual","","","","","","null","","","","Images/WhiteBeadChoiceWrong.png","","null"
"image-button-response","491","439178","0.0-13.0-0.144","56","Low_HMMActual","","","","","","638.0700000008801","","","","Images/NewTrialBC.png","","0"
"image-button-response","492","439488","0.0-13.0-1.144","56","Low_HMMActual","","","","","","null","","","","Images/BlackBeadChoice.png","","null"
"image-button-response","493","439995","0.0-13.0-2.144","56","Low_HMMActual","","","","","","null","","","","Images/BlackBeadChoiceCorrect.png","","null"
"image-button-response","494","440268","0.0-13.0-0.145","56","Low_HMMActual","","","","","","271.67999999801395","","","","Images/NewTrialBC.png","","0"
"image-button-response","495","440577","0.0-13.0-1.145","56","Low_HMMActual","","","","","","null","","","","Images/BlackBeadChoice.png","","null"
"image-button-response","496","441085","0.0-13.0-2.145","56","Low_HMMActual","","","","","","null","","","","Images/BlackBeadChoiceCorrect.png","","null"
"image-button-response","497","441455","0.0-13.0-0.146","56","Low_HMMActual","","","","","","367.8749999999418","","","","Images/NewTrialBC.png","","0"
"image-button-response","498","441763","0.0-13.0-1.146","56","Low_HMMActual","","","","","","null","","","","Images/BlackBeadChoice.png","","null"
"image-button-response","499","442264","0.0-13.0-2.146","56","Low_HMMActual","","","","","","null","","","","Images/BlackBeadChoiceCorrect.png","","null"
"image-button-response","500","442997","0.0-13.0-0.147","56","Low_HMMActual","","","","","","731.5049999997718","","","","Images/NewTrialBC.png","","0"
"image-button-response","501","443300","0.0-13.0-1.147","56","Low_HMMActual","","","","","","null","","","","Images/BlackBeadChoice.png","","null"
"image-button-response","502","443805","0.0-13.0-2.147","56","Low_HMMActual","","","","","","null","","","","Images/BlackBeadChoiceCorrect.png","","null"
"image-button-response","503","443949","0.0-13.0-0.148","56","Low_HMMActual","","","","","","143.05500000045868","","","","Images/NewTrialBC.png","","0"
"image-button-response","504","444259","0.0-13.0-1.148","56","Low_HMMActual","","","","","","null","","","","Images/BlackBeadChoice.png","","null"
"image-button-response","505","444764","0.0-13.0-2.148","56","Low_HMMActual","","","","","","null","","","","Images/BlackBeadChoiceCorrect.png","","null"
"image-button-response","506","445239","0.0-13.0-0.149","56","Low_HMMActual","","","","","","472.7050000001327","","","","Images/NewTrialBC.png","","0"
"image-button-response","507","445543","0.0-13.0-1.149","56","Low_HMMActual","","","","","","null","","","","Images/BlackBeadChoice.png","","null"
"image-button-response","508","446048","0.0-13.0-2.149","56","Low_HMMActual","","","","","","null","","","","Images/BlackBeadChoiceCorrect.png","","null"
"image-button-response","509","449759","0.0-13.0-0.150","56","Low_HMMActual","","","","","","3709.8100000002887","","","","Images/NewTrialBC.png","","0"
"image-button-response","510","450068","0.0-13.0-1.150","56","Low_HMMActual","","","","","","null","","","","Images/BlackBeadChoice.png","","null"
"image-button-response","511","450570","0.0-13.0-2.150","56","Low_HMMActual","","","","","","null","","","","Images/BlackBeadChoiceCorrect.png","","null"
"image-button-response","512","451047","0.0-13.0-0.151","56","Low_HMMActual","","","","","","475.42500000057044","","","","Images/NewTrialBC.png","","0"
"image-button-response","513","451350","0.0-13.0-1.151","56","Low_HMMActual","","","","","","null","","","","Images/BlackBeadChoice.png","","null"
"image-button-response","514","451852","0.0-13.0-2.151","56","Low_HMMActual","","","","","","null","","","","Images/BlackBeadChoiceCorrect.png","","null"
"image-button-response","515","456635","0.0-13.0-0.152","56","Low_HMMActual","","","","","","4781.829999999958","","","","Images/NewTrialBC.png","","0"
"image-button-response","516","456936","0.0-13.0-1.152","56","Low_HMMActual","","","","","","null","","","","Images/BlackBeadChoice.png","","null"
"image-button-response","517","457439","0.0-13.0-2.152","56","Low_HMMActual","","","","","","null","","","","Images/BlackBeadChoiceCorrect.png","","null"
"image-button-response","518","457606","0.0-13.0-0.153","56","Low_HMMActual","","","","","","166.08500000077765","","","","Images/NewTrialBC.png","","0"
"image-button-response","519","457909","0.0-13.0-1.153","56","Low_HMMActual","","","","","","null","","","","Images/BlackBeadChoice.png","","null"
"image-button-response","520","458410","0.0-13.0-2.153","56","Low_HMMActual","","","","","","null","","","","Images/BlackBeadChoiceWrong.png","","null"
"image-button-response","521","458869","0.0-13.0-0.154","56","Low_HMMActual","","","","","","455.38999999919906","","","","Images/NewTrialWC.png","","3"
"image-button-response","522","459170","0.0-13.0-1.154","56","Low_HMMActual","","","","","","null","","","","Images/WhiteBeadChoice.png","","null"
"image-button-response","523","459676","0.0-13.0-2.154","56","Low_HMMActual","","","","","","null","","","","Images/WhiteBeadChoiceWrong.png","","null"
"image-button-response","524","460155","0.0-13.0-0.155","56","Low_HMMActual","","","","","","477.93499999894993","","","","Images/NewTrialBC.png","","0"
"image-button-response","525","460456","0.0-13.0-1.155","56","Low_HMMActual","","","","","","null","","","","Images/BlackBeadChoice.png","","null"
"image-button-response","526","460966","0.0-13.0-2.155","56","Low_HMMActual","","","","","","null","","","","Images/BlackBeadChoiceCorrect.png","","null"
"image-button-response","527","480023","0.0-13.0-0.156","56","Low_HMMActual","","","","","","19055.389999997744","","","","Images/NewTrialBC.png","","0"
"image-button-response","528","480325","0.0-13.0-1.156","56","Low_HMMActual","","","","","","null","","","","Images/BlackBeadChoice.png","","null"
"image-button-response","529","480827","0.0-13.0-2.156","56","Low_HMMActual","","","","","","490.0850000012433","","","","Images/BlackBeadChoiceCorrect.png","","0"
"image-button-response","530","481530","0.0-13.0-0.157","56","Low_HMMActual","","","","","","701.3450000013108","","","","Images/NewTrialBC.png","","0"
"image-button-response","531","481831","0.0-13.0-1.157","56","Low_HMMActual","","","","","","null","","","","Images/BlackBeadChoice.png","","null"
"image-button-response","532","482332","0.0-13.0-2.157","56","Low_HMMActual","","","","","","479.2649999980931","","","","Images/BlackBeadChoiceCorrect.png","","0"
"image-button-response","533","483144","0.0-13.0-0.158","56","Low_HMMActual","","","","","","809.6799999984796","","","","Images/NewTrialBC.png","","0"
"image-button-response","534","483447","0.0-13.0-1.158","56","Low_HMMActual","","","","","","null","","","","Images/BlackBeadChoice.png","","null"
"image-button-response","535","483953","0.0-13.0-2.158","56","Low_HMMActual","","","","","","null","","","","Images/BlackBeadChoiceCorrect.png","","null"
"image-button-response","536","484683","0.0-13.0-0.159","56","Low_HMMActual","","","","","","727.3299999979208","","","","Images/NewTrialBC.png","","0"
"image-button-response","537","484988","0.0-13.0-1.159","56","Low_HMMActual","","","","","","null","","","","Images/BlackBeadChoice.png","","null"
"image-button-response","538","485505","0.0-13.0-2.159","56","Low_HMMActual","","","","","","427.09499999909895","","","","Images/BlackBeadChoiceCorrect.png","","0"
"image-button-response","539","486069","0.0-13.0-0.160","56","Low_HMMActual","","","","","","561.8800000011106","","","","Images/NewTrialBC.png","","0"
"image-button-response","540","486374","0.0-13.0-1.160","56","Low_HMMActual","","","","","","null","","","","Images/BlackBeadChoice.png","","null"
"image-button-response","541","486879","0.0-13.0-2.160","56","Low_HMMActual","","","","","","407.94499999901745","","","","Images/BlackBeadChoiceCorrect.png","","0"
"image-button-response","542","487406","0.0-13.0-0.161","56","Low_HMMActual","","","","","","524.9699999985751","","","","Images/NewTrialBC.png","","0"
"image-button-response","543","487715","0.0-13.0-1.161","56","Low_HMMActual","","","","","","null","","","","Images/BlackBeadChoice.png","","null"
"image-button-response","544","488224","0.0-13.0-2.161","56","Low_HMMActual","","","","","","null","","","","Images/BlackBeadChoiceCorrect.png","","null"
"image-button-response","545","488622","0.0-13.0-0.162","56","Low_HMMActual","","","","","","395.83000000123866","","","","Images/NewTrialBC.png","","0"
"image-button-response","546","488923","0.0-13.0-1.162","56","Low_HMMActual","","","","","","null","","","","Images/BlackBeadChoice.png","","null"
"image-button-response","547","489429","0.0-13.0-2.162","56","Low_HMMActual","","","","","","null","","","","Images/BlackBeadChoiceWrong.png","","null"
"image-button-response","548","490201","0.0-13.0-0.163","56","Low_HMMActual","","","","","","769.7700000025798","","","","Images/NewTrialWC.png","","3"
"image-button-response","549","490515","0.0-13.0-1.163","56","Low_HMMActual","","","","","","null","","","","Images/WhiteBeadChoice.png","","null"
"image-button-response","550","491016","0.0-13.0-2.163","56","Low_HMMActual","","","","","","null","","","","Images/WhiteBeadChoiceWrong.png","","null"
"image-button-response","551","491515","0.0-13.0-0.164","56","Low_HMMActual","","","","","","497.5099999974482","","","","Images/NewTrialBC.png","","0"
"image-button-response","552","491817","0.0-13.0-1.164","56","Low_HMMActual","","","","","","null","","","","Images/BlackBeadChoice.png","","null"
"image-button-response","553","492319","0.0-13.0-2.164","56","Low_HMMActual","","","","","","null","","","","Images/BlackBeadChoiceCorrect.png","","null"
"image-button-response","554","492924","0.0-13.0-0.165","56","Low_HMMActual","","","","","","602.9849999976577","","","","Images/NewTrialBC.png","","0"
"image-button-response","555","493225","0.0-13.0-1.165","56","Low_HMMActual","","","","","","null","","","","Images/BlackBeadChoice.png","","null"
"image-button-response","556","493729","0.0-13.0-2.165","56","Low_HMMActual","","","","","","null","","","","Images/BlackBeadChoiceCorrect.png","","null"
"image-button-response","557","494265","0.0-13.0-0.166","56","Low_HMMActual","","","","","","529.8199999997742","","","","Images/NewTrialBC.png","","0"
"image-button-response","558","494568","0.0-13.0-1.166","56","Low_HMMActual","","","","","","null","","","","Images/BlackBeadChoice.png","","null"
"image-button-response","559","495071","0.0-13.0-2.166","56","Low_HMMActual","","","","","","null","","","","Images/BlackBeadChoiceWrong.png","","null"
"image-button-response","560","495493","0.0-13.0-0.167","56","Low_HMMActual","","","","","","419.9349999980768","","","","Images/NewTrialWC.png","","2"
"image-button-response","561","495794","0.0-13.0-1.167","56","Low_HMMActual","","","","","","null","","","","Images/WhiteBeadChoice.png","","null"
"image-button-response","562","496296","0.0-13.0-2.167","56","Low_HMMActual","","","","","","null","","","","Images/WhiteBeadChoiceWrong.png","","null"
"image-button-response","563","496473","0.0-13.0-0.168","56","Low_HMMActual","","","","","","174.97500000172295","","","","Images/NewTrialBC.png","","0"
"image-button-response","564","496778","0.0-13.0-1.168","56","Low_HMMActual","","","","","","null","","","","Images/BlackBeadChoice.png","","null"
"image-button-response","565","497286","0.0-13.0-2.168","56","Low_HMMActual","","","","","","null","","","","Images/BlackBeadChoiceCorrect.png","","null"
"image-button-response","566","497884","0.0-13.0-0.169","56","Low_HMMActual","","","","","","597.0449999986449","","","","Images/NewTrialBC.png","","0"
"image-button-response","567","498186","0.0-13.0-1.169","56","Low_HMMActual","","","","","","null","","","","Images/BlackBeadChoice.png","","null"
"image-button-response","568","498699","0.0-13.0-2.169","56","Low_HMMActual","","","","","","null","","","","Images/BlackBeadChoiceCorrect.png","","null"
"image-button-response","569","499264","0.0-13.0-0.170","56","Low_HMMActual","","","","","","561.8450000002049","","","","Images/NewTrialBC.png","","0"
"image-button-response","570","499579","0.0-13.0-1.170","56","Low_HMMActual","","","","","","null","","","","Images/BlackBeadChoice.png","","null"
"image-button-response","571","500094","0.0-13.0-2.170","56","Low_HMMActual","","","","","","null","","","","Images/BlackBeadChoiceCorrect.png","","null"
"image-button-response","572","500466","0.0-13.0-0.171","56","Low_HMMActual","","","","","","370.66000000049826","","","","Images/NewTrialBC.png","","0"
"image-button-response","573","500777","0.0-13.0-1.171","56","Low_HMMActual","","","","","","null","","","","Images/BlackBeadChoice.png","","null"
"image-button-response","574","501284","0.0-13.0-2.171","56","Low_HMMActual","","","","","","null","","","","Images/BlackBeadChoiceWrong.png","","null"
"image-button-response","575","503837","0.0-13.0-0.172","56","Low_HMMActual","","","","","","2551.49999999773","","","","Images/NewTrialWC.png","","1"
"image-button-response","576","504142","0.0-13.0-1.172","56","Low_HMMActual","","","","","","null","","","","Images/BlackBeadChoice.png","","null"
"image-button-response","577","504644","0.0-13.0-2.172","56","Low_HMMActual","","","","","","null","","","","Images/BlackBeadChoiceWrong.png","","null"
"image-button-response","578","505480","0.0-13.0-0.173","56","Low_HMMActual","","","","","","833.1399999987916","","","","Images/NewTrialWC.png","","3"
"image-button-response","579","505790","0.0-13.0-1.173","56","Low_HMMActual","","","","","","null","","","","Images/WhiteBeadChoice.png","","null"
"image-button-response","580","506291","0.0-13.0-2.173","56","Low_HMMActual","","","","","","null","","","","Images/WhiteBeadChoiceCorrect.png","","null"
"image-button-response","581","506759","0.0-13.0-0.174","56","Low_HMMActual","","","","","","466.8199999978533","","","","Images/NewTrialWC.png","","3"
"image-button-response","582","507064","0.0-13.0-1.174","56","Low_HMMActual","","","","","","null","","","","Images/WhiteBeadChoice.png","","null"
"image-button-response","583","507566","0.0-13.0-2.174","56","Low_HMMActual","","","","","","null","","","","Images/WhiteBeadChoiceCorrect.png","","null"
"image-button-response","584","507795","0.0-13.0-0.175","56","Low_HMMActual","","","","","","228.25000000011642","","","","Images/NewTrialWC.png","","3"
"image-button-response","585","508104","0.0-13.0-1.175","56","Low_HMMActual","","","","","","null","","","","Images/WhiteBeadChoice.png","","null"
"image-button-response","586","508606","0.0-13.0-2.175","56","Low_HMMActual","","","","","","null","","","","Images/WhiteBeadChoiceWrong.png","","null"
"image-button-response","587","508896","0.0-13.0-0.176","56","Low_HMMActual","","","","","","289.440000000468","","","","Images/NewTrialBC.png","","0"
"image-button-response","588","509204","0.0-13.0-1.176","56","Low_HMMActual","","","","","","null","","","","Images/BlackBeadChoice.png","","null"
"image-button-response","589","509706","0.0-13.0-2.176","56","Low_HMMActual","","","","","","null","","","","Images/BlackBeadChoiceCorrect.png","","null"
"image-button-response","590","509914","0.0-13.0-0.177","56","Low_HMMActual","","","","","","207.26499999722","","","","Images/NewTrialBC.png","","0"
"image-button-response","591","510217","0.0-13.0-1.177","56","Low_HMMActual","","","","","","null","","","","Images/BlackBeadChoice.png","","null"
"image-button-response","592","510721","0.0-13.0-2.177","56","Low_HMMActual","","","","","","null","","","","Images/BlackBeadChoiceCorrect.png","","null"
"image-button-response","593","510858","0.0-13.0-0.178","56","Low_HMMActual","","","","","","134.44499999965774","","","","Images/NewTrialBC.png","","0"
"image-button-response","594","511162","0.0-13.0-1.178","56","Low_HMMActual","","","","","","null","","","","Images/BlackBeadChoice.png","","null"
"image-button-response","595","511665","0.0-13.0-2.178","56","Low_HMMActual","","","","","","null","","","","Images/BlackBeadChoiceCorrect.png","","null"
"image-button-response","596","512423","0.0-13.0-0.179","56","Low_HMMActual","","","","","","757.3650000013295","","","","Images/NewTrialBC.png","","0"
"image-button-response","597","512735","0.0-13.0-1.179","56","Low_HMMActual","","","","","","null","","","","Images/BlackBeadChoice.png","","null"
"image-button-response","598","513255","0.0-13.0-2.179","56","Low_HMMActual","","","","","","null","","","","Images/BlackBeadChoiceCorrect.png","","null"
"image-button-response","599","513418","0.0-13.0-0.180","56","Low_HMMActual","","","","","","161.73999999952503","","","","Images/NewTrialBC.png","","0"
"image-button-response","600","513734","0.0-13.0-1.180","56","Low_HMMActual","","","","","","null","","","","Images/BlackBeadChoice.png","","null"
"image-button-response","601","514236","0.0-13.0-2.180","56","Low_HMMActual","","","","","","null","","","","Images/BlackBeadChoiceCorrect.png","","null"
"image-button-response","602","514560","0.0-13.0-0.181","56","Low_HMMActual","","","","","","321.1749999972526","","","","Images/NewTrialBC.png","","0"
"image-button-response","603","514870","0.0-13.0-1.181","56","Low_HMMActual","","","","","","null","","","","Images/BlackBeadChoice.png","","null"
"image-button-response","604","515372","0.0-13.0-2.181","56","Low_HMMActual","","","","","","null","","","","Images/BlackBeadChoiceCorrect.png","","null"
"image-button-response","605","516433","0.0-13.0-0.182","56","Low_HMMActual","","","","","","1060.0049999993644","","","","Images/NewTrialBC.png","","0"
"image-button-response","606","516740","0.0-13.0-1.182","56","Low_HMMActual","","","","","","null","","","","Images/BlackBeadChoice.png","","null"
"image-button-response","607","517241","0.0-13.0-2.182","56","Low_HMMActual","","","","","","null","","","","Images/BlackBeadChoiceCorrect.png","","null"
"image-button-response","608","517606","0.0-13.0-0.183","56","Low_HMMActual","","","","","","363.48499999800697","","","","Images/NewTrialBC.png","","0"
"image-button-response","609","517918","0.0-13.0-1.183","56","Low_HMMActual","","","","","","null","","","","Images/BlackBeadChoice.png","","null"
"image-button-response","610","518419","0.0-13.0-2.183","56","Low_HMMActual","","","","","","480.9850000019651","","","","Images/BlackBeadChoiceCorrect.png","","0"
"image-button-response","611","518822","0.0-13.0-0.184","56","Low_HMMActual","","","","","","399.810000002617","","","","Images/NewTrialBC.png","","0"
"image-button-response","612","519131","0.0-13.0-1.184","56","Low_HMMActual","","","","","","null","","","","Images/BlackBeadChoice.png","","null"
"image-button-response","613","519635","0.0-13.0-2.184","56","Low_HMMActual","","","","","","null","","","","Images/BlackBeadChoiceWrong.png","","null"
"image-button-response","614","520274","0.0-13.0-0.185","56","Low_HMMActual","","","","","","638.1299999993062","","","","Images/NewTrialWC.png","","3"
"image-button-response","615","520575","0.0-13.0-1.185","56","Low_HMMActual","","","","","","null","","","","Images/WhiteBeadChoice.png","","null"
"image-button-response","616","521077","0.0-13.0-2.185","56","Low_HMMActual","","","","","","null","","","","Images/WhiteBeadChoiceWrong.png","","null"
"image-button-response","617","521365","0.0-13.0-0.186","56","Low_HMMActual","","","","","","287.110000001092","","","","Images/NewTrialBC.png","","0"
"image-button-response","618","521669","0.0-13.0-1.186","56","Low_HMMActual","","","","","","null","","","","Images/BlackBeadChoice.png","","null"
"image-button-response","619","522176","0.0-13.0-2.186","56","Low_HMMActual","","","","","","null","","","","Images/BlackBeadChoiceCorrect.png","","null"
"image-button-response","620","522380","0.0-13.0-0.187","56","Low_HMMActual","","","","","","202.7300000008545","","","","Images/NewTrialBC.png","","0"
"image-button-response","621","522682","0.0-13.0-1.187","56","Low_HMMActual","","","","","","null","","","","Images/BlackBeadChoice.png","","null"
"image-button-response","622","523196","0.0-13.0-2.187","56","Low_HMMActual","","","","","","null","","","","Images/BlackBeadChoiceCorrect.png","","null"
"image-button-response","623","523833","0.0-13.0-0.188","56","Low_HMMActual","","","","","","635.3450000024168","","","","Images/NewTrialBC.png","","0"
"image-button-response","624","524135","0.0-13.0-1.188","56","Low_HMMActual","","","","","","null","","","","Images/BlackBeadChoice.png","","null"
"image-button-response","625","524639","0.0-13.0-2.188","56","Low_HMMActual","","","","","","null","","","","Images/BlackBeadChoiceCorrect.png","","null"
"image-button-response","626","524877","0.0-13.0-0.189","56","Low_HMMActual","","","","","","236.19500000122935","","","","Images/NewTrialBC.png","","1"
"image-button-response","627","525194","0.0-13.0-1.189","56","Low_HMMActual","","","","","","null","","","","Images/BlackBeadChoice.png","","null"
"image-button-response","628","525699","0.0-13.0-2.189","56","Low_HMMActual","","","","","","null","","","","Images/BlackBeadChoiceCorrect.png","","null"
"image-button-response","629","526038","0.0-13.0-0.190","56","Low_HMMActual","","","","","","337.310000002617","","","","Images/NewTrialBC.png","","1"
"image-button-response","630","526354","0.0-13.0-1.190","56","Low_HMMActual","","","","","","null","","","","Images/BlackBeadChoice.png","","null"
"image-button-response","631","526855","0.0-13.0-2.190","56","Low_HMMActual","","","","","","null","","","","Images/BlackBeadChoiceCorrect.png","","null"
"image-button-response","632","526969","0.0-13.0-0.191","56","Low_HMMActual","","","","","","112.44500000250991","","","","Images/NewTrialBC.png","","0"
"image-button-response","633","527286","0.0-13.0-1.191","56","Low_HMMActual","","","","","","null","","","","Images/BlackBeadChoice.png","","null"
"image-button-response","634","527787","0.0-13.0-2.191","56","Low_HMMActual","","","","","","390.1299999997718","","","","Images/BlackBeadChoiceCorrect.png","","0"
"image-button-response","635","528136","0.0-13.0-0.192","56","Low_HMMActual","","","","","","343.13999999722","","","","Images/NewTrialBC.png","","0"
"image-button-response","636","528447","0.0-13.0-1.192","56","Low_HMMActual","","","","","","null","","","","Images/BlackBeadChoice.png","","null"
"image-button-response","637","528959","0.0-13.0-2.192","56","Low_HMMActual","","","","","","383.70500000030734","","","","Images/BlackBeadChoiceCorrect.png","","0"
"image-button-response","638","529295","0.0-13.0-0.193","56","Low_HMMActual","","","","","","333.99999999895226","","","","Images/NewTrialBC.png","","0"
"image-button-response","639","529610","0.0-13.0-1.193","56","Low_HMMActual","","","","","","null","","","","Images/BlackBeadChoice.png","","null"
"image-button-response","640","530112","0.0-13.0-2.193","56","Low_HMMActual","","","","","","null","","","","Images/BlackBeadChoiceWrong.png","","null"
"image-button-response","641","530484","0.0-13.0-0.194","56","Low_HMMActual","","","","","","370.57500000076834","","","","Images/NewTrialWC.png","","3"
"image-button-response","642","530786","0.0-13.0-1.194","56","Low_HMMActual","","","","","","null","","","","Images/WhiteBeadChoice.png","","null"
"image-button-response","643","531287","0.0-13.0-2.194","56","Low_HMMActual","","","","","","null","","","","Images/WhiteBeadChoiceWrong.png","","null"
"image-button-response","644","533410","0.0-13.0-0.195","56","Low_HMMActual","","","","","","2121.194999999716","","","","Images/NewTrialBC.png","","3"
"image-button-response","645","533718","0.0-13.0-1.195","56","Low_HMMActual","","","","","","null","","","","Images/WhiteBeadChoice.png","","null"
"image-button-response","646","534220","0.0-13.0-2.195","56","Low_HMMActual","","","","","","null","","","","Images/WhiteBeadChoiceWrong.png","","null"
"image-button-response","647","534506","0.0-13.0-0.196","56","Low_HMMActual","","","","","","284.5899999992689","","","","Images/NewTrialBC.png","","0"
"image-button-response","648","534813","0.0-13.0-1.196","56","Low_HMMActual","","","","","","null","","","","Images/BlackBeadChoice.png","","null"
"image-button-response","649","535327","0.0-13.0-2.196","56","Low_HMMActual","","","","","","511.8350000011269","","","","Images/BlackBeadChoiceCorrect.png","","0"
"image-button-response","650","535839","0.0-13.0-0.197","56","Low_HMMActual","","","","","","510.6400000003632","","","","Images/NewTrialBC.png","","0"
"image-button-response","651","536141","0.0-13.0-1.197","56","Low_HMMActual","","","","","","null","","","","Images/BlackBeadChoice.png","","null"
"image-button-response","652","536654","0.0-13.0-2.197","56","Low_HMMActual","","","","","","null","","","","Images/BlackBeadChoiceCorrect.png","","null"
"image-button-response","653","536739","0.0-13.0-0.198","56","Low_HMMActual","","","","","","83.21000000077765","","","","Images/NewTrialBC.png","","0"
"image-button-response","654","537055","0.0-13.0-1.198","56","Low_HMMActual","","","","","","null","","","","Images/BlackBeadChoice.png","","null"
"image-button-response","655","537558","0.0-13.0-2.198","56","Low_HMMActual","","","","","","446.90500000072643","","","","Images/BlackBeadChoiceCorrect.png","","0"
"image-button-response","656","537938","0.0-13.0-0.199","56","Low_HMMActual","","","","","","377.5099999983795","","","","Images/NewTrialBC.png","","0"
"image-button-response","657","538249","0.0-13.0-1.199","56","Low_HMMActual","","","","","","null","","","","Images/BlackBeadChoice.png","","null"
"image-button-response","658","538759","0.0-13.0-2.199","56","Low_HMMActual","","","","","","null","","","","Images/BlackBeadChoiceCorrect.png","","null"
"image-button-response","659","538915","0.0-13.0-0.200","56","Low_HMMActual","","","","","","154.2300000000978","","","","Images/NewTrialBC.png","","0"
"image-button-response","660","539217","0.0-13.0-1.200","56","Low_HMMActual","","","","","","null","","","","Images/BlackBeadChoice.png","","null"
