"trial_type","trial_index","time_elapsed","internal_node_id","Script_Picker","Block_Type","success","timeout","failed_images","failed_audio","failed_video","rt","url","responses","question_order","stimulus","key_press","response"
"pavlovia","0","4","0.0-0.0","1","Low_HMMActual","","","","","","","","","","","",""
"preload","1","5","0.0-1.0","1","Low_HMMActual","true","false","[]","[]","[]","","","","","","",""
"external-html","2","12213","0.0-2.0-0.0","1","Low_HMMActual","","","","","","12130","consent.html","","","","",""
"survey-multi-choice","3","30012","0.0-2.0-1.0","1","Low_HMMActual","","","","","","17797","","{""Q0"":""Male"",""Q1"":""White""}","[0,1]","","",""
"survey-text","4","32979","0.0-2.0-2.0","1","Low_HMMActual","","","","","","2964","","{""Q0"":""40""}","","","",""
"survey-text","5","54195","0.0-2.0-3.0","1","Low_HMMActual","","","","","","21100","","{""Q0"":""5ce7c46d79642d0017767d94""}","","","",""
"image-keyboard-response","6","68562","0.0-3.0-0.0","1","Low_HMMActual","","","","","","14256","","","","tutorial/tutorial1.png"," ",""
"image-keyboard-response","7","74483","0.0-3.0-0.1","1","Low_HMMActual","","","","","","5919","","","","tutorial/tutorial2.png"," ",""
"image-keyboard-response","8","77528","0.0-3.0-0.2","1","Low_HMMActual","","","","","","3043","","","","tutorial/tutorial3.png"," ",""
"image-keyboard-response","9","79020","0.0-3.0-0.3","1","Low_HMMActual","","","","","","1489","","","","tutorial/tutorial4.png"," ",""
"image-keyboard-response","10","81314","0.0-3.0-0.4","1","Low_HMMActual","","","","","","2291","","","","tutorial/tutorial5.png"," ",""
"image-keyboard-response","11","87121","0.0-3.0-0.5","1","Low_HMMActual","","","","","","5806","","","","tutorial/tutorial6.png"," ",""
"image-keyboard-response","12","90227","0.0-3.0-0.6","1","Low_HMMActual","","","","","","3105","","","","tutorial/tutorial7.png"," ",""
"image-keyboard-response","13","113633","0.0-3.0-0.7","1","Low_HMMActual","","","","","","23404","","","","tutorial/tutorial8.png"," ",""
"image-keyboard-response","14","116785","0.0-3.0-0.8","1","Low_HMMActual","","","","","","3151","","","","tutorial/tutorial9.png"," ",""
"image-keyboard-response","15","121210","0.0-3.0-0.9","1","Low_HMMActual","","","","","","4424","","","","tutorial/tutorial10.png"," ",""
"image-keyboard-response","16","123560","0.0-3.0-0.10","1","Low_HMMActual","","","","","","2348","","","","tutorial/tutorial11.png"," ",""
"image-keyboard-response","17","132626","0.0-3.0-0.11","1","Low_HMMActual","","","","","","9065","","","","tutorial/tutorial12.png"," ",""
"image-keyboard-response","18","138961","0.0-3.0-0.12","1","Low_HMMActual","","","","","","6331","","","","tutorial/tutorial13.png"," ",""
"image-keyboard-response","19","150810","0.0-3.0-0.13","1","Low_HMMActual","","","","","","11848","","","","tutorial/tutorial14.png"," ",""
"image-keyboard-response","20","153089","0.0-3.0-0.14","1","Low_HMMActual","","","","","","2277","","","","tutorial/tutorial15.png"," ",""
"image-keyboard-response","21","159811","0.0-4.0","1","Low_HMMActual","","","","","","6720","","","","tutorial/tutorial16.png","arrowup",""
"image-keyboard-response","22","170048","0.0-5.0","1","Low_HMMActual","","","","","","8241","","","","tutorial/tutorial17.png","arrowright",""
"image-keyboard-response","23","195113","0.0-6.0","1","Low_HMMActual","","","","","","23647","","","","tutorial/tutorial18.png","arrowleft",""
"image-keyboard-response","24","200848","0.0-7.0","1","Low_HMMActual","","","","","","4797","","","","tutorial/tutorial19.png"," ",""
"html-keyboard-response","25","204172","0.0-8.0","146","Low_HMMActual","","","","","","3321","","","","<div class=""container"" style=""height:800px;width:800px;display:flex;flex-direction:column;justify-content:center;align-items:center;text-align:center;font-weight:normal;font-family:Arial;font-size:20px""><p>Loading episode&hellip;</p><div>"," ",""
"image-button-response","26","212859","0.0-9.0-0.0","146","Low_HMMActual","","","","","","8681","","","","Images/NoChoice.png","","0"
"image-button-response","27","213164","0.0-9.0-1.0","146","Low_HMMActual","","","","","","null","","","","Images/BlackBeadChoice.png","","null"
"image-button-response","28","213672","0.0-9.0-2.0","146","Low_HMMActual","","","","","","null","","","","Images/BlackBeadChoiceWrong.png","","null"
"image-button-response","29","220272","0.0-9.0-0.1","146","Low_HMMActual","","","","","","6597","","","","Images/NewTrialWC.png","","0"
"image-button-response","30","220587","0.0-9.0-1.1","146","Low_HMMActual","","","","","","null","","","","Images/BlackBeadChoice.png","","null"
"image-button-response","31","221090","0.0-9.0-2.1","146","Low_HMMActual","","","","","","null","","","","Images/BlackBeadChoiceCorrect.png","","null"
"image-button-response","32","224450","0.0-9.0-0.2","146","Low_HMMActual","","","","","","3356","","","","Images/NewTrialBC.png","","0"
"image-button-response","33","224758","0.0-9.0-1.2","146","Low_HMMActual","","","","","","null","","","","Images/BlackBeadChoice.png","","null"
"image-button-response","34","225271","0.0-9.0-2.2","146","Low_HMMActual","","","","","","null","","","","Images/BlackBeadChoiceCorrect.png","","null"
"image-button-response","35","227969","0.0-9.0-0.3","146","Low_HMMActual","","","","","","2698","","","","Images/NewTrialBC.png","","0"
"image-button-response","36","228285","0.0-9.0-1.3","146","Low_HMMActual","","","","","","null","","","","Images/BlackBeadChoice.png","","null"
"image-button-response","37","228794","0.0-9.0-2.3","146","Low_HMMActual","","","","","","null","","","","Images/BlackBeadChoiceCorrect.png","","null"
"image-button-response","38","229031","0.0-9.0-0.4","146","Low_HMMActual","","","","","","236","","","","Images/NewTrialBC.png","","0"
"image-button-response","39","229342","0.0-9.0-1.4","146","Low_HMMActual","","","","","","null","","","","Images/BlackBeadChoice.png","","null"
"image-button-response","40","229847","0.0-9.0-2.4","146","Low_HMMActual","","","","","","null","","","","Images/BlackBeadChoiceWrong.png","","null"
"image-button-response","41","231033","0.0-9.0-0.5","146","Low_HMMActual","","","","","","1184","","","","Images/NewTrialWC.png","","0"
"image-button-response","42","231337","0.0-9.0-1.5","146","Low_HMMActual","","","","","","null","","","","Images/BlackBeadChoice.png","","null"
"image-button-response","43","231849","0.0-9.0-2.5","146","Low_HMMActual","","","","","","null","","","","Images/BlackBeadChoiceWrong.png","","null"
"image-button-response","44","232514","0.0-9.0-0.6","146","Low_HMMActual","","","","","","662","","","","Images/NewTrialWC.png","","0"
"image-button-response","45","232817","0.0-9.0-1.6","146","Low_HMMActual","","","","","","null","","","","Images/BlackBeadChoice.png","","null"
"image-button-response","46","233329","0.0-9.0-2.6","146","Low_HMMActual","","","","","","null","","","","Images/BlackBeadChoiceWrong.png","","null"
"image-button-response","47","235066","0.0-9.0-0.7","146","Low_HMMActual","","","","","","1735","","","","Images/NewTrialWC.png","","2"
"image-button-response","48","235378","0.0-9.0-1.7","146","Low_HMMActual","","","","","","null","","","","Images/WhiteBeadChoice.png","","null"
"image-button-response","49","235897","0.0-9.0-2.7","146","Low_HMMActual","","","","","","null","","","","Images/WhiteBeadChoiceWrong.png","","null"
"image-button-response","50","237682","0.0-9.0-0.8","146","Low_HMMActual","","","","","","1783","","","","Images/NewTrialBC.png","","0"
"image-button-response","51","237985","0.0-9.0-1.8","146","Low_HMMActual","","","","","","null","","","","Images/BlackBeadChoice.png","","null"
"image-button-response","52","238497","0.0-9.0-2.8","146","Low_HMMActual","","","","","","null","","","","Images/BlackBeadChoiceCorrect.png","","null"
"image-button-response","53","240320","0.0-9.0-0.9","146","Low_HMMActual","","","","","","1821","","","","Images/NewTrialBC.png","","0"
"image-button-response","54","240634","0.0-9.0-1.9","146","Low_HMMActual","","","","","","null","","","","Images/BlackBeadChoice.png","","null"
"image-button-response","55","241141","0.0-9.0-2.9","146","Low_HMMActual","","","","","","null","","","","Images/BlackBeadChoiceCorrect.png","","null"
"html-keyboard-response","56","244169","0.0-10.0","146","Low_HMMActual","","","","","","3027","","","",""," ",""
"image-keyboard-response","57","246498","0.0-11.0","146","Low_HMMActual","","","","","","2327","","","","tutorial/tutorial20.png"," ",""
"html-keyboard-response","58","251656","0.0-12.0","195","Low_HMMActual","","","","","","5155","","","","<div class=""container"" style=""height:800px;width:800px;display:flex;flex-direction:column;justify-content:center;align-items:center;text-align:center;font-weight:normal;font-family:Arial;font-size:20px""><p>Loading episode&hellip;</p><div>"," ",""
"image-button-response","59","255556","0.0-13.0-0.0","195","Low_HMMActual","","","","","","3898","","","","Images/NoChoice.png","","1"
"image-button-response","60","255868","0.0-13.0-1.0","195","Low_HMMActual","","","","","","null","","","","Images/BlackBeadChoice.png","","null"
"image-button-response","61","256378","0.0-13.0-2.0","195","Low_HMMActual","","","","","","null","","","","Images/BlackBeadChoiceCorrect.png","","null"
"image-button-response","62","259198","0.0-13.0-0.1","195","Low_HMMActual","","","","","","2813","","","","Images/NewTrialBC.png","","1"
"image-button-response","63","259500","0.0-13.0-1.1","195","Low_HMMActual","","","","","","null","","","","Images/BlackBeadChoice.png","","null"
"image-button-response","64","260007","0.0-13.0-2.1","195","Low_HMMActual","","","","","","null","","","","Images/BlackBeadChoiceCorrect.png","","null"
"image-button-response","65","260659","0.0-13.0-0.2","195","Low_HMMActual","","","","","","652","","","","Images/NewTrialBC.png","","0"
"image-button-response","66","260976","0.0-13.0-1.2","195","Low_HMMActual","","","","","","null","","","","Images/BlackBeadChoice.png","","null"
"image-button-response","67","261488","0.0-13.0-2.2","195","Low_HMMActual","","","","","","null","","","","Images/BlackBeadChoiceCorrect.png","","null"
"image-button-response","68","262113","0.0-13.0-0.3","195","Low_HMMActual","","","","","","623","","","","Images/NewTrialBC.png","","0"
"image-button-response","69","262427","0.0-13.0-1.3","195","Low_HMMActual","","","","","","null","","","","Images/BlackBeadChoice.png","","null"
"image-button-response","70","262938","0.0-13.0-2.3","195","Low_HMMActual","","","","","","null","","","","Images/BlackBeadChoiceCorrect.png","","null"
"image-button-response","71","263468","0.0-13.0-0.4","195","Low_HMMActual","","","","","","527","","","","Images/NewTrialBC.png","","0"
"image-button-response","72","263775","0.0-13.0-1.4","195","Low_HMMActual","","","","","","null","","","","Images/BlackBeadChoice.png","","null"
"image-button-response","73","264287","0.0-13.0-2.4","195","Low_HMMActual","","","","","","null","","","","Images/BlackBeadChoiceCorrect.png","","null"
"image-button-response","74","264805","0.0-13.0-0.5","195","Low_HMMActual","","","","","","517","","","","Images/NewTrialBC.png","","0"
"image-button-response","75","265114","0.0-13.0-1.5","195","Low_HMMActual","","","","","","null","","","","Images/BlackBeadChoice.png","","null"
"image-button-response","76","265628","0.0-13.0-2.5","195","Low_HMMActual","","","","","","null","","","","Images/BlackBeadChoiceCorrect.png","","null"
"image-button-response","77","266121","0.0-13.0-0.6","195","Low_HMMActual","","","","","","492","","","","Images/NewTrialBC.png","","0"
"image-button-response","78","266432","0.0-13.0-1.6","195","Low_HMMActual","","","","","","null","","","","Images/BlackBeadChoice.png","","null"
"image-button-response","79","266942","0.0-13.0-2.6","195","Low_HMMActual","","","","","","null","","","","Images/BlackBeadChoiceCorrect.png","","null"
"image-button-response","80","267283","0.0-13.0-0.7","195","Low_HMMActual","","","","","","341","","","","Images/NewTrialBC.png","","0"
"image-button-response","81","267596","0.0-13.0-1.7","195","Low_HMMActual","","","","","","null","","","","Images/BlackBeadChoice.png","","null"
"image-button-response","82","268109","0.0-13.0-2.7","195","Low_HMMActual","","","","","","null","","","","Images/BlackBeadChoiceWrong.png","","null"
"image-button-response","83","268795","0.0-13.0-0.8","195","Low_HMMActual","","","","","","684","","","","Images/NewTrialWC.png","","0"
"image-button-response","84","269100","0.0-13.0-1.8","195","Low_HMMActual","","","","","","null","","","","Images/BlackBeadChoice.png","","null"
"image-button-response","85","269611","0.0-13.0-2.8","195","Low_HMMActual","","","","","","null","","","","Images/BlackBeadChoiceWrong.png","","null"
"image-button-response","86","270399","0.0-13.0-0.9","195","Low_HMMActual","","","","","","787","","","","Images/NewTrialWC.png","","0"
"image-button-response","87","270707","0.0-13.0-1.9","195","Low_HMMActual","","","","","","null","","","","Images/BlackBeadChoice.png","","null"
"image-button-response","88","271223","0.0-13.0-2.9","195","Low_HMMActual","","","","","","null","","","","Images/BlackBeadChoiceCorrect.png","","null"
"image-button-response","89","271873","0.0-13.0-0.10","195","Low_HMMActual","","","","","","649","","","","Images/NewTrialBC.png","","0"
"image-button-response","90","272179","0.0-13.0-1.10","195","Low_HMMActual","","","","","","null","","","","Images/BlackBeadChoice.png","","null"
"image-button-response","91","272695","0.0-13.0-2.10","195","Low_HMMActual","","","","","","null","","","","Images/BlackBeadChoiceCorrect.png","","null"
"image-button-response","92","273718","0.0-13.0-0.11","195","Low_HMMActual","","","","","","1020","","","","Images/NewTrialBC.png","","0"
"image-button-response","93","274030","0.0-13.0-1.11","195","Low_HMMActual","","","","","","null","","","","Images/BlackBeadChoice.png","","null"
"image-button-response","94","274541","0.0-13.0-2.11","195","Low_HMMActual","","","","","","null","","","","Images/BlackBeadChoiceWrong.png","","null"
"image-button-response","95","275543","0.0-13.0-0.12","195","Low_HMMActual","","","","","","1002","","","","Images/NewTrialWC.png","","0"
"image-button-response","96","275848","0.0-13.0-1.12","195","Low_HMMActual","","","","","","null","","","","Images/BlackBeadChoice.png","","null"
"image-button-response","97","276358","0.0-13.0-2.12","195","Low_HMMActual","","","","","","null","","","","Images/BlackBeadChoiceCorrect.png","","null"
"image-button-response","98","277217","0.0-13.0-0.13","195","Low_HMMActual","","","","","","855","","","","Images/NewTrialBC.png","","0"
"image-button-response","99","277521","0.0-13.0-1.13","195","Low_HMMActual","","","","","","null","","","","Images/BlackBeadChoice.png","","null"
"image-button-response","100","278035","0.0-13.0-2.13","195","Low_HMMActual","","","","","","null","","","","Images/BlackBeadChoiceCorrect.png","","null"
"image-button-response","101","278843","0.0-13.0-0.14","195","Low_HMMActual","","","","","","805","","","","Images/NewTrialBC.png","","0"
"image-button-response","102","279154","0.0-13.0-1.14","195","Low_HMMActual","","","","","","null","","","","Images/BlackBeadChoice.png","","null"
"image-button-response","103","279668","0.0-13.0-2.14","195","Low_HMMActual","","","","","","null","","","","Images/BlackBeadChoiceCorrect.png","","null"
"image-button-response","104","280327","0.0-13.0-0.15","195","Low_HMMActual","","","","","","654","","","","Images/NewTrialBC.png","","0"
"image-button-response","105","280627","0.0-13.0-1.15","195","Low_HMMActual","","","","","","null","","","","Images/BlackBeadChoice.png","","null"
"image-button-response","106","281141","0.0-13.0-2.15","195","Low_HMMActual","","","","","","null","","","","Images/BlackBeadChoiceCorrect.png","","null"
"image-button-response","107","281863","0.0-13.0-0.16","195","Low_HMMActual","","","","","","720","","","","Images/NewTrialBC.png","","0"
"image-button-response","108","282177","0.0-13.0-1.16","195","Low_HMMActual","","","","","","null","","","","Images/BlackBeadChoice.png","","null"
"image-button-response","109","282692","0.0-13.0-2.16","195","Low_HMMActual","","","","","","null","","","","Images/BlackBeadChoiceCorrect.png","","null"
"image-button-response","110","283320","0.0-13.0-0.17","195","Low_HMMActual","","","","","","627","","","","Images/NewTrialBC.png","","0"
"image-button-response","111","283625","0.0-13.0-1.17","195","Low_HMMActual","","","","","","null","","","","Images/BlackBeadChoice.png","","null"
"image-button-response","112","284134","0.0-13.0-2.17","195","Low_HMMActual","","","","","","null","","","","Images/BlackBeadChoiceCorrect.png","","null"
"image-button-response","113","284666","0.0-13.0-0.18","195","Low_HMMActual","","","","","","530","","","","Images/NewTrialBC.png","","0"
"image-button-response","114","284976","0.0-13.0-1.18","195","Low_HMMActual","","","","","","null","","","","Images/BlackBeadChoice.png","","null"
"image-button-response","115","285490","0.0-13.0-2.18","195","Low_HMMActual","","","","","","null","","","","Images/BlackBeadChoiceWrong.png","","null"
"image-button-response","116","288014","0.0-13.0-0.19","195","Low_HMMActual","","","","","","2522","","","","Images/NewTrialWC.png","","0"
"image-button-response","117","288316","0.0-13.0-1.19","195","Low_HMMActual","","","","","","null","","","","Images/BlackBeadChoice.png","","null"
"image-button-response","118","288832","0.0-13.0-2.19","195","Low_HMMActual","","","","","","null","","","","Images/BlackBeadChoiceCorrect.png","","null"
"image-button-response","119","289170","0.0-13.0-0.20","195","Low_HMMActual","","","","","","335","","","","Images/NewTrialBC.png","","0"
"image-button-response","120","289482","0.0-13.0-1.20","195","Low_HMMActual","","","","","","null","","","","Images/BlackBeadChoice.png","","null"
"image-button-response","121","289992","0.0-13.0-2.20","195","Low_HMMActual","","","","","","null","","","","Images/BlackBeadChoiceWrong.png","","null"
"image-button-response","122","291001","0.0-13.0-0.21","195","Low_HMMActual","","","","","","1007","","","","Images/NewTrialWC.png","","0"
"image-button-response","123","291307","0.0-13.0-1.21","195","Low_HMMActual","","","","","","null","","","","Images/BlackBeadChoice.png","","null"
"image-button-response","124","291820","0.0-13.0-2.21","195","Low_HMMActual","","","","","","null","","","","Images/BlackBeadChoiceCorrect.png","","null"
"image-button-response","125","292180","0.0-13.0-0.22","195","Low_HMMActual","","","","","","357","","","","Images/NewTrialBC.png","","0"
"image-button-response","126","292487","0.0-13.0-1.22","195","Low_HMMActual","","","","","","null","","","","Images/BlackBeadChoice.png","","null"
"image-button-response","127","292998","0.0-13.0-2.22","195","Low_HMMActual","","","","","","null","","","","Images/BlackBeadChoiceWrong.png","","null"
"image-button-response","128","293662","0.0-13.0-0.23","195","Low_HMMActual","","","","","","662","","","","Images/NewTrialWC.png","","0"
"image-button-response","129","293969","0.0-13.0-1.23","195","Low_HMMActual","","","","","","null","","","","Images/BlackBeadChoice.png","","null"
"image-button-response","130","294480","0.0-13.0-2.23","195","Low_HMMActual","","","","","","null","","","","Images/BlackBeadChoiceCorrect.png","","null"
"image-button-response","131","294976","0.0-13.0-0.24","195","Low_HMMActual","","","","","","493","","","","Images/NewTrialBC.png","","0"
"image-button-response","132","295286","0.0-13.0-1.24","195","Low_HMMActual","","","","","","null","","","","Images/BlackBeadChoice.png","","null"
"image-button-response","133","295799","0.0-13.0-2.24","195","Low_HMMActual","","","","","","null","","","","Images/BlackBeadChoiceCorrect.png","","null"
"image-button-response","134","296306","0.0-13.0-0.25","195","Low_HMMActual","","","","","","504","","","","Images/NewTrialBC.png","","0"
"image-button-response","135","296607","0.0-13.0-1.25","195","Low_HMMActual","","","","","","null","","","","Images/BlackBeadChoice.png","","null"
"image-button-response","136","297117","0.0-13.0-2.25","195","Low_HMMActual","","","","","","null","","","","Images/BlackBeadChoiceCorrect.png","","null"
"image-button-response","137","297521","0.0-13.0-0.26","195","Low_HMMActual","","","","","","401","","","","Images/NewTrialBC.png","","0"
"image-button-response","138","297821","0.0-13.0-1.26","195","Low_HMMActual","","","","","","null","","","","Images/BlackBeadChoice.png","","null"
"image-button-response","139","298334","0.0-13.0-2.26","195","Low_HMMActual","","","","","","null","","","","Images/BlackBeadChoiceCorrect.png","","null"
"image-button-response","140","298837","0.0-13.0-0.27","195","Low_HMMActual","","","","","","500","","","","Images/NewTrialBC.png","","0"
"image-button-response","141","299145","0.0-13.0-1.27","195","Low_HMMActual","","","","","","null","","","","Images/BlackBeadChoice.png","","null"
"image-button-response","142","299655","0.0-13.0-2.27","195","Low_HMMActual","","","","","","null","","","","Images/BlackBeadChoiceCorrect.png","","null"
"image-button-response","143","299978","0.0-13.0-0.28","195","Low_HMMActual","","","","","","319","","","","Images/NewTrialBC.png","","0"
"image-button-response","144","300283","0.0-13.0-1.28","195","Low_HMMActual","","","","","","null","","","","Images/BlackBeadChoice.png","","null"
"image-button-response","145","300785","0.0-13.0-2.28","195","Low_HMMActual","","","","","","null","","","","Images/BlackBeadChoiceCorrect.png","","null"
"image-button-response","146","300987","0.0-13.0-0.29","195","Low_HMMActual","","","","","","201","","","","Images/NewTrialBC.png","","0"
"image-button-response","147","301294","0.0-13.0-1.29","195","Low_HMMActual","","","","","","null","","","","Images/BlackBeadChoice.png","","null"
"image-button-response","148","301808","0.0-13.0-2.29","195","Low_HMMActual","","","","","","null","","","","Images/BlackBeadChoiceWrong.png","","null"
"image-button-response","149","302829","0.0-13.0-0.30","195","Low_HMMActual","","","","","","1018","","","","Images/NewTrialWC.png","","0"
"image-button-response","150","303132","0.0-13.0-1.30","195","Low_HMMActual","","","","","","null","","","","Images/BlackBeadChoice.png","","null"
"image-button-response","151","303646","0.0-13.0-2.30","195","Low_HMMActual","","","","","","426","","","","Images/BlackBeadChoiceCorrect.png","","0"
"image-button-response","152","304260","0.0-13.0-0.31","195","Low_HMMActual","","","","","","611","","","","Images/NewTrialBC.png","","0"
"image-button-response","153","304562","0.0-13.0-1.31","195","Low_HMMActual","","","","","","247","","","","Images/BlackBeadChoice.png","","0"
"image-button-response","154","305075","0.0-13.0-2.31","195","Low_HMMActual","","","","","","null","","","","Images/BlackBeadChoiceCorrect.png","","null"
"image-button-response","155","305251","0.0-13.0-0.32","195","Low_HMMActual","","","","","","174","","","","Images/NewTrialBC.png","","0"
"image-button-response","156","305558","0.0-13.0-1.32","195","Low_HMMActual","","","","","","null","","","","Images/BlackBeadChoice.png","","null"
"image-button-response","157","306070","0.0-13.0-2.32","195","Low_HMMActual","","","","","","null","","","","Images/BlackBeadChoiceCorrect.png","","null"
"image-button-response","158","306819","0.0-13.0-0.33","195","Low_HMMActual","","","","","","748","","","","Images/NewTrialBC.png","","0"
"image-button-response","159","307123","0.0-13.0-1.33","195","Low_HMMActual","","","","","","null","","","","Images/BlackBeadChoice.png","","null"
"image-button-response","160","307637","0.0-13.0-2.33","195","Low_HMMActual","","","","","","null","","","","Images/BlackBeadChoiceWrong.png","","null"
"image-button-response","161","308345","0.0-13.0-0.34","195","Low_HMMActual","","","","","","706","","","","Images/NewTrialWC.png","","0"
"image-button-response","162","308661","0.0-13.0-1.34","195","Low_HMMActual","","","","","","null","","","","Images/BlackBeadChoice.png","","null"
"image-button-response","163","309171","0.0-13.0-2.34","195","Low_HMMActual","","","","","","null","","","","Images/BlackBeadChoiceCorrect.png","","null"
"image-button-response","164","309821","0.0-13.0-0.35","195","Low_HMMActual","","","","","","649","","","","Images/NewTrialBC.png","","0"
"image-button-response","165","310129","0.0-13.0-1.35","195","Low_HMMActual","","","","","","null","","","","Images/BlackBeadChoice.png","","null"
"image-button-response","166","310637","0.0-13.0-2.35","195","Low_HMMActual","","","","","","null","","","","Images/BlackBeadChoiceCorrect.png","","null"
"image-button-response","167","311059","0.0-13.0-0.36","195","Low_HMMActual","","","","","","422","","","","Images/NewTrialBC.png","","0"
"image-button-response","168","311365","0.0-13.0-1.36","195","Low_HMMActual","","","","","","null","","","","Images/BlackBeadChoice.png","","null"
"image-button-response","169","311880","0.0-13.0-2.36","195","Low_HMMActual","","","","","","null","","","","Images/BlackBeadChoiceWrong.png","","null"
"image-button-response","170","312220","0.0-13.0-0.37","195","Low_HMMActual","","","","","","338","","","","Images/NewTrialWC.png","","0"
"image-button-response","171","312527","0.0-13.0-1.37","195","Low_HMMActual","","","","","","null","","","","Images/BlackBeadChoice.png","","null"
"image-button-response","172","313041","0.0-13.0-2.37","195","Low_HMMActual","","","","","","null","","","","Images/BlackBeadChoiceCorrect.png","","null"
"image-button-response","173","313408","0.0-13.0-0.38","195","Low_HMMActual","","","","","","365","","","","Images/NewTrialBC.png","","0"
"image-button-response","174","313710","0.0-13.0-1.38","195","Low_HMMActual","","","","","","null","","","","Images/BlackBeadChoice.png","","null"
"image-button-response","175","314224","0.0-13.0-2.38","195","Low_HMMActual","","","","","","null","","","","Images/BlackBeadChoiceWrong.png","","null"
"image-button-response","176","314899","0.0-13.0-0.39","195","Low_HMMActual","","","","","","670","","","","Images/NewTrialWC.png","","0"
"image-button-response","177","315205","0.0-13.0-1.39","195","Low_HMMActual","","","","","","null","","","","Images/BlackBeadChoice.png","","null"
"image-button-response","178","315719","0.0-13.0-2.39","195","Low_HMMActual","","","","","","null","","","","Images/BlackBeadChoiceCorrect.png","","null"
"image-button-response","179","316175","0.0-13.0-0.40","195","Low_HMMActual","","","","","","454","","","","Images/NewTrialBC.png","","0"
"image-button-response","180","316483","0.0-13.0-1.40","195","Low_HMMActual","","","","","","null","","","","Images/BlackBeadChoice.png","","null"
"image-button-response","181","316993","0.0-13.0-2.40","195","Low_HMMActual","","","","","","null","","","","Images/BlackBeadChoiceCorrect.png","","null"
"image-button-response","182","317453","0.0-13.0-0.41","195","Low_HMMActual","","","","","","458","","","","Images/NewTrialBC.png","","0"
"image-button-response","183","317757","0.0-13.0-1.41","195","Low_HMMActual","","","","","","null","","","","Images/BlackBeadChoice.png","","null"
"image-button-response","184","318270","0.0-13.0-2.41","195","Low_HMMActual","","","","","","null","","","","Images/BlackBeadChoiceWrong.png","","null"
"image-button-response","185","318853","0.0-13.0-0.42","195","Low_HMMActual","","","","","","582","","","","Images/NewTrialWC.png","","0"
"image-button-response","186","319168","0.0-13.0-1.42","195","Low_HMMActual","","","","","","null","","","","Images/BlackBeadChoice.png","","null"
"image-button-response","187","319680","0.0-13.0-2.42","195","Low_HMMActual","","","","","","null","","","","Images/BlackBeadChoiceCorrect.png","","null"
"image-button-response","188","320173","0.0-13.0-0.43","195","Low_HMMActual","","","","","","492","","","","Images/NewTrialBC.png","","0"
"image-button-response","189","320487","0.0-13.0-1.43","195","Low_HMMActual","","","","","","null","","","","Images/BlackBeadChoice.png","","null"
"image-button-response","190","320999","0.0-13.0-2.43","195","Low_HMMActual","","","","","","null","","","","Images/BlackBeadChoiceCorrect.png","","null"
"image-button-response","191","321559","0.0-13.0-0.44","195","Low_HMMActual","","","","","","558","","","","Images/NewTrialBC.png","","0"
"image-button-response","192","321868","0.0-13.0-1.44","195","Low_HMMActual","","","","","","null","","","","Images/BlackBeadChoice.png","","null"
"image-button-response","193","322382","0.0-13.0-2.44","195","Low_HMMActual","","","","","","null","","","","Images/BlackBeadChoiceWrong.png","","null"
"image-button-response","194","322787","0.0-13.0-0.45","195","Low_HMMActual","","","","","","403","","","","Images/NewTrialWC.png","","0"
"image-button-response","195","323098","0.0-13.0-1.45","195","Low_HMMActual","","","","","","null","","","","Images/BlackBeadChoice.png","","null"
"image-button-response","196","323608","0.0-13.0-2.45","195","Low_HMMActual","","","","","","null","","","","Images/BlackBeadChoiceCorrect.png","","null"
"image-button-response","197","323929","0.0-13.0-0.46","195","Low_HMMActual","","","","","","319","","","","Images/NewTrialBC.png","","0"
"image-button-response","198","324233","0.0-13.0-1.46","195","Low_HMMActual","","","","","","null","","","","Images/BlackBeadChoice.png","","null"
"image-button-response","199","324748","0.0-13.0-2.46","195","Low_HMMActual","","","","","","null","","","","Images/BlackBeadChoiceCorrect.png","","null"
"image-button-response","200","325026","0.0-13.0-0.47","195","Low_HMMActual","","","","","","276","","","","Images/NewTrialBC.png","","0"
"image-button-response","201","325338","0.0-13.0-1.47","195","Low_HMMActual","","","","","","null","","","","Images/BlackBeadChoice.png","","null"
"image-button-response","202","325852","0.0-13.0-2.47","195","Low_HMMActual","","","","","","null","","","","Images/BlackBeadChoiceCorrect.png","","null"
"image-button-response","203","326076","0.0-13.0-0.48","195","Low_HMMActual","","","","","","222","","","","Images/NewTrialBC.png","","0"
"image-button-response","204","326382","0.0-13.0-1.48","195","Low_HMMActual","","","","","","null","","","","Images/BlackBeadChoice.png","","null"
"image-button-response","205","326896","0.0-13.0-2.48","195","Low_HMMActual","","","","","","null","","","","Images/BlackBeadChoiceCorrect.png","","null"
"image-button-response","206","327175","0.0-13.0-0.49","195","Low_HMMActual","","","","","","277","","","","Images/NewTrialBC.png","","0"
"image-button-response","207","327484","0.0-13.0-1.49","195","Low_HMMActual","","","","","","null","","","","Images/BlackBeadChoice.png","","null"
"image-button-response","208","327998","0.0-13.0-2.49","195","Low_HMMActual","","","","","","null","","","","Images/BlackBeadChoiceCorrect.png","","null"
"image-button-response","209","328300","0.0-13.0-0.50","195","Low_HMMActual","","","","","","299","","","","Images/NewTrialBC.png","","0"
"image-button-response","210","328605","0.0-13.0-1.50","195","Low_HMMActual","","","","","","null","","","","Images/BlackBeadChoice.png","","null"
"image-button-response","211","329120","0.0-13.0-2.50","195","Low_HMMActual","","","","","","null","","","","Images/BlackBeadChoiceCorrect.png","","null"
"image-button-response","212","329589","0.0-13.0-0.51","195","Low_HMMActual","","","","","","467","","","","Images/NewTrialBC.png","","0"
"image-button-response","213","329896","0.0-13.0-1.51","195","Low_HMMActual","","","","","","null","","","","Images/BlackBeadChoice.png","","null"
"image-button-response","214","330406","0.0-13.0-2.51","195","Low_HMMActual","","","","","","null","","","","Images/BlackBeadChoiceCorrect.png","","null"
"image-button-response","215","330979","0.0-13.0-0.52","195","Low_HMMActual","","","","","","569","","","","Images/NewTrialBC.png","","0"
"image-button-response","216","331293","0.0-13.0-1.52","195","Low_HMMActual","","","","","","null","","","","Images/BlackBeadChoice.png","","null"
"image-button-response","217","331806","0.0-13.0-2.52","195","Low_HMMActual","","","","","","null","","","","Images/BlackBeadChoiceCorrect.png","","null"
"image-button-response","218","332296","0.0-13.0-0.53","195","Low_HMMActual","","","","","","487","","","","Images/NewTrialBC.png","","0"
"image-button-response","219","332601","0.0-13.0-1.53","195","Low_HMMActual","","","","","","null","","","","Images/BlackBeadChoice.png","","null"
"image-button-response","220","333102","0.0-13.0-2.53","195","Low_HMMActual","","","","","","null","","","","Images/BlackBeadChoiceCorrect.png","","null"
"image-button-response","221","333621","0.0-13.0-0.54","195","Low_HMMActual","","","","","","518","","","","Images/NewTrialBC.png","","0"
"image-button-response","222","333938","0.0-13.0-1.54","195","Low_HMMActual","","","","","","null","","","","Images/BlackBeadChoice.png","","null"
"image-button-response","223","334450","0.0-13.0-2.54","195","Low_HMMActual","","","","","","null","","","","Images/BlackBeadChoiceCorrect.png","","null"
"image-button-response","224","334965","0.0-13.0-0.55","195","Low_HMMActual","","","","","","514","","","","Images/NewTrialBC.png","","0"
"image-button-response","225","335275","0.0-13.0-1.55","195","Low_HMMActual","","","","","","null","","","","Images/BlackBeadChoice.png","","null"
"image-button-response","226","335786","0.0-13.0-2.55","195","Low_HMMActual","","","","","","null","","","","Images/BlackBeadChoiceWrong.png","","null"
"image-button-response","227","336487","0.0-13.0-0.56","195","Low_HMMActual","","","","","","697","","","","Images/NewTrialWC.png","","0"
"image-button-response","228","336798","0.0-13.0-1.56","195","Low_HMMActual","","","","","","null","","","","Images/BlackBeadChoice.png","","null"
"image-button-response","229","337311","0.0-13.0-2.56","195","Low_HMMActual","","","","","","null","","","","Images/BlackBeadChoiceCorrect.png","","null"
"image-button-response","230","337583","0.0-13.0-0.57","195","Low_HMMActual","","","","","","271","","","","Images/NewTrialBC.png","","0"
"image-button-response","231","337898","0.0-13.0-1.57","195","Low_HMMActual","","","","","","null","","","","Images/BlackBeadChoice.png","","null"
"image-button-response","232","338412","0.0-13.0-2.57","195","Low_HMMActual","","","","","","null","","","","Images/BlackBeadChoiceCorrect.png","","null"
"image-button-response","233","339527","0.0-13.0-0.58","195","Low_HMMActual","","","","","","1111","","","","Images/NewTrialBC.png","","0"
"image-button-response","234","339838","0.0-13.0-1.58","195","Low_HMMActual","","","","","","null","","","","Images/BlackBeadChoice.png","","null"
"image-button-response","235","340350","0.0-13.0-2.58","195","Low_HMMActual","","","","","","null","","","","Images/BlackBeadChoiceCorrect.png","","null"
"image-button-response","236","340967","0.0-13.0-0.59","195","Low_HMMActual","","","","","","614","","","","Images/NewTrialBC.png","","0"
"image-button-response","237","341279","0.0-13.0-1.59","195","Low_HMMActual","","","","","","null","","","","Images/BlackBeadChoice.png","","null"
"image-button-response","238","341792","0.0-13.0-2.59","195","Low_HMMActual","","","","","","null","","","","Images/BlackBeadChoiceCorrect.png","","null"
"image-button-response","239","341981","0.0-13.0-0.60","195","Low_HMMActual","","","","","","188","","","","Images/NewTrialBC.png","","0"
"image-button-response","240","342291","0.0-13.0-1.60","195","Low_HMMActual","","","","","","null","","","","Images/BlackBeadChoice.png","","null"
"image-button-response","241","342802","0.0-13.0-2.60","195","Low_HMMActual","","","","","","null","","","","Images/BlackBeadChoiceCorrect.png","","null"
"image-button-response","242","343176","0.0-13.0-0.61","195","Low_HMMActual","","","","","","371","","","","Images/NewTrialBC.png","","0"
"image-button-response","243","343488","0.0-13.0-1.61","195","Low_HMMActual","","","","","","null","","","","Images/BlackBeadChoice.png","","null"
"image-button-response","244","344001","0.0-13.0-2.61","195","Low_HMMActual","","","","","","null","","","","Images/BlackBeadChoiceCorrect.png","","null"
"image-button-response","245","344249","0.0-13.0-0.62","195","Low_HMMActual","","","","","","247","","","","Images/NewTrialBC.png","","0"
"image-button-response","246","344561","0.0-13.0-1.62","195","Low_HMMActual","","","","","","null","","","","Images/BlackBeadChoice.png","","null"
"image-button-response","247","345073","0.0-13.0-2.62","195","Low_HMMActual","","","","","","null","","","","Images/BlackBeadChoiceCorrect.png","","null"
"image-button-response","248","345307","0.0-13.0-0.63","195","Low_HMMActual","","","","","","231","","","","Images/NewTrialBC.png","","0"
"image-button-response","249","345616","0.0-13.0-1.63","195","Low_HMMActual","","","","","","null","","","","Images/BlackBeadChoice.png","","null"
"image-button-response","250","346128","0.0-13.0-2.63","195","Low_HMMActual","","","","","","null","","","","Images/BlackBeadChoiceCorrect.png","","null"
"image-button-response","251","346575","0.0-13.0-0.64","195","Low_HMMActual","","","","","","447","","","","Images/NewTrialBC.png","","0"
"image-button-response","252","346887","0.0-13.0-1.64","195","Low_HMMActual","","","","","","null","","","","Images/BlackBeadChoice.png","","null"
"image-button-response","253","347400","0.0-13.0-2.64","195","Low_HMMActual","","","","","","null","","","","Images/BlackBeadChoiceWrong.png","","null"
"image-button-response","254","348010","0.0-13.0-0.65","195","Low_HMMActual","","","","","","608","","","","Images/NewTrialWC.png","","0"
"image-button-response","255","348322","0.0-13.0-1.65","195","Low_HMMActual","","","","","","null","","","","Images/BlackBeadChoice.png","","null"
"image-button-response","256","348831","0.0-13.0-2.65","195","Low_HMMActual","","","","","","null","","","","Images/BlackBeadChoiceCorrect.png","","null"
"image-button-response","257","349382","0.0-13.0-0.66","195","Low_HMMActual","","","","","","548","","","","Images/NewTrialBC.png","","0"
"image-button-response","258","349694","0.0-13.0-1.66","195","Low_HMMActual","","","","","","null","","","","Images/BlackBeadChoice.png","","null"
"image-button-response","259","350208","0.0-13.0-2.66","195","Low_HMMActual","","","","","","null","","","","Images/BlackBeadChoiceCorrect.png","","null"
"image-button-response","260","350737","0.0-13.0-0.67","195","Low_HMMActual","","","","","","527","","","","Images/NewTrialBC.png","","0"
"image-button-response","261","351044","0.0-13.0-1.67","195","Low_HMMActual","","","","","","null","","","","Images/BlackBeadChoice.png","","null"
"image-button-response","262","351554","0.0-13.0-2.67","195","Low_HMMActual","","","","","","null","","","","Images/BlackBeadChoiceWrong.png","","null"
"image-button-response","263","351928","0.0-13.0-0.68","195","Low_HMMActual","","","","","","371","","","","Images/NewTrialWC.png","","0"
"image-button-response","264","352241","0.0-13.0-1.68","195","Low_HMMActual","","","","","","null","","","","Images/BlackBeadChoice.png","","null"
"image-button-response","265","352755","0.0-13.0-2.68","195","Low_HMMActual","","","","","","null","","","","Images/BlackBeadChoiceCorrect.png","","null"
"image-button-response","266","353249","0.0-13.0-0.69","195","Low_HMMActual","","","","","","491","","","","Images/NewTrialBC.png","","0"
"image-button-response","267","353561","0.0-13.0-1.69","195","Low_HMMActual","","","","","","null","","","","Images/BlackBeadChoice.png","","null"
"image-button-response","268","354070","0.0-13.0-2.69","195","Low_HMMActual","","","","","","null","","","","Images/BlackBeadChoiceCorrect.png","","null"
"image-button-response","269","354427","0.0-13.0-0.70","195","Low_HMMActual","","","","","","355","","","","Images/NewTrialBC.png","","0"
"image-button-response","270","354732","0.0-13.0-1.70","195","Low_HMMActual","","","","","","null","","","","Images/BlackBeadChoice.png","","null"
"image-button-response","271","355246","0.0-13.0-2.70","195","Low_HMMActual","","","","","","null","","","","Images/BlackBeadChoiceCorrect.png","","null"
"image-button-response","272","355567","0.0-13.0-0.71","195","Low_HMMActual","","","","","","320","","","","Images/NewTrialBC.png","","0"
"image-button-response","273","355884","0.0-13.0-1.71","195","Low_HMMActual","","","","","","null","","","","Images/BlackBeadChoice.png","","null"
"image-button-response","274","356394","0.0-13.0-2.71","195","Low_HMMActual","","","","","","null","","","","Images/BlackBeadChoiceCorrect.png","","null"
"image-button-response","275","356736","0.0-13.0-0.72","195","Low_HMMActual","","","","","","340","","","","Images/NewTrialBC.png","","0"
"image-button-response","276","357047","0.0-13.0-1.72","195","Low_HMMActual","","","","","","null","","","","Images/BlackBeadChoice.png","","null"
"image-button-response","277","357559","0.0-13.0-2.72","195","Low_HMMActual","","","","","","null","","","","Images/BlackBeadChoiceCorrect.png","","null"
"image-button-response","278","357813","0.0-13.0-0.73","195","Low_HMMActual","","","","","","253","","","","Images/NewTrialBC.png","","0"
"image-button-response","279","358118","0.0-13.0-1.73","195","Low_HMMActual","","","","","","null","","","","Images/BlackBeadChoice.png","","null"
"image-button-response","280","358631","0.0-13.0-2.73","195","Low_HMMActual","","","","","","null","","","","Images/BlackBeadChoiceCorrect.png","","null"
"image-button-response","281","360000","0.0-13.0-0.74","195","Low_HMMActual","","","","","","1368","","","","Images/NewTrialBC.png","","0"
"image-button-response","282","360311","0.0-13.0-1.74","195","Low_HMMActual","","","","","","null","","","","Images/BlackBeadChoice.png","","null"
"image-button-response","283","360825","0.0-13.0-2.74","195","Low_HMMActual","","","","","","null","","","","Images/BlackBeadChoiceWrong.png","","null"
"image-button-response","284","361007","0.0-13.0-0.75","195","Low_HMMActual","","","","","","182","","","","Images/NewTrialWC.png","","0"
"image-button-response","285","361322","0.0-13.0-1.75","195","Low_HMMActual","","","","","","null","","","","Images/BlackBeadChoice.png","","null"
"image-button-response","286","361832","0.0-13.0-2.75","195","Low_HMMActual","","","","","","null","","","","Images/BlackBeadChoiceCorrect.png","","null"
"image-button-response","287","362093","0.0-13.0-0.76","195","Low_HMMActual","","","","","","259","","","","Images/NewTrialBC.png","","0"
"image-button-response","288","362408","0.0-13.0-1.76","195","Low_HMMActual","","","","","","null","","","","Images/BlackBeadChoice.png","","null"
"image-button-response","289","362921","0.0-13.0-2.76","195","Low_HMMActual","","","","","","null","","","","Images/BlackBeadChoiceCorrect.png","","null"
"image-button-response","290","363103","0.0-13.0-0.77","195","Low_HMMActual","","","","","","179","","","","Images/NewTrialBC.png","","0"
"image-button-response","291","363418","0.0-13.0-1.77","195","Low_HMMActual","","","","","","null","","","","Images/BlackBeadChoice.png","","null"
"image-button-response","292","363931","0.0-13.0-2.77","195","Low_HMMActual","","","","","","499","","","","Images/BlackBeadChoiceCorrect.png","","0"
"image-button-response","293","364579","0.0-13.0-0.78","195","Low_HMMActual","","","","","","647","","","","Images/NewTrialBC.png","","0"
"image-button-response","294","364892","0.0-13.0-1.78","195","Low_HMMActual","","","","","","null","","","","Images/BlackBeadChoice.png","","null"
"image-button-response","295","365402","0.0-13.0-2.78","195","Low_HMMActual","","","","","","null","","","","Images/BlackBeadChoiceCorrect.png","","null"
"image-button-response","296","366085","0.0-13.0-0.79","195","Low_HMMActual","","","","","","682","","","","Images/NewTrialBC.png","","0"
"image-button-response","297","366395","0.0-13.0-1.79","195","Low_HMMActual","","","","","","null","","","","Images/BlackBeadChoice.png","","null"
"image-button-response","298","366910","0.0-13.0-2.79","195","Low_HMMActual","","","","","","null","","","","Images/BlackBeadChoiceCorrect.png","","null"
"image-button-response","299","367345","0.0-13.0-0.80","195","Low_HMMActual","","","","","","434","","","","Images/NewTrialBC.png","","0"
"image-button-response","300","367657","0.0-13.0-1.80","195","Low_HMMActual","","","","","","null","","","","Images/BlackBeadChoice.png","","null"
"image-button-response","301","368169","0.0-13.0-2.80","195","Low_HMMActual","","","","","","null","","","","Images/BlackBeadChoiceCorrect.png","","null"
"image-button-response","302","368625","0.0-13.0-0.81","195","Low_HMMActual","","","","","","456","","","","Images/NewTrialBC.png","","0"
"image-button-response","303","368930","0.0-13.0-1.81","195","Low_HMMActual","","","","","","null","","","","Images/BlackBeadChoice.png","","null"
"image-button-response","304","369438","0.0-13.0-2.81","195","Low_HMMActual","","","","","","null","","","","Images/BlackBeadChoiceCorrect.png","","null"
"image-button-response","305","370197","0.0-13.0-0.82","195","Low_HMMActual","","","","","","758","","","","Images/NewTrialBC.png","","0"
"image-button-response","306","370504","0.0-13.0-1.82","195","Low_HMMActual","","","","","","null","","","","Images/BlackBeadChoice.png","","null"
"image-button-response","307","371011","0.0-13.0-2.82","195","Low_HMMActual","","","","","","null","","","","Images/BlackBeadChoiceCorrect.png","","null"
"image-button-response","308","371691","0.0-13.0-0.83","195","Low_HMMActual","","","","","","678","","","","Images/NewTrialBC.png","","0"
"image-button-response","309","371998","0.0-13.0-1.83","195","Low_HMMActual","","","","","","null","","","","Images/BlackBeadChoice.png","","null"
"image-button-response","310","372510","0.0-13.0-2.83","195","Low_HMMActual","","","","","","null","","","","Images/BlackBeadChoiceWrong.png","","null"
"image-button-response","311","373077","0.0-13.0-0.84","195","Low_HMMActual","","","","","","567","","","","Images/NewTrialWC.png","","0"
"image-button-response","312","373379","0.0-13.0-1.84","195","Low_HMMActual","","","","","","null","","","","Images/BlackBeadChoice.png","","null"
"image-button-response","313","373892","0.0-13.0-2.84","195","Low_HMMActual","","","","","","null","","","","Images/BlackBeadChoiceCorrect.png","","null"
"image-button-response","314","374321","0.0-13.0-0.85","195","Low_HMMActual","","","","","","423","","","","Images/NewTrialBC.png","","0"
"image-button-response","315","374624","0.0-13.0-1.85","195","Low_HMMActual","","","","","","null","","","","Images/BlackBeadChoice.png","","null"
"image-button-response","316","375134","0.0-13.0-2.85","195","Low_HMMActual","","","","","","null","","","","Images/BlackBeadChoiceWrong.png","","null"
"image-button-response","317","375617","0.0-13.0-0.86","195","Low_HMMActual","","","","","","481","","","","Images/NewTrialWC.png","","0"
"image-button-response","318","375926","0.0-13.0-1.86","195","Low_HMMActual","","","","","","null","","","","Images/BlackBeadChoice.png","","null"
"image-button-response","319","376439","0.0-13.0-2.86","195","Low_HMMActual","","","","","","null","","","","Images/BlackBeadChoiceCorrect.png","","null"
"image-button-response","320","376950","0.0-13.0-0.87","195","Low_HMMActual","","","","","","507","","","","Images/NewTrialBC.png","","0"
"image-button-response","321","377263","0.0-13.0-1.87","195","Low_HMMActual","","","","","","null","","","","Images/BlackBeadChoice.png","","null"
"image-button-response","322","377778","0.0-13.0-2.87","195","Low_HMMActual","","","","","","null","","","","Images/BlackBeadChoiceWrong.png","","null"
"image-button-response","323","378303","0.0-13.0-0.88","195","Low_HMMActual","","","","","","522","","","","Images/NewTrialWC.png","","0"
"image-button-response","324","378617","0.0-13.0-1.88","195","Low_HMMActual","","","","","","null","","","","Images/BlackBeadChoice.png","","null"
"image-button-response","325","379118","0.0-13.0-2.88","195","Low_HMMActual","","","","","","null","","","","Images/BlackBeadChoiceWrong.png","","null"
"image-button-response","326","379531","0.0-13.0-0.89","195","Low_HMMActual","","","","","","409","","","","Images/NewTrialWC.png","","0"
"image-button-response","327","379833","0.0-13.0-1.89","195","Low_HMMActual","","","","","","null","","","","Images/BlackBeadChoice.png","","null"
"image-button-response","328","380346","0.0-13.0-2.89","195","Low_HMMActual","","","","","","null","","","","Images/BlackBeadChoiceCorrect.png","","null"
"image-button-response","329","380837","0.0-13.0-0.90","195","Low_HMMActual","","","","","","489","","","","Images/NewTrialBC.png","","0"
"image-button-response","330","381147","0.0-13.0-1.90","195","Low_HMMActual","","","","","","null","","","","Images/BlackBeadChoice.png","","null"
"image-button-response","331","381661","0.0-13.0-2.90","195","Low_HMMActual","","","","","","null","","","","Images/BlackBeadChoiceCorrect.png","","null"
"image-button-response","332","382103","0.0-13.0-0.91","195","Low_HMMActual","","","","","","440","","","","Images/NewTrialBC.png","","0"
"image-button-response","333","382409","0.0-13.0-1.91","195","Low_HMMActual","","","","","","null","","","","Images/BlackBeadChoice.png","","null"
"image-button-response","334","382921","0.0-13.0-2.91","195","Low_HMMActual","","","","","","null","","","","Images/BlackBeadChoiceCorrect.png","","null"
"image-button-response","335","383393","0.0-13.0-0.92","195","Low_HMMActual","","","","","","469","","","","Images/NewTrialBC.png","","0"
"image-button-response","336","383697","0.0-13.0-1.92","195","Low_HMMActual","","","","","","null","","","","Images/BlackBeadChoice.png","","null"
"image-button-response","337","384212","0.0-13.0-2.92","195","Low_HMMActual","","","","","","null","","","","Images/BlackBeadChoiceCorrect.png","","null"
"image-button-response","338","384676","0.0-13.0-0.93","195","Low_HMMActual","","","","","","461","","","","Images/NewTrialBC.png","","0"
"image-button-response","339","384988","0.0-13.0-1.93","195","Low_HMMActual","","","","","","null","","","","Images/BlackBeadChoice.png","","null"
"image-button-response","340","385503","0.0-13.0-2.93","195","Low_HMMActual","","","","","","null","","","","Images/BlackBeadChoiceCorrect.png","","null"
"image-button-response","341","386001","0.0-13.0-0.94","195","Low_HMMActual","","","","","","497","","","","Images/NewTrialBC.png","","0"
"image-button-response","342","386313","0.0-13.0-1.94","195","Low_HMMActual","","","","","","null","","","","Images/BlackBeadChoice.png","","null"
"image-button-response","343","386822","0.0-13.0-2.94","195","Low_HMMActual","","","","","","null","","","","Images/BlackBeadChoiceCorrect.png","","null"
"image-button-response","344","387171","0.0-13.0-0.95","195","Low_HMMActual","","","","","","346","","","","Images/NewTrialBC.png","","0"
"image-button-response","345","387488","0.0-13.0-1.95","195","Low_HMMActual","","","","","","null","","","","Images/BlackBeadChoice.png","","null"
"image-button-response","346","387999","0.0-13.0-2.95","195","Low_HMMActual","","","","","","null","","","","Images/BlackBeadChoiceCorrect.png","","null"
"image-button-response","347","388445","0.0-13.0-0.96","195","Low_HMMActual","","","","","","444","","","","Images/NewTrialBC.png","","0"
"image-button-response","348","388752","0.0-13.0-1.96","195","Low_HMMActual","","","","","","null","","","","Images/BlackBeadChoice.png","","null"
"image-button-response","349","389264","0.0-13.0-2.96","195","Low_HMMActual","","","","","","null","","","","Images/BlackBeadChoiceCorrect.png","","null"
"image-button-response","350","389721","0.0-13.0-0.97","195","Low_HMMActual","","","","","","454","","","","Images/NewTrialBC.png","","0"
"image-button-response","351","390025","0.0-13.0-1.97","195","Low_HMMActual","","","","","","null","","","","Images/BlackBeadChoice.png","","null"
"image-button-response","352","390536","0.0-13.0-2.97","195","Low_HMMActual","","","","","","null","","","","Images/BlackBeadChoiceWrong.png","","null"
"image-button-response","353","390911","0.0-13.0-0.98","195","Low_HMMActual","","","","","","373","","","","Images/NewTrialWC.png","","0"
"image-button-response","354","391221","0.0-13.0-1.98","195","Low_HMMActual","","","","","","null","","","","Images/BlackBeadChoice.png","","null"
"image-button-response","355","391735","0.0-13.0-2.98","195","Low_HMMActual","","","","","","null","","","","Images/BlackBeadChoiceWrong.png","","null"
"image-button-response","356","392195","0.0-13.0-0.99","195","Low_HMMActual","","","","","","458","","","","Images/NewTrialWC.png","","0"
"image-button-response","357","392510","0.0-13.0-1.99","195","Low_HMMActual","","","","","","null","","","","Images/BlackBeadChoice.png","","null"
"image-button-response","358","393022","0.0-13.0-2.99","195","Low_HMMActual","","","","","","null","","","","Images/BlackBeadChoiceCorrect.png","","null"
"image-button-response","359","393481","0.0-13.0-0.100","195","Low_HMMActual","","","","","","457","","","","Images/NewTrialBC.png","","0"
"image-button-response","360","393787","0.0-13.0-1.100","195","Low_HMMActual","","","","","","null","","","","Images/BlackBeadChoice.png","","null"
"image-button-response","361","394302","0.0-13.0-2.100","195","Low_HMMActual","","","","","","null","","","","Images/BlackBeadChoiceWrong.png","","null"
"image-button-response","362","394790","0.0-13.0-0.101","195","Low_HMMActual","","","","","","486","","","","Images/NewTrialWC.png","","0"
"image-button-response","363","395092","0.0-13.0-1.101","195","Low_HMMActual","","","","","","null","","","","Images/BlackBeadChoice.png","","null"
"image-button-response","364","395606","0.0-13.0-2.101","195","Low_HMMActual","","","","","","null","","","","Images/BlackBeadChoiceWrong.png","","null"
"image-button-response","365","396557","0.0-13.0-0.102","195","Low_HMMActual","","","","","","948","","","","Images/NewTrialWC.png","","0"
"image-button-response","366","396869","0.0-13.0-1.102","195","Low_HMMActual","","","","","","null","","","","Images/BlackBeadChoice.png","","null"
"image-button-response","367","397382","0.0-13.0-2.102","195","Low_HMMActual","","","","","","null","","","","Images/BlackBeadChoiceWrong.png","","null"
"image-button-response","368","397899","0.0-13.0-0.103","195","Low_HMMActual","","","","","","515","","","","Images/NewTrialWC.png","","1"
"image-button-response","369","398208","0.0-13.0-1.103","195","Low_HMMActual","","","","","","null","","","","Images/BlackBeadChoice.png","","null"
"image-button-response","370","398719","0.0-13.0-2.103","195","Low_HMMActual","","","","","","null","","","","Images/BlackBeadChoiceCorrect.png","","null"
"image-button-response","371","399409","0.0-13.0-0.104","195","Low_HMMActual","","","","","","685","","","","Images/NewTrialBC.png","","1"
"image-button-response","372","399720","0.0-13.0-1.104","195","Low_HMMActual","","","","","","null","","","","Images/BlackBeadChoice.png","","null"
"image-button-response","373","400225","0.0-13.0-2.104","195","Low_HMMActual","","","","","","null","","","","Images/BlackBeadChoiceWrong.png","","null"
"image-button-response","374","401435","0.0-13.0-0.105","195","Low_HMMActual","","","","","","1205","","","","Images/NewTrialWC.png","","3"
"image-button-response","375","401744","0.0-13.0-1.105","195","Low_HMMActual","","","","","","null","","","","Images/WhiteBeadChoice.png","","null"
"image-button-response","376","402259","0.0-13.0-2.105","195","Low_HMMActual","","","","","","null","","","","Images/WhiteBeadChoiceCorrect.png","","null"
"image-button-response","377","404161","0.0-13.0-0.106","195","Low_HMMActual","","","","","","1899","","","","Images/NewTrialWC.png","","3"
"image-button-response","378","404475","0.0-13.0-1.106","195","Low_HMMActual","","","","","","null","","","","Images/WhiteBeadChoice.png","","null"
"image-button-response","379","404989","0.0-13.0-2.106","195","Low_HMMActual","","","","","","null","","","","Images/WhiteBeadChoiceCorrect.png","","null"
"image-button-response","380","405639","0.0-13.0-0.107","195","Low_HMMActual","","","","","","646","","","","Images/NewTrialWC.png","","2"
"image-button-response","381","405949","0.0-13.0-1.107","195","Low_HMMActual","","","","","","null","","","","Images/WhiteBeadChoice.png","","null"
"image-button-response","382","406462","0.0-13.0-2.107","195","Low_HMMActual","","","","","","null","","","","Images/WhiteBeadChoiceCorrect.png","","null"
"image-button-response","383","406975","0.0-13.0-0.108","195","Low_HMMActual","","","","","","508","","","","Images/NewTrialWC.png","","2"
"image-button-response","384","407288","0.0-13.0-1.108","195","Low_HMMActual","","","","","","null","","","","Images/WhiteBeadChoice.png","","null"
"image-button-response","385","407800","0.0-13.0-2.108","195","Low_HMMActual","","","","","","null","","","","Images/WhiteBeadChoiceCorrect.png","","null"
"image-button-response","386","408289","0.0-13.0-0.109","195","Low_HMMActual","","","","","","488","","","","Images/NewTrialWC.png","","2"
"image-button-response","387","408592","0.0-13.0-1.109","195","Low_HMMActual","","","","","","null","","","","Images/WhiteBeadChoice.png","","null"
"image-button-response","388","409106","0.0-13.0-2.109","195","Low_HMMActual","","","","","","null","","","","Images/WhiteBeadChoiceCorrect.png","","null"
"image-button-response","389","409531","0.0-13.0-0.110","195","Low_HMMActual","","","","","","422","","","","Images/NewTrialWC.png","","2"
"image-button-response","390","409834","0.0-13.0-1.110","195","Low_HMMActual","","","","","","null","","","","Images/WhiteBeadChoice.png","","null"
"image-button-response","391","410344","0.0-13.0-2.110","195","Low_HMMActual","","","","","","null","","","","Images/WhiteBeadChoiceCorrect.png","","null"
"image-button-response","392","410763","0.0-13.0-0.111","195","Low_HMMActual","","","","","","417","","","","Images/NewTrialWC.png","","2"
"image-button-response","393","411074","0.0-13.0-1.111","195","Low_HMMActual","","","","","","null","","","","Images/WhiteBeadChoice.png","","null"
"image-button-response","394","411583","0.0-13.0-2.111","195","Low_HMMActual","","","","","","null","","","","Images/WhiteBeadChoiceCorrect.png","","null"
"image-button-response","395","411929","0.0-13.0-0.112","195","Low_HMMActual","","","","","","344","","","","Images/NewTrialWC.png","","2"
"image-button-response","396","412235","0.0-13.0-1.112","195","Low_HMMActual","","","","","","null","","","","Images/WhiteBeadChoice.png","","null"
"image-button-response","397","412745","0.0-13.0-2.112","195","Low_HMMActual","","","","","","null","","","","Images/WhiteBeadChoiceWrong.png","","null"
"image-button-response","398","413317","0.0-13.0-0.113","195","Low_HMMActual","","","","","","569","","","","Images/NewTrialBC.png","","2"
"image-button-response","399","413626","0.0-13.0-1.113","195","Low_HMMActual","","","","","","null","","","","Images/WhiteBeadChoice.png","","null"
"image-button-response","400","414136","0.0-13.0-2.113","195","Low_HMMActual","","","","","","null","","","","Images/WhiteBeadChoiceCorrect.png","","null"
"image-button-response","401","414589","0.0-13.0-0.114","195","Low_HMMActual","","","","","","450","","","","Images/NewTrialWC.png","","2"
"image-button-response","402","414891","0.0-13.0-1.114","195","Low_HMMActual","","","","","","null","","","","Images/WhiteBeadChoice.png","","null"
"image-button-response","403","415407","0.0-13.0-2.114","195","Low_HMMActual","","","","","","null","","","","Images/WhiteBeadChoiceCorrect.png","","null"
"image-button-response","404","415953","0.0-13.0-0.115","195","Low_HMMActual","","","","","","544","","","","Images/NewTrialWC.png","","2"
"image-button-response","405","416256","0.0-13.0-1.115","195","Low_HMMActual","","","","","","null","","","","Images/WhiteBeadChoice.png","","null"
"image-button-response","406","416766","0.0-13.0-2.115","195","Low_HMMActual","","","","","","null","","","","Images/WhiteBeadChoiceWrong.png","","null"
"image-button-response","407","417824","0.0-13.0-0.116","195","Low_HMMActual","","","","","","1055","","","","Images/NewTrialBC.png","","2"
"image-button-response","408","418129","0.0-13.0-1.116","195","Low_HMMActual","","","","","","null","","","","Images/WhiteBeadChoice.png","","null"
"image-button-response","409","418641","0.0-13.0-2.116","195","Low_HMMActual","","","","","","null","","","","Images/WhiteBeadChoiceCorrect.png","","null"
"image-button-response","410","419295","0.0-13.0-0.117","195","Low_HMMActual","","","","","","652","","","","Images/NewTrialWC.png","","2"
"image-button-response","411","419596","0.0-13.0-1.117","195","Low_HMMActual","","","","","","null","","","","Images/WhiteBeadChoice.png","","null"
"image-button-response","412","420105","0.0-13.0-2.117","195","Low_HMMActual","","","","","","null","","","","Images/WhiteBeadChoiceCorrect.png","","null"
"image-button-response","413","420623","0.0-13.0-0.118","195","Low_HMMActual","","","","","","517","","","","Images/NewTrialWC.png","","2"
"image-button-response","414","420928","0.0-13.0-1.118","195","Low_HMMActual","","","","","","null","","","","Images/WhiteBeadChoice.png","","null"
"image-button-response","415","421471","0.0-13.0-2.118","195","Low_HMMActual","","","","","","null","","","","Images/WhiteBeadChoiceCorrect.png","","null"
"image-button-response","416","422012","0.0-13.0-0.119","195","Low_HMMActual","","","","","","536","","","","Images/NewTrialWC.png","","2"
"image-button-response","417","422331","0.0-13.0-1.119","195","Low_HMMActual","","","","","","null","","","","Images/WhiteBeadChoice.png","","null"
"image-button-response","418","422845","0.0-13.0-2.119","195","Low_HMMActual","","","","","","null","","","","Images/WhiteBeadChoiceWrong.png","","null"
"image-button-response","419","423351","0.0-13.0-0.120","195","Low_HMMActual","","","","","","503","","","","Images/NewTrialBC.png","","2"
"image-button-response","420","423665","0.0-13.0-1.120","195","Low_HMMActual","","","","","","null","","","","Images/WhiteBeadChoice.png","","null"
"image-button-response","421","424175","0.0-13.0-2.120","195","Low_HMMActual","","","","","","null","","","","Images/WhiteBeadChoiceCorrect.png","","null"
"image-button-response","422","424626","0.0-13.0-0.121","195","Low_HMMActual","","","","","","450","","","","Images/NewTrialWC.png","","2"
"image-button-response","423","424938","0.0-13.0-1.121","195","Low_HMMActual","","","","","","null","","","","Images/WhiteBeadChoice.png","","null"
"image-button-response","424","425450","0.0-13.0-2.121","195","Low_HMMActual","","","","","","null","","","","Images/WhiteBeadChoiceCorrect.png","","null"
"image-button-response","425","425915","0.0-13.0-0.122","195","Low_HMMActual","","","","","","463","","","","Images/NewTrialWC.png","","2"
"image-button-response","426","426227","0.0-13.0-1.122","195","Low_HMMActual","","","","","","null","","","","Images/WhiteBeadChoice.png","","null"
"image-button-response","427","426740","0.0-13.0-2.122","195","Low_HMMActual","","","","","","null","","","","Images/WhiteBeadChoiceCorrect.png","","null"
"image-button-response","428","427207","0.0-13.0-0.123","195","Low_HMMActual","","","","","","464","","","","Images/NewTrialWC.png","","2"
"image-button-response","429","427514","0.0-13.0-1.123","195","Low_HMMActual","","","","","","null","","","","Images/WhiteBeadChoice.png","","null"
"image-button-response","430","428027","0.0-13.0-2.123","195","Low_HMMActual","","","","","","null","","","","Images/WhiteBeadChoiceCorrect.png","","null"
"image-button-response","431","428483","0.0-13.0-0.124","195","Low_HMMActual","","","","","","455","","","","Images/NewTrialWC.png","","2"
"image-button-response","432","428785","0.0-13.0-1.124","195","Low_HMMActual","","","","","","null","","","","Images/WhiteBeadChoice.png","","null"
"image-button-response","433","429300","0.0-13.0-2.124","195","Low_HMMActual","","","","","","null","","","","Images/WhiteBeadChoiceWrong.png","","null"
"image-button-response","434","429931","0.0-13.0-0.125","195","Low_HMMActual","","","","","","631","","","","Images/NewTrialBC.png","","2"
"image-button-response","435","430245","0.0-13.0-1.125","195","Low_HMMActual","","","","","","null","","","","Images/WhiteBeadChoice.png","","null"
"image-button-response","436","430753","0.0-13.0-2.125","195","Low_HMMActual","","","","","","null","","","","Images/WhiteBeadChoiceWrong.png","","null"
"image-button-response","437","431297","0.0-13.0-0.126","195","Low_HMMActual","","","","","","543","","","","Images/NewTrialBC.png","","2"
"image-button-response","438","431608","0.0-13.0-1.126","195","Low_HMMActual","","","","","","null","","","","Images/WhiteBeadChoice.png","","null"
"image-button-response","439","432117","0.0-13.0-2.126","195","Low_HMMActual","","","","","","null","","","","Images/WhiteBeadChoiceCorrect.png","","null"
"image-button-response","440","432476","0.0-13.0-0.127","195","Low_HMMActual","","","","","","358","","","","Images/NewTrialWC.png","","2"
"image-button-response","441","432783","0.0-13.0-1.127","195","Low_HMMActual","","","","","","null","","","","Images/WhiteBeadChoice.png","","null"
"image-button-response","442","433297","0.0-13.0-2.127","195","Low_HMMActual","","","","","","null","","","","Images/WhiteBeadChoiceCorrect.png","","null"
"image-button-response","443","433684","0.0-13.0-0.128","195","Low_HMMActual","","","","","","385","","","","Images/NewTrialWC.png","","2"
"image-button-response","444","433997","0.0-13.0-1.128","195","Low_HMMActual","","","","","","null","","","","Images/WhiteBeadChoice.png","","null"
"image-button-response","445","434508","0.0-13.0-2.128","195","Low_HMMActual","","","","","","null","","","","Images/WhiteBeadChoiceCorrect.png","","null"
"image-button-response","446","434793","0.0-13.0-0.129","195","Low_HMMActual","","","","","","282","","","","Images/NewTrialWC.png","","2"
"image-button-response","447","435094","0.0-13.0-1.129","195","Low_HMMActual","","","","","","null","","","","Images/WhiteBeadChoice.png","","null"
"image-button-response","448","435607","0.0-13.0-2.129","195","Low_HMMActual","","","","","","null","","","","Images/WhiteBeadChoiceCorrect.png","","null"
"image-button-response","449","435835","0.0-13.0-0.130","195","Low_HMMActual","","","","","","224","","","","Images/NewTrialWC.png","","2"
"image-button-response","450","436150","0.0-13.0-1.130","195","Low_HMMActual","","","","","","null","","","","Images/WhiteBeadChoice.png","","null"
"image-button-response","451","436660","0.0-13.0-2.130","195","Low_HMMActual","","","","","","null","","","","Images/WhiteBeadChoiceCorrect.png","","null"
"image-button-response","452","436905","0.0-13.0-0.131","195","Low_HMMActual","","","","","","243","","","","Images/NewTrialWC.png","","2"
"image-button-response","453","437218","0.0-13.0-1.131","195","Low_HMMActual","","","","","","null","","","","Images/WhiteBeadChoice.png","","null"
"image-button-response","454","437727","0.0-13.0-2.131","195","Low_HMMActual","","","","","","null","","","","Images/WhiteBeadChoiceCorrect.png","","null"
"image-button-response","455","437947","0.0-13.0-0.132","195","Low_HMMActual","","","","","","218","","","","Images/NewTrialWC.png","","2"
"image-button-response","456","438254","0.0-13.0-1.132","195","Low_HMMActual","","","","","","null","","","","Images/WhiteBeadChoice.png","","null"
"image-button-response","457","438768","0.0-13.0-2.132","195","Low_HMMActual","","","","","","null","","","","Images/WhiteBeadChoiceCorrect.png","","null"
"image-button-response","458","438983","0.0-13.0-0.133","195","Low_HMMActual","","","","","","214","","","","Images/NewTrialWC.png","","2"
"image-button-response","459","439285","0.0-13.0-1.133","195","Low_HMMActual","","","","","","null","","","","Images/WhiteBeadChoice.png","","null"
"image-button-response","460","439795","0.0-13.0-2.133","195","Low_HMMActual","","","","","","null","","","","Images/WhiteBeadChoiceCorrect.png","","null"
"image-button-response","461","440468","0.0-13.0-0.134","195","Low_HMMActual","","","","","","671","","","","Images/NewTrialWC.png","","2"
"image-button-response","462","440774","0.0-13.0-1.134","195","Low_HMMActual","","","","","","null","","","","Images/WhiteBeadChoice.png","","null"
"image-button-response","463","441286","0.0-13.0-2.134","195","Low_HMMActual","","","","","","null","","","","Images/WhiteBeadChoiceCorrect.png","","null"
"image-button-response","464","441709","0.0-13.0-0.135","195","Low_HMMActual","","","","","","421","","","","Images/NewTrialWC.png","","2"
"image-button-response","465","442020","0.0-13.0-1.135","195","Low_HMMActual","","","","","","null","","","","Images/WhiteBeadChoice.png","","null"
"image-button-response","466","442531","0.0-13.0-2.135","195","Low_HMMActual","","","","","","null","","","","Images/WhiteBeadChoiceCorrect.png","","null"
"image-button-response","467","442767","0.0-13.0-0.136","195","Low_HMMActual","","","","","","229","","","","Images/NewTrialWC.png","","2"
"image-button-response","468","443076","0.0-13.0-1.136","195","Low_HMMActual","","","","","","null","","","","Images/WhiteBeadChoice.png","","null"
"image-button-response","469","443582","0.0-13.0-2.136","195","Low_HMMActual","","","","","","null","","","","Images/WhiteBeadChoiceCorrect.png","","null"
"image-button-response","470","443861","0.0-13.0-0.137","195","Low_HMMActual","","","","","","276","","","","Images/NewTrialWC.png","","2"
"image-button-response","471","444174","0.0-13.0-1.137","195","Low_HMMActual","","","","","","null","","","","Images/WhiteBeadChoice.png","","null"
"image-button-response","472","444690","0.0-13.0-2.137","195","Low_HMMActual","","","","","","null","","","","Images/WhiteBeadChoiceCorrect.png","","null"
"image-button-response","473","447071","0.0-13.0-0.138","195","Low_HMMActual","","","","","","2378","","","","Images/NewTrialWC.png","","2"
"image-button-response","474","447385","0.0-13.0-1.138","195","Low_HMMActual","","","","","","null","","","","Images/WhiteBeadChoice.png","","null"
"image-button-response","475","447898","0.0-13.0-2.138","195","Low_HMMActual","","","","","","null","","","","Images/WhiteBeadChoiceCorrect.png","","null"
"image-button-response","476","448209","0.0-13.0-0.139","195","Low_HMMActual","","","","","","308","","","","Images/NewTrialWC.png","","2"
"image-button-response","477","448526","0.0-13.0-1.139","195","Low_HMMActual","","","","","","null","","","","Images/WhiteBeadChoice.png","","null"
"image-button-response","478","449033","0.0-13.0-2.139","195","Low_HMMActual","","","","","","null","","","","Images/WhiteBeadChoiceWrong.png","","null"
"image-button-response","479","449686","0.0-13.0-0.140","195","Low_HMMActual","","","","","","650","","","","Images/NewTrialBC.png","","2"
"image-button-response","480","449995","0.0-13.0-1.140","195","Low_HMMActual","","","","","","null","","","","Images/WhiteBeadChoice.png","","null"
"image-button-response","481","450511","0.0-13.0-2.140","195","Low_HMMActual","","","","","","null","","","","Images/WhiteBeadChoiceWrong.png","","null"
"image-button-response","482","451825","0.0-13.0-0.141","195","Low_HMMActual","","","","","","1309","","","","Images/NewTrialBC.png","","2"
"image-button-response","483","452131","0.0-13.0-1.141","195","Low_HMMActual","","","","","","null","","","","Images/WhiteBeadChoice.png","","null"
"image-button-response","484","452639","0.0-13.0-2.141","195","Low_HMMActual","","","","","","null","","","","Images/WhiteBeadChoiceWrong.png","","null"
"image-button-response","485","453765","0.0-13.0-0.142","195","Low_HMMActual","","","","","","1124","","","","Images/NewTrialBC.png","","1"
"image-button-response","486","454076","0.0-13.0-1.142","195","Low_HMMActual","","","","","","null","","","","Images/BlackBeadChoice.png","","null"
"image-button-response","487","454587","0.0-13.0-2.142","195","Low_HMMActual","","","","","","null","","","","Images/BlackBeadChoiceCorrect.png","","null"
"image-button-response","488","454993","0.0-13.0-0.143","195","Low_HMMActual","","","","","","403","","","","Images/NewTrialBC.png","","0"
"image-button-response","489","455297","0.0-13.0-1.143","195","Low_HMMActual","","","","","","null","","","","Images/BlackBeadChoice.png","","null"
"image-button-response","490","455811","0.0-13.0-2.143","195","Low_HMMActual","","","","","","null","","","","Images/BlackBeadChoiceWrong.png","","null"
"image-button-response","491","456233","0.0-13.0-0.144","195","Low_HMMActual","","","","","","420","","","","Images/NewTrialWC.png","","0"
"image-button-response","492","456540","0.0-13.0-1.144","195","Low_HMMActual","","","","","","null","","","","Images/BlackBeadChoice.png","","null"
"image-button-response","493","457048","0.0-13.0-2.144","195","Low_HMMActual","","","","","","null","","","","Images/BlackBeadChoiceCorrect.png","","null"
"image-button-response","494","457398","0.0-13.0-0.145","195","Low_HMMActual","","","","","","348","","","","Images/NewTrialBC.png","","0"
"image-button-response","495","457712","0.0-13.0-1.145","195","Low_HMMActual","","","","","","null","","","","Images/BlackBeadChoice.png","","null"
"image-button-response","496","458226","0.0-13.0-2.145","195","Low_HMMActual","","","","","","null","","","","Images/BlackBeadChoiceCorrect.png","","null"
"image-button-response","497","458647","0.0-13.0-0.146","195","Low_HMMActual","","","","","","420","","","","Images/NewTrialBC.png","","0"
"image-button-response","498","458956","0.0-13.0-1.146","195","Low_HMMActual","","","","","","null","","","","Images/BlackBeadChoice.png","","null"
"image-button-response","499","459467","0.0-13.0-2.146","195","Low_HMMActual","","","","","","null","","","","Images/BlackBeadChoiceCorrect.png","","null"
"image-button-response","500","459915","0.0-13.0-0.147","195","Low_HMMActual","","","","","","446","","","","Images/NewTrialBC.png","","0"
"image-button-response","501","460230","0.0-13.0-1.147","195","Low_HMMActual","","","","","","null","","","","Images/BlackBeadChoice.png","","null"
"image-button-response","502","460743","0.0-13.0-2.147","195","Low_HMMActual","","","","","","null","","","","Images/BlackBeadChoiceWrong.png","","null"
"image-button-response","503","461150","0.0-13.0-0.148","195","Low_HMMActual","","","","","","406","","","","Images/NewTrialWC.png","","0"
"image-button-response","504","461455","0.0-13.0-1.148","195","Low_HMMActual","","","","","","null","","","","Images/BlackBeadChoice.png","","null"
"image-button-response","505","461965","0.0-13.0-2.148","195","Low_HMMActual","","","","","","null","","","","Images/BlackBeadChoiceCorrect.png","","null"
"image-button-response","506","462375","0.0-13.0-0.149","195","Low_HMMActual","","","","","","407","","","","Images/NewTrialBC.png","","0"
"image-button-response","507","462691","0.0-13.0-1.149","195","Low_HMMActual","","","","","","null","","","","Images/BlackBeadChoice.png","","null"
"image-button-response","508","463203","0.0-13.0-2.149","195","Low_HMMActual","","","","","","null","","","","Images/BlackBeadChoiceCorrect.png","","null"
"image-button-response","509","463645","0.0-13.0-0.150","195","Low_HMMActual","","","","","","437","","","","Images/NewTrialBC.png","","0"
"image-button-response","510","463950","0.0-13.0-1.150","195","Low_HMMActual","","","","","","null","","","","Images/BlackBeadChoice.png","","null"
"image-button-response","511","464461","0.0-13.0-2.150","195","Low_HMMActual","","","","","","null","","","","Images/BlackBeadChoiceCorrect.png","","null"
"image-button-response","512","464851","0.0-13.0-0.151","195","Low_HMMActual","","","","","","389","","","","Images/NewTrialBC.png","","0"
"image-button-response","513","465161","0.0-13.0-1.151","195","Low_HMMActual","","","","","","null","","","","Images/BlackBeadChoice.png","","null"
"image-button-response","514","465669","0.0-13.0-2.151","195","Low_HMMActual","","","","","","null","","","","Images/BlackBeadChoiceCorrect.png","","null"
"image-button-response","515","466029","0.0-13.0-0.152","195","Low_HMMActual","","","","","","357","","","","Images/NewTrialBC.png","","0"
"image-button-response","516","466335","0.0-13.0-1.152","195","Low_HMMActual","","","","","","null","","","","Images/BlackBeadChoice.png","","null"
"image-button-response","517","466852","0.0-13.0-2.152","195","Low_HMMActual","","","","","","null","","","","Images/BlackBeadChoiceCorrect.png","","null"
"image-button-response","518","467235","0.0-13.0-0.153","195","Low_HMMActual","","","","","","382","","","","Images/NewTrialBC.png","","0"
"image-button-response","519","467538","0.0-13.0-1.153","195","Low_HMMActual","","","","","","null","","","","Images/BlackBeadChoice.png","","null"
"image-button-response","520","468048","0.0-13.0-2.153","195","Low_HMMActual","","","","","","null","","","","Images/BlackBeadChoiceCorrect.png","","null"
"image-button-response","521","468481","0.0-13.0-0.154","195","Low_HMMActual","","","","","","431","","","","Images/NewTrialBC.png","","0"
"image-button-response","522","468783","0.0-13.0-1.154","195","Low_HMMActual","","","","","","null","","","","Images/BlackBeadChoice.png","","null"
"image-button-response","523","469295","0.0-13.0-2.154","195","Low_HMMActual","","","","","","null","","","","Images/BlackBeadChoiceCorrect.png","","null"
"image-button-response","524","469740","0.0-13.0-0.155","195","Low_HMMActual","","","","","","445","","","","Images/NewTrialBC.png","","0"
"image-button-response","525","470053","0.0-13.0-1.155","195","Low_HMMActual","","","","","","null","","","","Images/BlackBeadChoice.png","","null"
"image-button-response","526","470566","0.0-13.0-2.155","195","Low_HMMActual","","","","","","null","","","","Images/BlackBeadChoiceCorrect.png","","null"
"image-button-response","527","470993","0.0-13.0-0.156","195","Low_HMMActual","","","","","","424","","","","Images/NewTrialBC.png","","0"
"image-button-response","528","471295","0.0-13.0-1.156","195","Low_HMMActual","","","","","","null","","","","Images/BlackBeadChoice.png","","null"
"image-button-response","529","471804","0.0-13.0-2.156","195","Low_HMMActual","","","","","","null","","","","Images/BlackBeadChoiceCorrect.png","","null"
"image-button-response","530","472203","0.0-13.0-0.157","195","Low_HMMActual","","","","","","398","","","","Images/NewTrialBC.png","","0"
"image-button-response","531","472515","0.0-13.0-1.157","195","Low_HMMActual","","","","","","null","","","","Images/BlackBeadChoice.png","","null"
"image-button-response","532","473028","0.0-13.0-2.157","195","Low_HMMActual","","","","","","null","","","","Images/BlackBeadChoiceCorrect.png","","null"
"image-button-response","533","473425","0.0-13.0-0.158","195","Low_HMMActual","","","","","","395","","","","Images/NewTrialBC.png","","0"
"image-button-response","534","473740","0.0-13.0-1.158","195","Low_HMMActual","","","","","","null","","","","Images/BlackBeadChoice.png","","null"
"image-button-response","535","474248","0.0-13.0-2.158","195","Low_HMMActual","","","","","","null","","","","Images/BlackBeadChoiceCorrect.png","","null"
"image-button-response","536","474614","0.0-13.0-0.159","195","Low_HMMActual","","","","","","365","","","","Images/NewTrialBC.png","","0"
"image-button-response","537","474927","0.0-13.0-1.159","195","Low_HMMActual","","","","","","null","","","","Images/BlackBeadChoice.png","","null"
"image-button-response","538","475439","0.0-13.0-2.159","195","Low_HMMActual","","","","","","null","","","","Images/BlackBeadChoiceCorrect.png","","null"
"image-button-response","539","475873","0.0-13.0-0.160","195","Low_HMMActual","","","","","","431","","","","Images/NewTrialBC.png","","0"
"image-button-response","540","476182","0.0-13.0-1.160","195","Low_HMMActual","","","","","","null","","","","Images/BlackBeadChoice.png","","null"
"image-button-response","541","476695","0.0-13.0-2.160","195","Low_HMMActual","","","","","","null","","","","Images/BlackBeadChoiceCorrect.png","","null"
"image-button-response","542","476963","0.0-13.0-0.161","195","Low_HMMActual","","","","","","262","","","","Images/NewTrialBC.png","","0"
"image-button-response","543","477266","0.0-13.0-1.161","195","Low_HMMActual","","","","","","null","","","","Images/BlackBeadChoice.png","","null"
"image-button-response","544","477776","0.0-13.0-2.161","195","Low_HMMActual","","","","","","null","","","","Images/BlackBeadChoiceCorrect.png","","null"
"image-button-response","545","499638","0.0-13.0-0.162","195","Low_HMMActual","","","","","","21858","","","","Images/NewTrialBC.png","","0"
"image-button-response","546","499951","0.0-13.0-1.162","195","Low_HMMActual","","","","","","null","","","","Images/BlackBeadChoice.png","","null"
"image-button-response","547","500460","0.0-13.0-2.162","195","Low_HMMActual","","","","","","388","","","","Images/BlackBeadChoiceCorrect.png","","0"
"image-button-response","548","501036","0.0-13.0-0.163","195","Low_HMMActual","","","","","","575","","","","Images/NewTrialBC.png","","0"
"image-button-response","549","501340","0.0-13.0-1.163","195","Low_HMMActual","","","","","","null","","","","Images/BlackBeadChoice.png","","null"
"image-button-response","550","501853","0.0-13.0-2.163","195","Low_HMMActual","","","","","","465","","","","Images/BlackBeadChoiceCorrect.png","","0"
"image-button-response","551","502407","0.0-13.0-0.164","195","Low_HMMActual","","","","","","553","","","","Images/NewTrialBC.png","","0"
"image-button-response","552","502710","0.0-13.0-1.164","195","Low_HMMActual","","","","","","null","","","","Images/BlackBeadChoice.png","","null"
"image-button-response","553","503225","0.0-13.0-2.164","195","Low_HMMActual","","","","","","null","","","","Images/BlackBeadChoiceCorrect.png","","null"
"image-button-response","554","503593","0.0-13.0-0.165","195","Low_HMMActual","","","","","","364","","","","Images/NewTrialBC.png","","0"
"image-button-response","555","503894","0.0-13.0-1.165","195","Low_HMMActual","","","","","","null","","","","Images/BlackBeadChoice.png","","null"
"image-button-response","556","504409","0.0-13.0-2.165","195","Low_HMMActual","","","","","","null","","","","Images/BlackBeadChoiceCorrect.png","","null"
"image-button-response","557","504705","0.0-13.0-0.166","195","Low_HMMActual","","","","","","293","","","","Images/NewTrialBC.png","","0"
"image-button-response","558","505015","0.0-13.0-1.166","195","Low_HMMActual","","","","","","null","","","","Images/BlackBeadChoice.png","","null"
"image-button-response","559","505524","0.0-13.0-2.166","195","Low_HMMActual","","","","","","null","","","","Images/BlackBeadChoiceCorrect.png","","null"
"image-button-response","560","505792","0.0-13.0-0.167","195","Low_HMMActual","","","","","","265","","","","Images/NewTrialBC.png","","0"
"image-button-response","561","506101","0.0-13.0-1.167","195","Low_HMMActual","","","","","","null","","","","Images/BlackBeadChoice.png","","null"
"image-button-response","562","506615","0.0-13.0-2.167","195","Low_HMMActual","","","","","","null","","","","Images/BlackBeadChoiceCorrect.png","","null"
"image-button-response","563","506750","0.0-13.0-0.168","195","Low_HMMActual","","","","","","133","","","","Images/NewTrialBC.png","","0"
"image-button-response","564","507067","0.0-13.0-1.168","195","Low_HMMActual","","","","","","null","","","","Images/BlackBeadChoice.png","","null"
"image-button-response","565","507580","0.0-13.0-2.168","195","Low_HMMActual","","","","","","null","","","","Images/BlackBeadChoiceCorrect.png","","null"
"image-button-response","566","507808","0.0-13.0-0.169","195","Low_HMMActual","","","","","","228","","","","Images/NewTrialBC.png","","0"
"image-button-response","567","508119","0.0-13.0-1.169","195","Low_HMMActual","","","","","","null","","","","Images/BlackBeadChoice.png","","null"
"image-button-response","568","508635","0.0-13.0-2.169","195","Low_HMMActual","","","","","","null","","","","Images/BlackBeadChoiceCorrect.png","","null"
"image-button-response","569","508948","0.0-13.0-0.170","195","Low_HMMActual","","","","","","311","","","","Images/NewTrialBC.png","","0"
"image-button-response","570","509257","0.0-13.0-1.170","195","Low_HMMActual","","","","","","null","","","","Images/BlackBeadChoice.png","","null"
"image-button-response","571","509767","0.0-13.0-2.170","195","Low_HMMActual","","","","","","null","","","","Images/BlackBeadChoiceCorrect.png","","null"
"image-button-response","572","510116","0.0-13.0-0.171","195","Low_HMMActual","","","","","","346","","","","Images/NewTrialBC.png","","0"
"image-button-response","573","510430","0.0-13.0-1.171","195","Low_HMMActual","","","","","","null","","","","Images/BlackBeadChoice.png","","null"
"image-button-response","574","510942","0.0-13.0-2.171","195","Low_HMMActual","","","","","","null","","","","Images/BlackBeadChoiceCorrect.png","","null"
"image-button-response","575","511259","0.0-13.0-0.172","195","Low_HMMActual","","","","","","314","","","","Images/NewTrialBC.png","","0"
"image-button-response","576","511564","0.0-13.0-1.172","195","Low_HMMActual","","","","","","null","","","","Images/BlackBeadChoice.png","","null"
"image-button-response","577","512079","0.0-13.0-2.172","195","Low_HMMActual","","","","","","null","","","","Images/BlackBeadChoiceCorrect.png","","null"
"image-button-response","578","512402","0.0-13.0-0.173","195","Low_HMMActual","","","","","","321","","","","Images/NewTrialBC.png","","0"
"image-button-response","579","512713","0.0-13.0-1.173","195","Low_HMMActual","","","","","","null","","","","Images/BlackBeadChoice.png","","null"
"image-button-response","580","513226","0.0-13.0-2.173","195","Low_HMMActual","","","","","","null","","","","Images/BlackBeadChoiceCorrect.png","","null"
"image-button-response","581","513584","0.0-13.0-0.174","195","Low_HMMActual","","","","","","357","","","","Images/NewTrialBC.png","","0"
"image-button-response","582","513890","0.0-13.0-1.174","195","Low_HMMActual","","","","","","null","","","","Images/BlackBeadChoice.png","","null"
"image-button-response","583","514405","0.0-13.0-2.174","195","Low_HMMActual","","","","","","null","","","","Images/BlackBeadChoiceCorrect.png","","null"
"image-button-response","584","514700","0.0-13.0-0.175","195","Low_HMMActual","","","","","","292","","","","Images/NewTrialBC.png","","0"
"image-button-response","585","515009","0.0-13.0-1.175","195","Low_HMMActual","","","","","","null","","","","Images/BlackBeadChoice.png","","null"
"image-button-response","586","515519","0.0-13.0-2.175","195","Low_HMMActual","","","","","","null","","","","Images/BlackBeadChoiceWrong.png","","null"
"image-button-response","587","516581","0.0-13.0-0.176","195","Low_HMMActual","","","","","","1059","","","","Images/NewTrialWC.png","","0"
"image-button-response","588","516888","0.0-13.0-1.176","195","Low_HMMActual","","","","","","null","","","","Images/BlackBeadChoice.png","","null"
"image-button-response","589","517394","0.0-13.0-2.176","195","Low_HMMActual","","","","","","null","","","","Images/BlackBeadChoiceCorrect.png","","null"
"image-button-response","590","517986","0.0-13.0-0.177","195","Low_HMMActual","","","","","","588","","","","Images/NewTrialBC.png","","0"
"image-button-response","591","518298","0.0-13.0-1.177","195","Low_HMMActual","","","","","","null","","","","Images/BlackBeadChoice.png","","null"
"image-button-response","592","518814","0.0-13.0-2.177","195","Low_HMMActual","","","","","","null","","","","Images/BlackBeadChoiceCorrect.png","","null"
"image-button-response","593","519280","0.0-13.0-0.178","195","Low_HMMActual","","","","","","463","","","","Images/NewTrialBC.png","","0"
"image-button-response","594","519588","0.0-13.0-1.178","195","Low_HMMActual","","","","","","null","","","","Images/BlackBeadChoice.png","","null"
"image-button-response","595","520101","0.0-13.0-2.178","195","Low_HMMActual","","","","","","null","","","","Images/BlackBeadChoiceCorrect.png","","null"
"image-button-response","596","520499","0.0-13.0-0.179","195","Low_HMMActual","","","","","","396","","","","Images/NewTrialBC.png","","0"
"image-button-response","597","520800","0.0-13.0-1.179","195","Low_HMMActual","","","","","","null","","","","Images/BlackBeadChoice.png","","null"
"image-button-response","598","521313","0.0-13.0-2.179","195","Low_HMMActual","","","","","","null","","","","Images/BlackBeadChoiceWrong.png","","null"
"image-button-response","599","522011","0.0-13.0-0.180","195","Low_HMMActual","","","","","","696","","","","Images/NewTrialWC.png","","0"
"image-button-response","600","522314","0.0-13.0-1.180","195","Low_HMMActual","","","","","","null","","","","Images/BlackBeadChoice.png","","null"
"image-button-response","601","522824","0.0-13.0-2.180","195","Low_HMMActual","","","","","","null","","","","Images/BlackBeadChoiceWrong.png","","null"
"image-button-response","602","524544","0.0-13.0-0.181","195","Low_HMMActual","","","","","","1718","","","","Images/NewTrialWC.png","","1"
"image-button-response","603","524857","0.0-13.0-1.181","195","Low_HMMActual","","","","","","null","","","","Images/BlackBeadChoice.png","","null"
"image-button-response","604","525373","0.0-13.0-2.181","195","Low_HMMActual","","","","","","null","","","","Images/BlackBeadChoiceWrong.png","","null"
"image-button-response","605","526081","0.0-13.0-0.182","195","Low_HMMActual","","","","","","706","","","","Images/NewTrialWC.png","","2"
"image-button-response","606","526383","0.0-13.0-1.182","195","Low_HMMActual","","","","","","null","","","","Images/WhiteBeadChoice.png","","null"
"image-button-response","607","526892","0.0-13.0-2.182","195","Low_HMMActual","","","","","","null","","","","Images/WhiteBeadChoiceCorrect.png","","null"
"image-button-response","608","527031","0.0-13.0-0.183","195","Low_HMMActual","","","","","","136","","","","Images/NewTrialWC.png","","2"
"image-button-response","609","527339","0.0-13.0-1.183","195","Low_HMMActual","","","","","","null","","","","Images/WhiteBeadChoice.png","","null"
"image-button-response","610","527853","0.0-13.0-2.183","195","Low_HMMActual","","","","","","null","","","","Images/WhiteBeadChoiceCorrect.png","","null"
"image-button-response","611","528045","0.0-13.0-0.184","195","Low_HMMActual","","","","","","188","","","","Images/NewTrialWC.png","","2"
"image-button-response","612","528348","0.0-13.0-1.184","195","Low_HMMActual","","","","","","null","","","","Images/WhiteBeadChoice.png","","null"
"image-button-response","613","528861","0.0-13.0-2.184","195","Low_HMMActual","","","","","","null","","","","Images/WhiteBeadChoiceCorrect.png","","null"
"image-button-response","614","529127","0.0-13.0-0.185","195","Low_HMMActual","","","","","","264","","","","Images/NewTrialWC.png","","2"
"image-button-response","615","529432","0.0-13.0-1.185","195","Low_HMMActual","","","","","","null","","","","Images/WhiteBeadChoice.png","","null"
"image-button-response","616","529945","0.0-13.0-2.185","195","Low_HMMActual","","","","","","null","","","","Images/WhiteBeadChoiceCorrect.png","","null"
"image-button-response","617","530249","0.0-13.0-0.186","195","Low_HMMActual","","","","","","302","","","","Images/NewTrialWC.png","","2"
"image-button-response","618","530551","0.0-13.0-1.186","195","Low_HMMActual","","","","","","null","","","","Images/WhiteBeadChoice.png","","null"
"image-button-response","619","531063","0.0-13.0-2.186","195","Low_HMMActual","","","","","","null","","","","Images/WhiteBeadChoiceCorrect.png","","null"
"image-button-response","620","531330","0.0-13.0-0.187","195","Low_HMMActual","","","","","","265","","","","Images/NewTrialWC.png","","2"
"image-button-response","621","531639","0.0-13.0-1.187","195","Low_HMMActual","","","","","","null","","","","Images/WhiteBeadChoice.png","","null"
"image-button-response","622","532149","0.0-13.0-2.187","195","Low_HMMActual","","","","","","null","","","","Images/WhiteBeadChoiceCorrect.png","","null"
"image-button-response","623","532264","0.0-13.0-0.188","195","Low_HMMActual","","","","","","113","","","","Images/NewTrialWC.png","","2"
"image-button-response","624","532566","0.0-13.0-1.188","195","Low_HMMActual","","","","","","null","","","","Images/WhiteBeadChoice.png","","null"
"image-button-response","625","533078","0.0-13.0-2.188","195","Low_HMMActual","","","","","","null","","","","Images/WhiteBeadChoiceCorrect.png","","null"
"image-button-response","626","533372","0.0-13.0-0.189","195","Low_HMMActual","","","","","","293","","","","Images/NewTrialWC.png","","2"
"image-button-response","627","533681","0.0-13.0-1.189","195","Low_HMMActual","","","","","","null","","","","Images/WhiteBeadChoice.png","","null"
"image-button-response","628","534192","0.0-13.0-2.189","195","Low_HMMActual","","","","","","null","","","","Images/WhiteBeadChoiceCorrect.png","","null"
"image-button-response","629","534382","0.0-13.0-0.190","195","Low_HMMActual","","","","","","188","","","","Images/NewTrialWC.png","","2"
"image-button-response","630","534684","0.0-13.0-1.190","195","Low_HMMActual","","","","","","null","","","","Images/WhiteBeadChoice.png","","null"
"image-button-response","631","535195","0.0-13.0-2.190","195","Low_HMMActual","","","","","","null","","","","Images/WhiteBeadChoiceCorrect.png","","null"
"image-button-response","632","535447","0.0-13.0-0.191","195","Low_HMMActual","","","","","","248","","","","Images/NewTrialWC.png","","2"
"image-button-response","633","535759","0.0-13.0-1.191","195","Low_HMMActual","","","","","","null","","","","Images/WhiteBeadChoice.png","","null"
"image-button-response","634","536271","0.0-13.0-2.191","195","Low_HMMActual","","","","","","null","","","","Images/WhiteBeadChoiceCorrect.png","","null"
"image-button-response","635","536487","0.0-13.0-0.192","195","Low_HMMActual","","","","","","213","","","","Images/NewTrialWC.png","","2"
"image-button-response","636","536799","0.0-13.0-1.192","195","Low_HMMActual","","","","","","null","","","","Images/WhiteBeadChoice.png","","null"
"image-button-response","637","537311","0.0-13.0-2.192","195","Low_HMMActual","","","","","","null","","","","Images/WhiteBeadChoiceCorrect.png","","null"
"image-button-response","638","537533","0.0-13.0-0.193","195","Low_HMMActual","","","","","","220","","","","Images/NewTrialWC.png","","2"
"image-button-response","639","537837","0.0-13.0-1.193","195","Low_HMMActual","","","","","","null","","","","Images/WhiteBeadChoice.png","","null"
"image-button-response","640","538350","0.0-13.0-2.193","195","Low_HMMActual","","","","","","null","","","","Images/WhiteBeadChoiceCorrect.png","","null"
"image-button-response","641","538635","0.0-13.0-0.194","195","Low_HMMActual","","","","","","282","","","","Images/NewTrialWC.png","","2"
"image-button-response","642","538948","0.0-13.0-1.194","195","Low_HMMActual","","","","","","null","","","","Images/WhiteBeadChoice.png","","null"
"image-button-response","643","539453","0.0-13.0-2.194","195","Low_HMMActual","","","","","","null","","","","Images/WhiteBeadChoiceWrong.png","","null"
"image-button-response","644","540863","0.0-13.0-0.195","195","Low_HMMActual","","","","","","1408","","","","Images/NewTrialBC.png","","2"
"image-button-response","645","541166","0.0-13.0-1.195","195","Low_HMMActual","","","","","","null","","","","Images/WhiteBeadChoice.png","","null"
"image-button-response","646","541673","0.0-13.0-2.195","195","Low_HMMActual","","","","","","null","","","","Images/WhiteBeadChoiceCorrect.png","","null"
"image-button-response","647","542037","0.0-13.0-0.196","195","Low_HMMActual","","","","","","361","","","","Images/NewTrialWC.png","","2"
"image-button-response","648","542347","0.0-13.0-1.196","195","Low_HMMActual","","","","","","null","","","","Images/WhiteBeadChoice.png","","null"
"image-button-response","649","542855","0.0-13.0-2.196","195","Low_HMMActual","","","","","","null","","","","Images/WhiteBeadChoiceCorrect.png","","null"
"image-button-response","650","543181","0.0-13.0-0.197","195","Low_HMMActual","","","","","","323","","","","Images/NewTrialWC.png","","2"
"image-button-response","651","543490","0.0-13.0-1.197","195","Low_HMMActual","","","","","","null","","","","Images/WhiteBeadChoice.png","","null"
"image-button-response","652","543993","0.0-13.0-2.197","195","Low_HMMActual","","","","","","null","","","","Images/WhiteBeadChoiceCorrect.png","","null"
"image-button-response","653","544261","0.0-13.0-0.198","195","Low_HMMActual","","","","","","266","","","","Images/NewTrialWC.png","","2"
"image-button-response","654","544574","0.0-13.0-1.198","195","Low_HMMActual","","","","","","null","","","","Images/WhiteBeadChoice.png","","null"
"image-button-response","655","545076","0.0-13.0-2.198","195","Low_HMMActual","","","","","","null","","","","Images/WhiteBeadChoiceCorrect.png","","null"
"image-button-response","656","545413","0.0-13.0-0.199","195","Low_HMMActual","","","","","","334","","","","Images/NewTrialWC.png","","2"
"image-button-response","657","545718","0.0-13.0-1.199","195","Low_HMMActual","","","","","","null","","","","Images/WhiteBeadChoice.png","","null"
"image-button-response","658","546224","0.0-13.0-2.199","195","Low_HMMActual","","","","","","null","","","","Images/WhiteBeadChoiceCorrect.png","","null"
"image-button-response","659","546550","0.0-13.0-0.200","195","Low_HMMActual","","","","","","323","","","","Images/NewTrialWC.png","","2"
"image-button-response","660","546865","0.0-13.0-1.200","195","Low_HMMActual","","","","","","null","","","","Images/WhiteBeadChoice.png","","null"
"image-button-response","661","547374","0.0-13.0-2.200","195","Low_HMMActual","","","","","","null","","","","Images/WhiteBeadChoiceWrong.png","","null"
"image-button-response","662","547729","0.0-13.0-0.201","195","Low_HMMActual","","","","","","353","","","","Images/NewTrialBC.png","","2"
"image-button-response","663","548035","0.0-13.0-1.201","195","Low_HMMActual","","","","","","null","","","","Images/WhiteBeadChoice.png","","null"
"image-button-response","664","548544","0.0-13.0-2.201","195","Low_HMMActual","","","","","","null","","","","Images/WhiteBeadChoiceWrong.png","","null"
"image-button-response","665","549533","0.0-13.0-0.202","195","Low_HMMActual","","","","","","986","","","","Images/NewTrialBC.png","","3"
"image-button-response","666","549844","0.0-13.0-1.202","195","Low_HMMActual","","","","","","null","","","","Images/WhiteBeadChoice.png","","null"
"image-button-response","667","550350","0.0-13.0-2.202","195","Low_HMMActual","","","","","","null","","","","Images/WhiteBeadChoiceCorrect.png","","null"
"image-button-response","668","550525","0.0-13.0-0.203","195","Low_HMMActual","","","","","","172","","","","Images/NewTrialWC.png","","2"
"image-button-response","669","550828","0.0-13.0-1.203","195","Low_HMMActual","","","","","","null","","","","Images/WhiteBeadChoice.png","","null"
"image-button-response","670","551338","0.0-13.0-2.203","195","Low_HMMActual","","","","","","null","","","","Images/WhiteBeadChoiceCorrect.png","","null"
"image-button-response","671","551512","0.0-13.0-0.204","195","Low_HMMActual","","","","","","172","","","","Images/NewTrialWC.png","","2"
"image-button-response","672","551825","0.0-13.0-1.204","195","Low_HMMActual","","","","","","null","","","","Images/WhiteBeadChoice.png","","null"
"image-button-response","673","552328","0.0-13.0-2.204","195","Low_HMMActual","","","","","","null","","","","Images/WhiteBeadChoiceCorrect.png","","null"
"image-button-response","674","552525","0.0-13.0-0.205","195","Low_HMMActual","","","","","","196","","","","Images/NewTrialWC.png","","2"
"image-button-response","675","552833","0.0-13.0-1.205","195","Low_HMMActual","","","","","","null","","","","Images/WhiteBeadChoice.png","","null"
"image-button-response","676","553337","0.0-13.0-2.205","195","Low_HMMActual","","","","","","null","","","","Images/WhiteBeadChoiceCorrect.png","","null"
"image-button-response","677","553526","0.0-13.0-0.206","195","Low_HMMActual","","","","","","188","","","","Images/NewTrialWC.png","","2"
"image-button-response","678","553828","0.0-13.0-1.206","195","Low_HMMActual","","","","","","null","","","","Images/WhiteBeadChoice.png","","null"
"image-button-response","679","554335","0.0-13.0-2.206","195","Low_HMMActual","","","","","","null","","","","Images/WhiteBeadChoiceCorrect.png","","null"
"image-button-response","680","554585","0.0-13.0-0.207","195","Low_HMMActual","","","","","","250","","","","Images/NewTrialWC.png","","2"
