"trial_type","trial_index","time_elapsed","internal_node_id","Script_Picker","Block_Type","success","timeout","failed_images","failed_audio","failed_video","rt","url","responses","question_order","stimulus","key_press","response"
"pavlovia","0","15","0.0-0.0","1","Low_HMMActual","","","","","","","","","","","",""
"preload","1","16","0.0-1.0","1","Low_HMMActual","true","false","[]","[]","[]","","","","","","",""
"external-html","2","6233","0.0-2.0-0.0","1","Low_HMMActual","","","","","","6152.789999963716","consent.html","","","","",""
"survey-multi-choice","3","15713","0.0-2.0-1.0","1","Low_HMMActual","","","","","","9477.805000031367","","{""Q0"":""Male"",""Q1"":""White""}","[0,1]","","",""
"survey-text","4","17804","0.0-2.0-2.0","1","Low_HMMActual","","","","","","2087.8600000287406","","{""Q0"":""25""}","","","",""
"survey-text","5","22112","0.0-2.0-3.0","1","Low_HMMActual","","","","","","4205.644999979995","","{""Q0"":""5de00d05988d7c0877eaa15a""}","","","",""
"image-keyboard-response","6","36553","0.0-3.0-0.0","1","Low_HMMActual","","","","","","14339.640000020154","","","","tutorial/tutorial1.png"," ",""
"image-keyboard-response","7","47361","0.0-3.0-0.1","1","Low_HMMActual","","","","","","10806.410000019241","","","","tutorial/tutorial2.png"," ",""
"image-keyboard-response","8","51376","0.0-3.0-0.2","1","Low_HMMActual","","","","","","4015.0899999425747","","","","tutorial/tutorial3.png"," ",""
"image-keyboard-response","9","54296","0.0-3.0-0.3","1","Low_HMMActual","","","","","","2919.3949999753386","","","","tutorial/tutorial4.png"," ",""
"image-keyboard-response","10","56528","0.0-3.0-0.4","1","Low_HMMActual","","","","","","2231.325000000652","","","","tutorial/tutorial5.png"," ",""
"image-keyboard-response","11","61889","0.0-3.0-0.5","1","Low_HMMActual","","","","","","5359.884999983478","","","","tutorial/tutorial6.png"," ",""
"image-keyboard-response","12","68185","0.0-3.0-0.6","1","Low_HMMActual","","","","","","6294.794999994338","","","","tutorial/tutorial7.png"," ",""
"image-keyboard-response","13","74385","0.0-3.0-0.7","1","Low_HMMActual","","","","","","6199.529999983497","","","","tutorial/tutorial8.png"," ",""
"image-keyboard-response","14","83896","0.0-3.0-0.8","1","Low_HMMActual","","","","","","9511.08500000555","","","","tutorial/tutorial9.png"," ",""
"image-keyboard-response","15","96281","0.0-3.0-0.9","1","Low_HMMActual","","","","","","12383.759999996983","","","","tutorial/tutorial10.png"," ",""
"image-keyboard-response","16","103297","0.0-3.0-0.10","1","Low_HMMActual","","","","","","7015.055000025313","","","","tutorial/tutorial11.png"," ",""
"image-keyboard-response","17","112705","0.0-3.0-0.11","1","Low_HMMActual","","","","","","9407.7249999973","","","","tutorial/tutorial12.png"," ",""
"image-keyboard-response","18","123257","0.0-3.0-0.12","1","Low_HMMActual","","","","","","10551.465000025928","","","","tutorial/tutorial13.png"," ",""
"image-keyboard-response","19","130544","0.0-3.0-0.13","1","Low_HMMActual","","","","","","7287.029999948572","","","","tutorial/tutorial14.png"," ",""
"image-keyboard-response","20","133585","0.0-3.0-0.14","1","Low_HMMActual","","","","","","3039.7850000299513","","","","tutorial/tutorial15.png"," ",""
"image-keyboard-response","21","143873","0.0-4.0","1","Low_HMMActual","","","","","","10287.870000000112","","","","tutorial/tutorial16.png","arrowup",""
"image-keyboard-response","22","153128","0.0-5.0","1","Low_HMMActual","","","","","","7097.475000016857","","","","tutorial/tutorial17.png","arrowright",""
"image-keyboard-response","23","157121","0.0-6.0","1","Low_HMMActual","","","","","","3239.904999965802","","","","tutorial/tutorial18.png","arrowleft",""
"image-keyboard-response","24","160736","0.0-7.0","1","Low_HMMActual","","","","","","2943.55500000529","","","","tutorial/tutorial19.png"," ",""
"html-keyboard-response","25","163369","0.0-8.0","184","Low_HMMActual","","","","","","2630.1349999848753","","","","<div class=""container"" style=""height:800px;width:800px;display:flex;flex-direction:column;justify-content:center;align-items:center;text-align:center;font-weight:normal;font-family:Arial;font-size:20px""><p>Loading episode&hellip;</p><div>"," ",""
"image-button-response","26","173447","0.0-9.0-0.0","184","Low_HMMActual","","","","","","10075.864999962505","","","","Images/NoChoice.png","","3"
"image-button-response","27","173751","0.0-9.0-1.0","184","Low_HMMActual","","","","","","null","","","","Images/WhiteBeadChoice.png","","null"
"image-button-response","28","174258","0.0-9.0-2.0","184","Low_HMMActual","","","","","","null","","","","Images/WhiteBeadChoiceWrong.png","","null"
"image-button-response","29","181419","0.0-9.0-0.1","184","Low_HMMActual","","","","","","7159.400000004098","","","","Images/NewTrialBC.png","","0"
"image-button-response","30","181731","0.0-9.0-1.1","184","Low_HMMActual","","","","","","null","","","","Images/BlackBeadChoice.png","","null"
"image-button-response","31","182240","0.0-9.0-2.1","184","Low_HMMActual","","","","","","null","","","","Images/BlackBeadChoiceCorrect.png","","null"
"image-button-response","32","188319","0.0-9.0-0.2","184","Low_HMMActual","","","","","","6077.510000031907","","","","Images/NewTrialBC.png","","0"
"image-button-response","33","188621","0.0-9.0-1.2","184","Low_HMMActual","","","","","","null","","","","Images/BlackBeadChoice.png","","null"
"image-button-response","34","189128","0.0-9.0-2.2","184","Low_HMMActual","","","","","","null","","","","Images/BlackBeadChoiceCorrect.png","","null"
"image-button-response","35","190866","0.0-9.0-0.3","184","Low_HMMActual","","","","","","1735.9200000064448","","","","Images/NewTrialBC.png","","0"
"image-button-response","36","191178","0.0-9.0-1.3","184","Low_HMMActual","","","","","","null","","","","Images/BlackBeadChoice.png","","null"
"image-button-response","37","191686","0.0-9.0-2.3","184","Low_HMMActual","","","","","","null","","","","Images/BlackBeadChoiceCorrect.png","","null"
"image-button-response","38","192724","0.0-9.0-0.4","184","Low_HMMActual","","","","","","1036.3500000094064","","","","Images/NewTrialBC.png","","0"
"image-button-response","39","193033","0.0-9.0-1.4","184","Low_HMMActual","","","","","","null","","","","Images/BlackBeadChoice.png","","null"
"image-button-response","40","193539","0.0-9.0-2.4","184","Low_HMMActual","","","","","","null","","","","Images/BlackBeadChoiceCorrect.png","","null"
"image-button-response","41","194634","0.0-9.0-0.5","184","Low_HMMActual","","","","","","1092.8350000176579","","","","Images/NewTrialBC.png","","0"
"image-button-response","42","194949","0.0-9.0-1.5","184","Low_HMMActual","","","","","","null","","","","Images/BlackBeadChoice.png","","null"
"image-button-response","43","195455","0.0-9.0-2.5","184","Low_HMMActual","","","","","","null","","","","Images/BlackBeadChoiceWrong.png","","null"
"image-button-response","44","201035","0.0-9.0-0.6","184","Low_HMMActual","","","","","","5578.509999962989","","","","Images/NewTrialWC.png","","3"
"image-button-response","45","201339","0.0-9.0-1.6","184","Low_HMMActual","","","","","","null","","","","Images/WhiteBeadChoice.png","","null"
"image-button-response","46","201846","0.0-9.0-2.6","184","Low_HMMActual","","","","","","null","","","","Images/WhiteBeadChoiceWrong.png","","null"
"image-button-response","47","207447","0.0-9.0-0.7","184","Low_HMMActual","","","","","","5599.0050000255","","","","Images/NewTrialBC.png","","2"
"image-button-response","48","207762","0.0-9.0-1.7","184","Low_HMMActual","","","","","","null","","","","Images/WhiteBeadChoice.png","","null"
"image-button-response","49","208265","0.0-9.0-2.7","184","Low_HMMActual","","","","","","null","","","","Images/WhiteBeadChoiceWrong.png","","null"
"image-button-response","50","209589","0.0-9.0-0.8","184","Low_HMMActual","","","","","","1322.8549999766983","","","","Images/NewTrialBC.png","","2"
"image-button-response","51","209904","0.0-9.0-1.8","184","Low_HMMActual","","","","","","null","","","","Images/WhiteBeadChoice.png","","null"
"image-button-response","52","210406","0.0-9.0-2.8","184","Low_HMMActual","","","","","","null","","","","Images/WhiteBeadChoiceWrong.png","","null"
"image-button-response","53","210921","0.0-9.0-0.9","184","Low_HMMActual","","","","","","513.1600000313483","","","","Images/NewTrialBC.png","","0"
"image-button-response","54","211222","0.0-9.0-1.9","184","Low_HMMActual","","","","","","null","","","","Images/BlackBeadChoice.png","","null"
"image-button-response","55","211727","0.0-9.0-2.9","184","Low_HMMActual","","","","","","null","","","","Images/BlackBeadChoiceCorrect.png","","null"
"html-keyboard-response","56","214209","0.0-10.0","184","Low_HMMActual","","","","","","2480.2100000088103","","","",""," ",""
"image-keyboard-response","57","215609","0.0-11.0","184","Low_HMMActual","","","","","","1398.5949999769218","","","","tutorial/tutorial20.png"," ",""
"html-keyboard-response","58","217128","0.0-12.0","25","Low_HMMActual","","","","","","1516.254999965895","","","","<div class=""container"" style=""height:800px;width:800px;display:flex;flex-direction:column;justify-content:center;align-items:center;text-align:center;font-weight:normal;font-family:Arial;font-size:20px""><p>Loading episode&hellip;</p><div>"," ",""
"image-button-response","59","219749","0.0-13.0-0.0","25","Low_HMMActual","","","","","","2619.04499999946","","","","Images/NoChoice.png","","3"
"image-button-response","60","220050","0.0-13.0-1.0","25","Low_HMMActual","","","","","","null","","","","Images/WhiteBeadChoice.png","","null"
"image-button-response","61","220558","0.0-13.0-2.0","25","Low_HMMActual","","","","","","null","","","","Images/WhiteBeadChoiceCorrect.png","","null"
"image-button-response","62","221764","0.0-13.0-0.1","25","Low_HMMActual","","","","","","1204.0300000226125","","","","Images/NewTrialWC.png","","2"
"image-button-response","63","222074","0.0-13.0-1.1","25","Low_HMMActual","","","","","","null","","","","Images/WhiteBeadChoice.png","","null"
"image-button-response","64","222579","0.0-13.0-2.1","25","Low_HMMActual","","","","","","null","","","","Images/WhiteBeadChoiceCorrect.png","","null"
"image-button-response","65","223077","0.0-13.0-0.2","25","Low_HMMActual","","","","","","496.370000008028","","","","Images/NewTrialWC.png","","2"
"image-button-response","66","223382","0.0-13.0-1.2","25","Low_HMMActual","","","","","","null","","","","Images/WhiteBeadChoice.png","","null"
"image-button-response","67","223889","0.0-13.0-2.2","25","Low_HMMActual","","","","","","null","","","","Images/WhiteBeadChoiceCorrect.png","","null"
"image-button-response","68","224291","0.0-13.0-0.3","25","Low_HMMActual","","","","","","400.069999974221","","","","Images/NewTrialWC.png","","2"
"image-button-response","69","224602","0.0-13.0-1.3","25","Low_HMMActual","","","","","","null","","","","Images/WhiteBeadChoice.png","","null"
"image-button-response","70","225107","0.0-13.0-2.3","25","Low_HMMActual","","","","","","null","","","","Images/WhiteBeadChoiceCorrect.png","","null"
"image-button-response","71","225729","0.0-13.0-0.4","25","Low_HMMActual","","","","","","619.7599999723025","","","","Images/NewTrialWC.png","","2"
"image-button-response","72","226044","0.0-13.0-1.4","25","Low_HMMActual","","","","","","null","","","","Images/WhiteBeadChoice.png","","null"
"image-button-response","73","226554","0.0-13.0-2.4","25","Low_HMMActual","","","","","","null","","","","Images/WhiteBeadChoiceCorrect.png","","null"
"image-button-response","74","227122","0.0-13.0-0.5","25","Low_HMMActual","","","","","","566.5000000153668","","","","Images/NewTrialWC.png","","2"
"image-button-response","75","227429","0.0-13.0-1.5","25","Low_HMMActual","","","","","","null","","","","Images/WhiteBeadChoice.png","","null"
"image-button-response","76","227936","0.0-13.0-2.5","25","Low_HMMActual","","","","","","null","","","","Images/WhiteBeadChoiceCorrect.png","","null"
"image-button-response","77","228303","0.0-13.0-0.6","25","Low_HMMActual","","","","","","365.14000000897795","","","","Images/NewTrialWC.png","","2"
"image-button-response","78","228620","0.0-13.0-1.6","25","Low_HMMActual","","","","","","null","","","","Images/WhiteBeadChoice.png","","null"
"image-button-response","79","229126","0.0-13.0-2.6","25","Low_HMMActual","","","","","","null","","","","Images/WhiteBeadChoiceCorrect.png","","null"
"image-button-response","80","229595","0.0-13.0-0.7","25","Low_HMMActual","","","","","","466.87000000383705","","","","Images/NewTrialWC.png","","2"
"image-button-response","81","229897","0.0-13.0-1.7","25","Low_HMMActual","","","","","","null","","","","Images/WhiteBeadChoice.png","","null"
"image-button-response","82","230406","0.0-13.0-2.7","25","Low_HMMActual","","","","","","null","","","","Images/WhiteBeadChoiceCorrect.png","","null"
"image-button-response","83","230853","0.0-13.0-0.8","25","Low_HMMActual","","","","","","445.4849999747239","","","","Images/NewTrialWC.png","","2"
"image-button-response","84","231170","0.0-13.0-1.8","25","Low_HMMActual","","","","","","null","","","","Images/WhiteBeadChoice.png","","null"
"image-button-response","85","231691","0.0-13.0-2.8","25","Low_HMMActual","","","","","","null","","","","Images/WhiteBeadChoiceCorrect.png","","null"
"image-button-response","86","232050","0.0-13.0-0.9","25","Low_HMMActual","","","","","","357.3599999654107","","","","Images/NewTrialWC.png","","2"
"image-button-response","87","232358","0.0-13.0-1.9","25","Low_HMMActual","","","","","","null","","","","Images/WhiteBeadChoice.png","","null"
"image-button-response","88","232865","0.0-13.0-2.9","25","Low_HMMActual","","","","","","null","","","","Images/WhiteBeadChoiceCorrect.png","","null"
"image-button-response","89","233210","0.0-13.0-0.10","25","Low_HMMActual","","","","","","343.0650000227615","","","","Images/NewTrialWC.png","","2"
"image-button-response","90","233511","0.0-13.0-1.10","25","Low_HMMActual","","","","","","null","","","","Images/WhiteBeadChoice.png","","null"
"image-button-response","91","234020","0.0-13.0-2.10","25","Low_HMMActual","","","","","","null","","","","Images/WhiteBeadChoiceCorrect.png","","null"
"image-button-response","92","234380","0.0-13.0-0.11","25","Low_HMMActual","","","","","","357.4650000082329","","","","Images/NewTrialWC.png","","2"
"image-button-response","93","234687","0.0-13.0-1.11","25","Low_HMMActual","","","","","","null","","","","Images/WhiteBeadChoice.png","","null"
"image-button-response","94","235195","0.0-13.0-2.11","25","Low_HMMActual","","","","","","null","","","","Images/WhiteBeadChoiceCorrect.png","","null"
"image-button-response","95","235604","0.0-13.0-0.12","25","Low_HMMActual","","","","","","401.13499999279156","","","","Images/NewTrialWC.png","","2"
"image-button-response","96","235908","0.0-13.0-1.12","25","Low_HMMActual","","","","","","null","","","","Images/WhiteBeadChoice.png","","null"
"image-button-response","97","236418","0.0-13.0-2.12","25","Low_HMMActual","","","","","","null","","","","Images/WhiteBeadChoiceWrong.png","","null"
"image-button-response","98","238130","0.0-13.0-0.13","25","Low_HMMActual","","","","","","1710.4350000154227","","","","Images/NewTrialBC.png","","2"
"image-button-response","99","238441","0.0-13.0-1.13","25","Low_HMMActual","","","","","","null","","","","Images/WhiteBeadChoice.png","","null"
"image-button-response","100","238946","0.0-13.0-2.13","25","Low_HMMActual","","","","","","null","","","","Images/WhiteBeadChoiceCorrect.png","","null"
"image-button-response","101","239350","0.0-13.0-0.14","25","Low_HMMActual","","","","","","402.0800000289455","","","","Images/NewTrialWC.png","","2"
"image-button-response","102","239663","0.0-13.0-1.14","25","Low_HMMActual","","","","","","null","","","","Images/WhiteBeadChoice.png","","null"
"image-button-response","103","240172","0.0-13.0-2.14","25","Low_HMMActual","","","","","","null","","","","Images/WhiteBeadChoiceWrong.png","","null"
"image-button-response","104","241732","0.0-13.0-0.15","25","Low_HMMActual","","","","","","1558.489999966696","","","","Images/NewTrialBC.png","","2"
"image-button-response","105","242044","0.0-13.0-1.15","25","Low_HMMActual","","","","","","null","","","","Images/WhiteBeadChoice.png","","null"
"image-button-response","106","242550","0.0-13.0-2.15","25","Low_HMMActual","","","","","","null","","","","Images/WhiteBeadChoiceCorrect.png","","null"
"image-button-response","107","242963","0.0-13.0-0.16","25","Low_HMMActual","","","","","","410.7699999585748","","","","Images/NewTrialWC.png","","2"
"image-button-response","108","243266","0.0-13.0-1.16","25","Low_HMMActual","","","","","","null","","","","Images/WhiteBeadChoice.png","","null"
"image-button-response","109","243774","0.0-13.0-2.16","25","Low_HMMActual","","","","","","null","","","","Images/WhiteBeadChoiceCorrect.png","","null"
"image-button-response","110","244240","0.0-13.0-0.17","25","Low_HMMActual","","","","","","464.63000000221655","","","","Images/NewTrialWC.png","","2"
"image-button-response","111","244553","0.0-13.0-1.17","25","Low_HMMActual","","","","","","null","","","","Images/WhiteBeadChoice.png","","null"
"image-button-response","112","245058","0.0-13.0-2.17","25","Low_HMMActual","","","","","","null","","","","Images/WhiteBeadChoiceCorrect.png","","null"
"image-button-response","113","245511","0.0-13.0-0.18","25","Low_HMMActual","","","","","","451.2850000173785","","","","Images/NewTrialWC.png","","2"
"image-button-response","114","245816","0.0-13.0-1.18","25","Low_HMMActual","","","","","","null","","","","Images/WhiteBeadChoice.png","","null"
"image-button-response","115","246323","0.0-13.0-2.18","25","Low_HMMActual","","","","","","null","","","","Images/WhiteBeadChoiceCorrect.png","","null"
"image-button-response","116","246821","0.0-13.0-0.19","25","Low_HMMActual","","","","","","496.0500000161119","","","","Images/NewTrialWC.png","","2"
"image-button-response","117","247122","0.0-13.0-1.19","25","Low_HMMActual","","","","","","null","","","","Images/WhiteBeadChoice.png","","null"
"image-button-response","118","247639","0.0-13.0-2.19","25","Low_HMMActual","","","","","","null","","","","Images/WhiteBeadChoiceCorrect.png","","null"
"image-button-response","119","248086","0.0-13.0-0.20","25","Low_HMMActual","","","","","","445.43500000145286","","","","Images/NewTrialWC.png","","2"
"image-button-response","120","248388","0.0-13.0-1.20","25","Low_HMMActual","","","","","","null","","","","Images/WhiteBeadChoice.png","","null"
"image-button-response","121","248891","0.0-13.0-2.20","25","Low_HMMActual","","","","","","null","","","","Images/WhiteBeadChoiceCorrect.png","","null"
"image-button-response","122","249318","0.0-13.0-0.21","25","Low_HMMActual","","","","","","424.82999997446314","","","","Images/NewTrialWC.png","","2"
"image-button-response","123","249624","0.0-13.0-1.21","25","Low_HMMActual","","","","","","null","","","","Images/WhiteBeadChoice.png","","null"
"image-button-response","124","250133","0.0-13.0-2.21","25","Low_HMMActual","","","","","","null","","","","Images/WhiteBeadChoiceCorrect.png","","null"
"image-button-response","125","250511","0.0-13.0-0.22","25","Low_HMMActual","","","","","","369.42500004079193","","","","Images/NewTrialWC.png","","2"
"image-button-response","126","250816","0.0-13.0-1.22","25","Low_HMMActual","","","","","","null","","","","Images/WhiteBeadChoice.png","","null"
"image-button-response","127","251324","0.0-13.0-2.22","25","Low_HMMActual","","","","","","null","","","","Images/WhiteBeadChoiceCorrect.png","","null"
"image-button-response","128","251670","0.0-13.0-0.23","25","Low_HMMActual","","","","","","344.745000009425","","","","Images/NewTrialWC.png","","2"
"image-button-response","129","251972","0.0-13.0-1.23","25","Low_HMMActual","","","","","","null","","","","Images/WhiteBeadChoice.png","","null"
"image-button-response","130","252482","0.0-13.0-2.23","25","Low_HMMActual","","","","","","null","","","","Images/WhiteBeadChoiceCorrect.png","","null"
"image-button-response","131","252793","0.0-13.0-0.24","25","Low_HMMActual","","","","","","309.2799999867566","","","","Images/NewTrialWC.png","","2"
"image-button-response","132","253100","0.0-13.0-1.24","25","Low_HMMActual","","","","","","null","","","","Images/WhiteBeadChoice.png","","null"
"image-button-response","133","253608","0.0-13.0-2.24","25","Low_HMMActual","","","","","","null","","","","Images/WhiteBeadChoiceCorrect.png","","null"
"image-button-response","134","253972","0.0-13.0-0.25","25","Low_HMMActual","","","","","","362.3599999700673","","","","Images/NewTrialWC.png","","2"
"image-button-response","135","254281","0.0-13.0-1.25","25","Low_HMMActual","","","","","","null","","","","Images/WhiteBeadChoice.png","","null"
"image-button-response","136","254798","0.0-13.0-2.25","25","Low_HMMActual","","","","","","null","","","","Images/WhiteBeadChoiceCorrect.png","","null"
"image-button-response","137","255165","0.0-13.0-0.26","25","Low_HMMActual","","","","","","365.41999998735264","","","","Images/NewTrialWC.png","","2"
"image-button-response","138","255478","0.0-13.0-1.26","25","Low_HMMActual","","","","","","null","","","","Images/WhiteBeadChoice.png","","null"
"image-button-response","139","255980","0.0-13.0-2.26","25","Low_HMMActual","","","","","","null","","","","Images/WhiteBeadChoiceCorrect.png","","null"
"image-button-response","140","256571","0.0-13.0-0.27","25","Low_HMMActual","","","","","","589.7699999623001","","","","Images/NewTrialWC.png","","2"
"image-button-response","141","256874","0.0-13.0-1.27","25","Low_HMMActual","","","","","","null","","","","Images/WhiteBeadChoice.png","","null"
"image-button-response","142","257377","0.0-13.0-2.27","25","Low_HMMActual","","","","","","null","","","","Images/WhiteBeadChoiceCorrect.png","","null"
"image-button-response","143","257782","0.0-13.0-0.28","25","Low_HMMActual","","","","","","403.44500000355765","","","","Images/NewTrialWC.png","","2"
"image-button-response","144","258089","0.0-13.0-1.28","25","Low_HMMActual","","","","","","null","","","","Images/WhiteBeadChoice.png","","null"
"image-button-response","145","258591","0.0-13.0-2.28","25","Low_HMMActual","","","","","","null","","","","Images/WhiteBeadChoiceCorrect.png","","null"
"image-button-response","146","258974","0.0-13.0-0.29","25","Low_HMMActual","","","","","","381.2350000371225","","","","Images/NewTrialWC.png","","2"
"image-button-response","147","259280","0.0-13.0-1.29","25","Low_HMMActual","","","","","","null","","","","Images/WhiteBeadChoice.png","","null"
"image-button-response","148","259784","0.0-13.0-2.29","25","Low_HMMActual","","","","","","null","","","","Images/WhiteBeadChoiceCorrect.png","","null"
"image-button-response","149","260204","0.0-13.0-0.30","25","Low_HMMActual","","","","","","418.7699999893084","","","","Images/NewTrialWC.png","","2"
"image-button-response","150","260509","0.0-13.0-1.30","25","Low_HMMActual","","","","","","null","","","","Images/WhiteBeadChoice.png","","null"
"image-button-response","151","261013","0.0-13.0-2.30","25","Low_HMMActual","","","","","","null","","","","Images/WhiteBeadChoiceWrong.png","","null"
"image-button-response","152","261963","0.0-13.0-0.31","25","Low_HMMActual","","","","","","949.2450000252575","","","","Images/NewTrialBC.png","","2"
"image-button-response","153","262271","0.0-13.0-1.31","25","Low_HMMActual","","","","","","null","","","","Images/WhiteBeadChoice.png","","null"
"image-button-response","154","262777","0.0-13.0-2.31","25","Low_HMMActual","","","","","","null","","","","Images/WhiteBeadChoiceCorrect.png","","null"
"image-button-response","155","263210","0.0-13.0-0.32","25","Low_HMMActual","","","","","","431.235000025481","","","","Images/NewTrialWC.png","","2"
"image-button-response","156","263518","0.0-13.0-1.32","25","Low_HMMActual","","","","","","null","","","","Images/WhiteBeadChoice.png","","null"
"image-button-response","157","264020","0.0-13.0-2.32","25","Low_HMMActual","","","","","","null","","","","Images/WhiteBeadChoiceCorrect.png","","null"
"image-button-response","158","264399","0.0-13.0-0.33","25","Low_HMMActual","","","","","","378.0150000238791","","","","Images/NewTrialWC.png","","2"
"image-button-response","159","264708","0.0-13.0-1.33","25","Low_HMMActual","","","","","","null","","","","Images/WhiteBeadChoice.png","","null"
"image-button-response","160","265212","0.0-13.0-2.33","25","Low_HMMActual","","","","","","null","","","","Images/WhiteBeadChoiceWrong.png","","null"
"image-button-response","161","265877","0.0-13.0-0.34","25","Low_HMMActual","","","","","","664.0149999875575","","","","Images/NewTrialBC.png","","2"
"image-button-response","162","266179","0.0-13.0-1.34","25","Low_HMMActual","","","","","","null","","","","Images/WhiteBeadChoice.png","","null"
"image-button-response","163","266681","0.0-13.0-2.34","25","Low_HMMActual","","","","","","null","","","","Images/WhiteBeadChoiceWrong.png","","null"
"image-button-response","164","267247","0.0-13.0-0.35","25","Low_HMMActual","","","","","","564.3999999738298","","","","Images/NewTrialBC.png","","2"
"image-button-response","165","267555","0.0-13.0-1.35","25","Low_HMMActual","","","","","","null","","","","Images/WhiteBeadChoice.png","","null"
"image-button-response","166","268058","0.0-13.0-2.35","25","Low_HMMActual","","","","","","null","","","","Images/WhiteBeadChoiceWrong.png","","null"
"image-button-response","167","268512","0.0-13.0-0.36","25","Low_HMMActual","","","","","","453.0099999974482","","","","Images/NewTrialBC.png","","0"
"image-button-response","168","268816","0.0-13.0-1.36","25","Low_HMMActual","","","","","","null","","","","Images/BlackBeadChoice.png","","null"
"image-button-response","169","269322","0.0-13.0-2.36","25","Low_HMMActual","","","","","","null","","","","Images/BlackBeadChoiceCorrect.png","","null"
"image-button-response","170","269905","0.0-13.0-0.37","25","Low_HMMActual","","","","","","581.4299999619834","","","","Images/NewTrialBC.png","","0"
"image-button-response","171","270220","0.0-13.0-1.37","25","Low_HMMActual","","","","","","null","","","","Images/BlackBeadChoice.png","","null"
"image-button-response","172","270724","0.0-13.0-2.37","25","Low_HMMActual","","","","","","null","","","","Images/BlackBeadChoiceCorrect.png","","null"
"image-button-response","173","271165","0.0-13.0-0.38","25","Low_HMMActual","","","","","","439.4099999917671","","","","Images/NewTrialBC.png","","0"
"image-button-response","174","271470","0.0-13.0-1.38","25","Low_HMMActual","","","","","","null","","","","Images/BlackBeadChoice.png","","null"
"image-button-response","175","271977","0.0-13.0-2.38","25","Low_HMMActual","","","","","","null","","","","Images/BlackBeadChoiceCorrect.png","","null"
"image-button-response","176","272348","0.0-13.0-0.39","25","Low_HMMActual","","","","","","368.62500000279397","","","","Images/NewTrialBC.png","","0"
"image-button-response","177","272660","0.0-13.0-1.39","25","Low_HMMActual","","","","","","null","","","","Images/BlackBeadChoice.png","","null"
"image-button-response","178","273167","0.0-13.0-2.39","25","Low_HMMActual","","","","","","null","","","","Images/BlackBeadChoiceCorrect.png","","null"
"image-button-response","179","273563","0.0-13.0-0.40","25","Low_HMMActual","","","","","","394.83999996446073","","","","Images/NewTrialBC.png","","0"
"image-button-response","180","273876","0.0-13.0-1.40","25","Low_HMMActual","","","","","","null","","","","Images/BlackBeadChoice.png","","null"
"image-button-response","181","274386","0.0-13.0-2.40","25","Low_HMMActual","","","","","","null","","","","Images/BlackBeadChoiceCorrect.png","","null"
"image-button-response","182","274726","0.0-13.0-0.41","25","Low_HMMActual","","","","","","338.0699999979697","","","","Images/NewTrialBC.png","","0"
"image-button-response","183","275034","0.0-13.0-1.41","25","Low_HMMActual","","","","","","null","","","","Images/BlackBeadChoice.png","","null"
"image-button-response","184","275544","0.0-13.0-2.41","25","Low_HMMActual","","","","","","null","","","","Images/BlackBeadChoiceCorrect.png","","null"
"image-button-response","185","275920","0.0-13.0-0.42","25","Low_HMMActual","","","","","","374.49499999638647","","","","Images/NewTrialBC.png","","0"
"image-button-response","186","276239","0.0-13.0-1.42","25","Low_HMMActual","","","","","","null","","","","Images/BlackBeadChoice.png","","null"
"image-button-response","187","276745","0.0-13.0-2.42","25","Low_HMMActual","","","","","","null","","","","Images/BlackBeadChoiceCorrect.png","","null"
"image-button-response","188","277204","0.0-13.0-0.43","25","Low_HMMActual","","","","","","457.2299999999814","","","","Images/NewTrialBC.png","","0"
"image-button-response","189","277521","0.0-13.0-1.43","25","Low_HMMActual","","","","","","null","","","","Images/BlackBeadChoice.png","","null"
"image-button-response","190","278024","0.0-13.0-2.43","25","Low_HMMActual","","","","","","null","","","","Images/BlackBeadChoiceCorrect.png","","null"
"image-button-response","191","278551","0.0-13.0-0.44","25","Low_HMMActual","","","","","","525.8449999964796","","","","Images/NewTrialBC.png","","0"
"image-button-response","192","278859","0.0-13.0-1.44","25","Low_HMMActual","","","","","","null","","","","Images/BlackBeadChoice.png","","null"
"image-button-response","193","279367","0.0-13.0-2.44","25","Low_HMMActual","","","","","","null","","","","Images/BlackBeadChoiceCorrect.png","","null"
"image-button-response","194","279960","0.0-13.0-0.45","25","Low_HMMActual","","","","","","591.6899999720044","","","","Images/NewTrialBC.png","","0"
"image-button-response","195","280267","0.0-13.0-1.45","25","Low_HMMActual","","","","","","null","","","","Images/BlackBeadChoice.png","","null"
"image-button-response","196","280772","0.0-13.0-2.45","25","Low_HMMActual","","","","","","null","","","","Images/BlackBeadChoiceCorrect.png","","null"
"image-button-response","197","281326","0.0-13.0-0.46","25","Low_HMMActual","","","","","","552.2350000101142","","","","Images/NewTrialBC.png","","0"
"image-button-response","198","281628","0.0-13.0-1.46","25","Low_HMMActual","","","","","","null","","","","Images/BlackBeadChoice.png","","null"
"image-button-response","199","282145","0.0-13.0-2.46","25","Low_HMMActual","","","","","","null","","","","Images/BlackBeadChoiceCorrect.png","","null"
"image-button-response","200","282617","0.0-13.0-0.47","25","Low_HMMActual","","","","","","470.9249999723397","","","","Images/NewTrialBC.png","","0"
"image-button-response","201","282921","0.0-13.0-1.47","25","Low_HMMActual","","","","","","null","","","","Images/BlackBeadChoice.png","","null"
"image-button-response","202","283424","0.0-13.0-2.47","25","Low_HMMActual","","","","","","null","","","","Images/BlackBeadChoiceWrong.png","","null"
"image-button-response","203","284106","0.0-13.0-0.48","25","Low_HMMActual","","","","","","681.0849999892525","","","","Images/NewTrialWC.png","","0"
"image-button-response","204","284422","0.0-13.0-1.48","25","Low_HMMActual","","","","","","null","","","","Images/BlackBeadChoice.png","","null"
"image-button-response","205","284925","0.0-13.0-2.48","25","Low_HMMActual","","","","","","null","","","","Images/BlackBeadChoiceCorrect.png","","null"
"image-button-response","206","285434","0.0-13.0-0.49","25","Low_HMMActual","","","","","","507.82999995863065","","","","Images/NewTrialBC.png","","0"
"image-button-response","207","285745","0.0-13.0-1.49","25","Low_HMMActual","","","","","","null","","","","Images/BlackBeadChoice.png","","null"
"image-button-response","208","286252","0.0-13.0-2.49","25","Low_HMMActual","","","","","","null","","","","Images/BlackBeadChoiceWrong.png","","null"
"image-button-response","209","286795","0.0-13.0-0.50","25","Low_HMMActual","","","","","","541.8449999997392","","","","Images/NewTrialWC.png","","0"
"image-button-response","210","287110","0.0-13.0-1.50","25","Low_HMMActual","","","","","","null","","","","Images/BlackBeadChoice.png","","null"
"image-button-response","211","287619","0.0-13.0-2.50","25","Low_HMMActual","","","","","","null","","","","Images/BlackBeadChoiceCorrect.png","","null"
"image-button-response","212","288241","0.0-13.0-0.51","25","Low_HMMActual","","","","","","620.5750000081025","","","","Images/NewTrialBC.png","","0"
"image-button-response","213","288553","0.0-13.0-1.51","25","Low_HMMActual","","","","","","null","","","","Images/BlackBeadChoice.png","","null"
"image-button-response","214","289061","0.0-13.0-2.51","25","Low_HMMActual","","","","","","null","","","","Images/BlackBeadChoiceWrong.png","","null"
"image-button-response","215","289507","0.0-13.0-0.52","25","Low_HMMActual","","","","","","443.6499999719672","","","","Images/NewTrialWC.png","","0"
"image-button-response","216","289823","0.0-13.0-1.52","25","Low_HMMActual","","","","","","null","","","","Images/BlackBeadChoice.png","","null"
"image-button-response","217","290332","0.0-13.0-2.52","25","Low_HMMActual","","","","","","null","","","","Images/BlackBeadChoiceCorrect.png","","null"
"image-button-response","218","290918","0.0-13.0-0.53","25","Low_HMMActual","","","","","","576.935000019148","","","","Images/NewTrialBC.png","","0"
"image-button-response","219","291221","0.0-13.0-1.53","25","Low_HMMActual","","","","","","null","","","","Images/BlackBeadChoice.png","","null"
"image-button-response","220","291728","0.0-13.0-2.53","25","Low_HMMActual","","","","","","null","","","","Images/BlackBeadChoiceWrong.png","","null"
"image-button-response","221","292421","0.0-13.0-0.54","25","Low_HMMActual","","","","","","691.6049999999814","","","","Images/NewTrialWC.png","","0"
"image-button-response","222","292723","0.0-13.0-1.54","25","Low_HMMActual","","","","","","null","","","","Images/BlackBeadChoice.png","","null"
"image-button-response","223","293226","0.0-13.0-2.54","25","Low_HMMActual","","","","","","null","","","","Images/BlackBeadChoiceWrong.png","","null"
"image-button-response","224","293719","0.0-13.0-0.55","25","Low_HMMActual","","","","","","490.6850000261329","","","","Images/NewTrialWC.png","","2"
"image-button-response","225","294023","0.0-13.0-1.55","25","Low_HMMActual","","","","","","null","","","","Images/WhiteBeadChoice.png","","null"
"image-button-response","226","294528","0.0-13.0-2.55","25","Low_HMMActual","","","","","","null","","","","Images/WhiteBeadChoiceCorrect.png","","null"
"image-button-response","227","295106","0.0-13.0-0.56","25","Low_HMMActual","","","","","","577.0500000216998","","","","Images/NewTrialWC.png","","2"
"image-button-response","228","295413","0.0-13.0-1.56","25","Low_HMMActual","","","","","","null","","","","Images/WhiteBeadChoice.png","","null"
"image-button-response","229","295922","0.0-13.0-2.56","25","Low_HMMActual","","","","","","null","","","","Images/WhiteBeadChoiceWrong.png","","null"
"image-button-response","230","297086","0.0-13.0-0.57","25","Low_HMMActual","","","","","","1162.8750000381842","","","","Images/NewTrialBC.png","","2"
"image-button-response","231","297388","0.0-13.0-1.57","25","Low_HMMActual","","","","","","null","","","","Images/WhiteBeadChoice.png","","null"
"image-button-response","232","297890","0.0-13.0-2.57","25","Low_HMMActual","","","","","","null","","","","Images/WhiteBeadChoiceCorrect.png","","null"
"image-button-response","233","298426","0.0-13.0-0.58","25","Low_HMMActual","","","","","","534.5699999597855","","","","Images/NewTrialWC.png","","2"
"image-button-response","234","298732","0.0-13.0-1.58","25","Low_HMMActual","","","","","","null","","","","Images/WhiteBeadChoice.png","","null"
"image-button-response","235","299240","0.0-13.0-2.58","25","Low_HMMActual","","","","","","null","","","","Images/WhiteBeadChoiceCorrect.png","","null"
"image-button-response","236","299798","0.0-13.0-0.59","25","Low_HMMActual","","","","","","556.6349999862723","","","","Images/NewTrialWC.png","","2"
"image-button-response","237","300111","0.0-13.0-1.59","25","Low_HMMActual","","","","","","null","","","","Images/WhiteBeadChoice.png","","null"
"image-button-response","238","300619","0.0-13.0-2.59","25","Low_HMMActual","","","","","","null","","","","Images/WhiteBeadChoiceCorrect.png","","null"
"image-button-response","239","301046","0.0-13.0-0.60","25","Low_HMMActual","","","","","","425.8299999637529","","","","Images/NewTrialWC.png","","2"
"image-button-response","240","301350","0.0-13.0-1.60","25","Low_HMMActual","","","","","","null","","","","Images/WhiteBeadChoice.png","","null"
"image-button-response","241","301858","0.0-13.0-2.60","25","Low_HMMActual","","","","","","null","","","","Images/WhiteBeadChoiceCorrect.png","","null"
"image-button-response","242","302278","0.0-13.0-0.61","25","Low_HMMActual","","","","","","418.4699999750592","","","","Images/NewTrialWC.png","","2"
"image-button-response","243","302585","0.0-13.0-1.61","25","Low_HMMActual","","","","","","null","","","","Images/WhiteBeadChoice.png","","null"
"image-button-response","244","303090","0.0-13.0-2.61","25","Low_HMMActual","","","","","","null","","","","Images/WhiteBeadChoiceCorrect.png","","null"
"image-button-response","245","303478","0.0-13.0-0.62","25","Low_HMMActual","","","","","","386.15000003483146","","","","Images/NewTrialWC.png","","2"
"image-button-response","246","303787","0.0-13.0-1.62","25","Low_HMMActual","","","","","","null","","","","Images/WhiteBeadChoice.png","","null"
"image-button-response","247","304294","0.0-13.0-2.62","25","Low_HMMActual","","","","","","null","","","","Images/WhiteBeadChoiceCorrect.png","","null"
"image-button-response","248","304811","0.0-13.0-0.63","25","Low_HMMActual","","","","","","515.7800000160933","","","","Images/NewTrialWC.png","","2"
"image-button-response","249","305119","0.0-13.0-1.63","25","Low_HMMActual","","","","","","null","","","","Images/WhiteBeadChoice.png","","null"
"image-button-response","250","305628","0.0-13.0-2.63","25","Low_HMMActual","","","","","","null","","","","Images/WhiteBeadChoiceWrong.png","","null"
"image-button-response","251","306495","0.0-13.0-0.64","25","Low_HMMActual","","","","","","865.9249999909662","","","","Images/NewTrialBC.png","","2"
"image-button-response","252","306797","0.0-13.0-1.64","25","Low_HMMActual","","","","","","null","","","","Images/WhiteBeadChoice.png","","null"
"image-button-response","253","307314","0.0-13.0-2.64","25","Low_HMMActual","","","","","","null","","","","Images/WhiteBeadChoiceCorrect.png","","null"
"image-button-response","254","308104","0.0-13.0-0.65","25","Low_HMMActual","","","","","","788.4900000062771","","","","Images/NewTrialWC.png","","2"
"image-button-response","255","308406","0.0-13.0-1.65","25","Low_HMMActual","","","","","","null","","","","Images/WhiteBeadChoice.png","","null"
"image-button-response","256","308916","0.0-13.0-2.65","25","Low_HMMActual","","","","","","null","","","","Images/WhiteBeadChoiceCorrect.png","","null"
"image-button-response","257","309536","0.0-13.0-0.66","25","Low_HMMActual","","","","","","618.7250000075437","","","","Images/NewTrialWC.png","","2"
"image-button-response","258","309848","0.0-13.0-1.66","25","Low_HMMActual","","","","","","null","","","","Images/WhiteBeadChoice.png","","null"
"image-button-response","259","310355","0.0-13.0-2.66","25","Low_HMMActual","","","","","","null","","","","Images/WhiteBeadChoiceCorrect.png","","null"
"image-button-response","260","310906","0.0-13.0-0.67","25","Low_HMMActual","","","","","","547.3050000146031","","","","Images/NewTrialWC.png","","2"
"image-button-response","261","311227","0.0-13.0-1.67","25","Low_HMMActual","","","","","","null","","","","Images/WhiteBeadChoice.png","","null"
"image-button-response","262","311731","0.0-13.0-2.67","25","Low_HMMActual","","","","","","null","","","","Images/WhiteBeadChoiceCorrect.png","","null"
"image-button-response","263","312150","0.0-13.0-0.68","25","Low_HMMActual","","","","","","417.2600000165403","","","","Images/NewTrialWC.png","","2"
"image-button-response","264","312461","0.0-13.0-1.68","25","Low_HMMActual","","","","","","null","","","","Images/WhiteBeadChoice.png","","null"
"image-button-response","265","312970","0.0-13.0-2.68","25","Low_HMMActual","","","","","","null","","","","Images/WhiteBeadChoiceCorrect.png","","null"
"image-button-response","266","313564","0.0-13.0-0.69","25","Low_HMMActual","","","","","","592.6300000282936","","","","Images/NewTrialWC.png","","2"
"image-button-response","267","313876","0.0-13.0-1.69","25","Low_HMMActual","","","","","","null","","","","Images/WhiteBeadChoice.png","","null"
"image-button-response","268","314382","0.0-13.0-2.69","25","Low_HMMActual","","","","","","null","","","","Images/WhiteBeadChoiceCorrect.png","","null"
"image-button-response","269","314816","0.0-13.0-0.70","25","Low_HMMActual","","","","","","425.4400000208989","","","","Images/NewTrialWC.png","","2"
"image-button-response","270","315122","0.0-13.0-1.70","25","Low_HMMActual","","","","","","null","","","","Images/WhiteBeadChoice.png","","null"
"image-button-response","271","315624","0.0-13.0-2.70","25","Low_HMMActual","","","","","","null","","","","Images/WhiteBeadChoiceCorrect.png","","null"
"image-button-response","272","316067","0.0-13.0-0.71","25","Low_HMMActual","","","","","","439.70500002615154","","","","Images/NewTrialWC.png","","2"
"image-button-response","273","316382","0.0-13.0-1.71","25","Low_HMMActual","","","","","","null","","","","Images/WhiteBeadChoice.png","","null"
"image-button-response","274","316886","0.0-13.0-2.71","25","Low_HMMActual","","","","","","null","","","","Images/WhiteBeadChoiceCorrect.png","","null"
"image-button-response","275","317265","0.0-13.0-0.72","25","Low_HMMActual","","","","","","377.05500004813075","","","","Images/NewTrialWC.png","","2"
"image-button-response","276","317572","0.0-13.0-1.72","25","Low_HMMActual","","","","","","null","","","","Images/WhiteBeadChoice.png","","null"
"image-button-response","277","318080","0.0-13.0-2.72","25","Low_HMMActual","","","","","","null","","","","Images/WhiteBeadChoiceCorrect.png","","null"
"image-button-response","278","318440","0.0-13.0-0.73","25","Low_HMMActual","","","","","","358.2549999700859","","","","Images/NewTrialWC.png","","2"
"image-button-response","279","318743","0.0-13.0-1.73","25","Low_HMMActual","","","","","","null","","","","Images/WhiteBeadChoice.png","","null"
"image-button-response","280","319265","0.0-13.0-2.73","25","Low_HMMActual","","","","","","null","","","","Images/WhiteBeadChoiceCorrect.png","","null"
"image-button-response","281","319624","0.0-13.0-0.74","25","Low_HMMActual","","","","","","357.49500000383705","","","","Images/NewTrialWC.png","","2"
"image-button-response","282","319930","0.0-13.0-1.74","25","Low_HMMActual","","","","","","null","","","","Images/WhiteBeadChoice.png","","null"
"image-button-response","283","320436","0.0-13.0-2.74","25","Low_HMMActual","","","","","","null","","","","Images/WhiteBeadChoiceCorrect.png","","null"
"image-button-response","284","320828","0.0-13.0-0.75","25","Low_HMMActual","","","","","","390.1499999919906","","","","Images/NewTrialWC.png","","2"
"image-button-response","285","321139","0.0-13.0-1.75","25","Low_HMMActual","","","","","","null","","","","Images/WhiteBeadChoice.png","","null"
"image-button-response","286","321647","0.0-13.0-2.75","25","Low_HMMActual","","","","","","null","","","","Images/WhiteBeadChoiceCorrect.png","","null"
"image-button-response","287","322024","0.0-13.0-0.76","25","Low_HMMActual","","","","","","374.805000028573","","","","Images/NewTrialWC.png","","2"
"image-button-response","288","322329","0.0-13.0-1.76","25","Low_HMMActual","","","","","","null","","","","Images/WhiteBeadChoice.png","","null"
"image-button-response","289","322838","0.0-13.0-2.76","25","Low_HMMActual","","","","","","null","","","","Images/WhiteBeadChoiceCorrect.png","","null"
"image-button-response","290","323210","0.0-13.0-0.77","25","Low_HMMActual","","","","","","370.69000001065433","","","","Images/NewTrialWC.png","","2"
"image-button-response","291","323512","0.0-13.0-1.77","25","Low_HMMActual","","","","","","null","","","","Images/WhiteBeadChoice.png","","null"
"image-button-response","292","324014","0.0-13.0-2.77","25","Low_HMMActual","","","","","","null","","","","Images/WhiteBeadChoiceCorrect.png","","null"
"image-button-response","293","324374","0.0-13.0-0.78","25","Low_HMMActual","","","","","","358.3700000308454","","","","Images/NewTrialWC.png","","2"
"image-button-response","294","324681","0.0-13.0-1.78","25","Low_HMMActual","","","","","","null","","","","Images/WhiteBeadChoice.png","","null"
"image-button-response","295","325188","0.0-13.0-2.78","25","Low_HMMActual","","","","","","null","","","","Images/WhiteBeadChoiceCorrect.png","","null"
"image-button-response","296","325691","0.0-13.0-0.79","25","Low_HMMActual","","","","","","500.9200000204146","","","","Images/NewTrialWC.png","","2"
"image-button-response","297","325998","0.0-13.0-1.79","25","Low_HMMActual","","","","","","null","","","","Images/WhiteBeadChoice.png","","null"
"image-button-response","298","326507","0.0-13.0-2.79","25","Low_HMMActual","","","","","","null","","","","Images/WhiteBeadChoiceCorrect.png","","null"
"image-button-response","299","326909","0.0-13.0-0.80","25","Low_HMMActual","","","","","","401.00999997230247","","","","Images/NewTrialWC.png","","2"
"image-button-response","300","327219","0.0-13.0-1.80","25","Low_HMMActual","","","","","","null","","","","Images/WhiteBeadChoice.png","","null"
"image-button-response","301","327729","0.0-13.0-2.80","25","Low_HMMActual","","","","","","null","","","","Images/WhiteBeadChoiceCorrect.png","","null"
"image-button-response","302","328093","0.0-13.0-0.81","25","Low_HMMActual","","","","","","362.4899999704212","","","","Images/NewTrialWC.png","","2"
"image-button-response","303","328395","0.0-13.0-1.81","25","Low_HMMActual","","","","","","null","","","","Images/WhiteBeadChoice.png","","null"
"image-button-response","304","328898","0.0-13.0-2.81","25","Low_HMMActual","","","","","","null","","","","Images/WhiteBeadChoiceCorrect.png","","null"
"image-button-response","305","329260","0.0-13.0-0.82","25","Low_HMMActual","","","","","","360.1550000021234","","","","Images/NewTrialWC.png","","2"
"image-button-response","306","329563","0.0-13.0-1.82","25","Low_HMMActual","","","","","","null","","","","Images/WhiteBeadChoice.png","","null"
"image-button-response","307","330069","0.0-13.0-2.82","25","Low_HMMActual","","","","","","null","","","","Images/WhiteBeadChoiceCorrect.png","","null"
"image-button-response","308","330468","0.0-13.0-0.83","25","Low_HMMActual","","","","","","396.99499995913357","","","","Images/NewTrialWC.png","","2"
"image-button-response","309","330781","0.0-13.0-1.83","25","Low_HMMActual","","","","","","null","","","","Images/WhiteBeadChoice.png","","null"
"image-button-response","310","331289","0.0-13.0-2.83","25","Low_HMMActual","","","","","","null","","","","Images/WhiteBeadChoiceCorrect.png","","null"
"image-button-response","311","331606","0.0-13.0-0.84","25","Low_HMMActual","","","","","","307.25999997230247","","","","Images/NewTrialWC.png","","2"
"image-button-response","312","331908","0.0-13.0-1.84","25","Low_HMMActual","","","","","","null","","","","Images/WhiteBeadChoice.png","","null"
"image-button-response","313","332416","0.0-13.0-2.84","25","Low_HMMActual","","","","","","null","","","","Images/WhiteBeadChoiceCorrect.png","","null"
"image-button-response","314","332917","0.0-13.0-0.85","25","Low_HMMActual","","","","","","499.3900000117719","","","","Images/NewTrialWC.png","","2"
"image-button-response","315","333228","0.0-13.0-1.85","25","Low_HMMActual","","","","","","null","","","","Images/WhiteBeadChoice.png","","null"
"image-button-response","316","333737","0.0-13.0-2.85","25","Low_HMMActual","","","","","","null","","","","Images/WhiteBeadChoiceCorrect.png","","null"
"image-button-response","317","334129","0.0-13.0-0.86","25","Low_HMMActual","","","","","","389.9500000406988","","","","Images/NewTrialWC.png","","2"
"image-button-response","318","334435","0.0-13.0-1.86","25","Low_HMMActual","","","","","","null","","","","Images/WhiteBeadChoice.png","","null"
"image-button-response","319","334941","0.0-13.0-2.86","25","Low_HMMActual","","","","","","null","","","","Images/WhiteBeadChoiceCorrect.png","","null"
"image-button-response","320","335318","0.0-13.0-0.87","25","Low_HMMActual","","","","","","375.04499999340624","","","","Images/NewTrialWC.png","","2"
"image-button-response","321","335628","0.0-13.0-1.87","25","Low_HMMActual","","","","","","null","","","","Images/WhiteBeadChoice.png","","null"
"image-button-response","322","336130","0.0-13.0-2.87","25","Low_HMMActual","","","","","","null","","","","Images/WhiteBeadChoiceWrong.png","","null"
"image-button-response","323","336837","0.0-13.0-0.88","25","Low_HMMActual","","","","","","705.5099999997765","","","","Images/NewTrialBC.png","","2"
"image-button-response","324","337144","0.0-13.0-1.88","25","Low_HMMActual","","","","","","null","","","","Images/WhiteBeadChoice.png","","null"
"image-button-response","325","337648","0.0-13.0-2.88","25","Low_HMMActual","","","","","","null","","","","Images/WhiteBeadChoiceCorrect.png","","null"
"image-button-response","326","338347","0.0-13.0-0.89","25","Low_HMMActual","","","","","","697.4000000045635","","","","Images/NewTrialWC.png","","2"
"image-button-response","327","338659","0.0-13.0-1.89","25","Low_HMMActual","","","","","","null","","","","Images/WhiteBeadChoice.png","","null"
"image-button-response","328","339165","0.0-13.0-2.89","25","Low_HMMActual","","","","","","null","","","","Images/WhiteBeadChoiceWrong.png","","null"
"image-button-response","329","339879","0.0-13.0-0.90","25","Low_HMMActual","","","","","","712.0700000086799","","","","Images/NewTrialBC.png","","0"
"image-button-response","330","340195","0.0-13.0-1.90","25","Low_HMMActual","","","","","","null","","","","Images/BlackBeadChoice.png","","null"
"image-button-response","331","340700","0.0-13.0-2.90","25","Low_HMMActual","","","","","","null","","","","Images/BlackBeadChoiceCorrect.png","","null"
"image-button-response","332","341086","0.0-13.0-0.91","25","Low_HMMActual","","","","","","384.72000003093854","","","","Images/NewTrialBC.png","","0"
"image-button-response","333","341396","0.0-13.0-1.91","25","Low_HMMActual","","","","","","null","","","","Images/BlackBeadChoice.png","","null"
"image-button-response","334","341911","0.0-13.0-2.91","25","Low_HMMActual","","","","","","null","","","","Images/BlackBeadChoiceWrong.png","","null"
"image-button-response","335","342461","0.0-13.0-0.92","25","Low_HMMActual","","","","","","548.1649999856018","","","","Images/NewTrialWC.png","","0"
"image-button-response","336","342763","0.0-13.0-1.92","25","Low_HMMActual","","","","","","null","","","","Images/BlackBeadChoice.png","","null"
"image-button-response","337","343276","0.0-13.0-2.92","25","Low_HMMActual","","","","","","null","","","","Images/BlackBeadChoiceWrong.png","","null"
"image-button-response","338","343964","0.0-13.0-0.93","25","Low_HMMActual","","","","","","685.7900000177324","","","","Images/NewTrialWC.png","","2"
"image-button-response","339","344274","0.0-13.0-1.93","25","Low_HMMActual","","","","","","null","","","","Images/WhiteBeadChoice.png","","null"
"image-button-response","340","344782","0.0-13.0-2.93","25","Low_HMMActual","","","","","","null","","","","Images/WhiteBeadChoiceCorrect.png","","null"
"image-button-response","341","345266","0.0-13.0-0.94","25","Low_HMMActual","","","","","","482.75500000454485","","","","Images/NewTrialWC.png","","2"
"image-button-response","342","345571","0.0-13.0-1.94","25","Low_HMMActual","","","","","","null","","","","Images/WhiteBeadChoice.png","","null"
"image-button-response","343","346076","0.0-13.0-2.94","25","Low_HMMActual","","","","","","null","","","","Images/WhiteBeadChoiceWrong.png","","null"
"image-button-response","344","346807","0.0-13.0-0.95","25","Low_HMMActual","","","","","","729.8350000055507","","","","Images/NewTrialBC.png","","2"
"image-button-response","345","347119","0.0-13.0-1.95","25","Low_HMMActual","","","","","","null","","","","Images/WhiteBeadChoice.png","","null"
"image-button-response","346","347627","0.0-13.0-2.95","25","Low_HMMActual","","","","","","null","","","","Images/WhiteBeadChoiceCorrect.png","","null"
"image-button-response","347","348266","0.0-13.0-0.96","25","Low_HMMActual","","","","","","637.1700000017881","","","","Images/NewTrialWC.png","","2"
"image-button-response","348","348576","0.0-13.0-1.96","25","Low_HMMActual","","","","","","null","","","","Images/WhiteBeadChoice.png","","null"
"image-button-response","349","349099","0.0-13.0-2.96","25","Low_HMMActual","","","","","","null","","","","Images/WhiteBeadChoiceCorrect.png","","null"
"image-button-response","350","349760","0.0-13.0-0.97","25","Low_HMMActual","","","","","","659.6949999802746","","","","Images/NewTrialWC.png","","2"
"image-button-response","351","350062","0.0-13.0-1.97","25","Low_HMMActual","","","","","","null","","","","Images/WhiteBeadChoice.png","","null"
"image-button-response","352","350565","0.0-13.0-2.97","25","Low_HMMActual","","","","","","null","","","","Images/WhiteBeadChoiceWrong.png","","null"
"image-button-response","353","353093","0.0-13.0-0.98","25","Low_HMMActual","","","","","","2526.7450000392273","","","","Images/NewTrialBC.png","","1"
"image-button-response","354","353410","0.0-13.0-1.98","25","Low_HMMActual","","","","","","null","","","","Images/BlackBeadChoice.png","","null"
"image-button-response","355","353918","0.0-13.0-2.98","25","Low_HMMActual","","","","","","null","","","","Images/BlackBeadChoiceWrong.png","","null"
"image-button-response","356","355847","0.0-13.0-0.99","25","Low_HMMActual","","","","","","1926.534999976866","","","","Images/NewTrialWC.png","","2"
"image-button-response","357","356164","0.0-13.0-1.99","25","Low_HMMActual","","","","","","null","","","","Images/WhiteBeadChoice.png","","null"
"image-button-response","358","356673","0.0-13.0-2.99","25","Low_HMMActual","","","","","","null","","","","Images/WhiteBeadChoiceWrong.png","","null"
"image-button-response","359","357522","0.0-13.0-0.100","25","Low_HMMActual","","","","","","847.1049999934621","","","","Images/NewTrialBC.png","","2"
"image-button-response","360","357832","0.0-13.0-1.100","25","Low_HMMActual","","","","","","null","","","","Images/WhiteBeadChoice.png","","null"
"image-button-response","361","358334","0.0-13.0-2.100","25","Low_HMMActual","","","","","","null","","","","Images/WhiteBeadChoiceWrong.png","","null"
"image-button-response","362","359028","0.0-13.0-0.101","25","Low_HMMActual","","","","","","691.4850000175647","","","","Images/NewTrialBC.png","","0"
"image-button-response","363","359336","0.0-13.0-1.101","25","Low_HMMActual","","","","","","null","","","","Images/BlackBeadChoice.png","","null"
"image-button-response","364","359845","0.0-13.0-2.101","25","Low_HMMActual","","","","","","null","","","","Images/BlackBeadChoiceWrong.png","","null"
"image-button-response","365","361007","0.0-13.0-0.102","25","Low_HMMActual","","","","","","1160.4550000047311","","","","Images/NewTrialWC.png","","0"
"image-button-response","366","361322","0.0-13.0-1.102","25","Low_HMMActual","","","","","","null","","","","Images/BlackBeadChoice.png","","null"
"image-button-response","367","361839","0.0-13.0-2.102","25","Low_HMMActual","","","","","","null","","","","Images/BlackBeadChoiceWrong.png","","null"
"image-button-response","368","362299","0.0-13.0-0.103","25","Low_HMMActual","","","","","","458.8000000221655","","","","Images/NewTrialWC.png","","2"
"image-button-response","369","362616","0.0-13.0-1.103","25","Low_HMMActual","","","","","","null","","","","Images/WhiteBeadChoice.png","","null"
"image-button-response","370","363118","0.0-13.0-2.103","25","Low_HMMActual","","","","","","null","","","","Images/WhiteBeadChoiceCorrect.png","","null"
"image-button-response","371","363975","0.0-13.0-0.104","25","Low_HMMActual","","","","","","855.634999985341","","","","Images/NewTrialWC.png","","2"
"image-button-response","372","364278","0.0-13.0-1.104","25","Low_HMMActual","","","","","","null","","","","Images/WhiteBeadChoice.png","","null"
"image-button-response","373","364785","0.0-13.0-2.104","25","Low_HMMActual","","","","","","null","","","","Images/WhiteBeadChoiceCorrect.png","","null"
"image-button-response","374","365149","0.0-13.0-0.105","25","Low_HMMActual","","","","","","362.03000001842156","","","","Images/NewTrialWC.png","","2"
"image-button-response","375","365466","0.0-13.0-1.105","25","Low_HMMActual","","","","","","null","","","","Images/WhiteBeadChoice.png","","null"
"image-button-response","376","365971","0.0-13.0-2.105","25","Low_HMMActual","","","","","","null","","","","Images/WhiteBeadChoiceWrong.png","","null"
"image-button-response","377","367687","0.0-13.0-0.106","25","Low_HMMActual","","","","","","1714.8250000318512","","","","Images/NewTrialBC.png","","1"
"image-button-response","378","367989","0.0-13.0-1.106","25","Low_HMMActual","","","","","","null","","","","Images/BlackBeadChoice.png","","null"
"image-button-response","379","368491","0.0-13.0-2.106","25","Low_HMMActual","","","","","","null","","","","Images/BlackBeadChoiceWrong.png","","null"
"image-button-response","380","368850","0.0-13.0-0.107","25","Low_HMMActual","","","","","","356.2450000317767","","","","Images/NewTrialWC.png","","2"
"image-button-response","381","369162","0.0-13.0-1.107","25","Low_HMMActual","","","","","","null","","","","Images/WhiteBeadChoice.png","","null"
"image-button-response","382","369673","0.0-13.0-2.107","25","Low_HMMActual","","","","","","null","","","","Images/WhiteBeadChoiceCorrect.png","","null"
"image-button-response","383","370020","0.0-13.0-0.108","25","Low_HMMActual","","","","","","345.705000043381","","","","Images/NewTrialWC.png","","2"
"image-button-response","384","370326","0.0-13.0-1.108","25","Low_HMMActual","","","","","","null","","","","Images/WhiteBeadChoice.png","","null"
"image-button-response","385","370835","0.0-13.0-2.108","25","Low_HMMActual","","","","","","null","","","","Images/WhiteBeadChoiceWrong.png","","null"
"image-button-response","386","371592","0.0-13.0-0.109","25","Low_HMMActual","","","","","","756.2250000191852","","","","Images/NewTrialBC.png","","1"
"image-button-response","387","371894","0.0-13.0-1.109","25","Low_HMMActual","","","","","","null","","","","Images/BlackBeadChoice.png","","null"
"image-button-response","388","372396","0.0-13.0-2.109","25","Low_HMMActual","","","","","","null","","","","Images/BlackBeadChoiceWrong.png","","null"
"image-button-response","389","372841","0.0-13.0-0.110","25","Low_HMMActual","","","","","","443.55499994708225","","","","Images/NewTrialWC.png","","2"
"image-button-response","390","373144","0.0-13.0-1.110","25","Low_HMMActual","","","","","","null","","","","Images/WhiteBeadChoice.png","","null"
"image-button-response","391","373651","0.0-13.0-2.110","25","Low_HMMActual","","","","","","null","","","","Images/WhiteBeadChoiceCorrect.png","","null"
"image-button-response","392","374163","0.0-13.0-0.111","25","Low_HMMActual","","","","","","503.27999994624406","","","","Images/NewTrialWC.png","","2"
"image-button-response","393","374474","0.0-13.0-1.111","25","Low_HMMActual","","","","","","null","","","","Images/WhiteBeadChoice.png","","null"
"image-button-response","394","374980","0.0-13.0-2.111","25","Low_HMMActual","","","","","","null","","","","Images/WhiteBeadChoiceCorrect.png","","null"
"image-button-response","395","375441","0.0-13.0-0.112","25","Low_HMMActual","","","","","","459.160000027623","","","","Images/NewTrialWC.png","","2"
"image-button-response","396","375755","0.0-13.0-1.112","25","Low_HMMActual","","","","","","null","","","","Images/WhiteBeadChoice.png","","null"
"image-button-response","397","376262","0.0-13.0-2.112","25","Low_HMMActual","","","","","","null","","","","Images/WhiteBeadChoiceCorrect.png","","null"
"image-button-response","398","376653","0.0-13.0-0.113","25","Low_HMMActual","","","","","","388.3549999445677","","","","Images/NewTrialWC.png","","2"
"image-button-response","399","376959","0.0-13.0-1.113","25","Low_HMMActual","","","","","","null","","","","Images/WhiteBeadChoice.png","","null"
"image-button-response","400","377463","0.0-13.0-2.113","25","Low_HMMActual","","","","","","null","","","","Images/WhiteBeadChoiceCorrect.png","","null"
"image-button-response","401","377862","0.0-13.0-0.114","25","Low_HMMActual","","","","","","396.550000004936","","","","Images/NewTrialWC.png","","2"
"image-button-response","402","378177","0.0-13.0-1.114","25","Low_HMMActual","","","","","","null","","","","Images/WhiteBeadChoice.png","","null"
"image-button-response","403","378686","0.0-13.0-2.114","25","Low_HMMActual","","","","","","null","","","","Images/WhiteBeadChoiceWrong.png","","null"
"image-button-response","404","380936","0.0-13.0-0.115","25","Low_HMMActual","","","","","","2249.2199999978766","","","","Images/NewTrialBC.png","","3"
"image-button-response","405","381238","0.0-13.0-1.115","25","Low_HMMActual","","","","","","null","","","","Images/WhiteBeadChoice.png","","null"
"image-button-response","406","381745","0.0-13.0-2.115","25","Low_HMMActual","","","","","","null","","","","Images/WhiteBeadChoiceCorrect.png","","null"
"image-button-response","407","382218","0.0-13.0-0.116","25","Low_HMMActual","","","","","","471.42000001622364","","","","Images/NewTrialWC.png","","2"
"image-button-response","408","382524","0.0-13.0-1.116","25","Low_HMMActual","","","","","","null","","","","Images/WhiteBeadChoice.png","","null"
"image-button-response","409","383031","0.0-13.0-2.116","25","Low_HMMActual","","","","","","null","","","","Images/WhiteBeadChoiceCorrect.png","","null"
"image-button-response","410","383644","0.0-13.0-0.117","25","Low_HMMActual","","","","","","611.0950000002049","","","","Images/NewTrialWC.png","","2"
"image-button-response","411","383950","0.0-13.0-1.117","25","Low_HMMActual","","","","","","null","","","","Images/WhiteBeadChoice.png","","null"
"image-button-response","412","384467","0.0-13.0-2.117","25","Low_HMMActual","","","","","","null","","","","Images/WhiteBeadChoiceCorrect.png","","null"
"image-button-response","413","384896","0.0-13.0-0.118","25","Low_HMMActual","","","","","","427.96000000089407","","","","Images/NewTrialWC.png","","2"
"image-button-response","414","385198","0.0-13.0-1.118","25","Low_HMMActual","","","","","","null","","","","Images/WhiteBeadChoice.png","","null"
"image-button-response","415","385702","0.0-13.0-2.118","25","Low_HMMActual","","","","","","null","","","","Images/WhiteBeadChoiceCorrect.png","","null"
"image-button-response","416","386090","0.0-13.0-0.119","25","Low_HMMActual","","","","","","385.695000004489","","","","Images/NewTrialWC.png","","2"
"image-button-response","417","386391","0.0-13.0-1.119","25","Low_HMMActual","","","","","","null","","","","Images/WhiteBeadChoice.png","","null"
"image-button-response","418","386906","0.0-13.0-2.119","25","Low_HMMActual","","","","","","null","","","","Images/WhiteBeadChoiceCorrect.png","","null"
"image-button-response","419","387297","0.0-13.0-0.120","25","Low_HMMActual","","","","","","387.7900000079535","","","","Images/NewTrialWC.png","","2"
"image-button-response","420","387604","0.0-13.0-1.120","25","Low_HMMActual","","","","","","null","","","","Images/WhiteBeadChoice.png","","null"
"image-button-response","421","388110","0.0-13.0-2.120","25","Low_HMMActual","","","","","","null","","","","Images/WhiteBeadChoiceCorrect.png","","null"
"image-button-response","422","388478","0.0-13.0-0.121","25","Low_HMMActual","","","","","","367.06999997841194","","","","Images/NewTrialWC.png","","2"
"image-button-response","423","388795","0.0-13.0-1.121","25","Low_HMMActual","","","","","","null","","","","Images/WhiteBeadChoice.png","","null"
"image-button-response","424","389301","0.0-13.0-2.121","25","Low_HMMActual","","","","","","null","","","","Images/WhiteBeadChoiceCorrect.png","","null"
"image-button-response","425","389792","0.0-13.0-0.122","25","Low_HMMActual","","","","","","489.68999995850027","","","","Images/NewTrialWC.png","","2"
"image-button-response","426","390107","0.0-13.0-1.122","25","Low_HMMActual","","","","","","null","","","","Images/WhiteBeadChoice.png","","null"
"image-button-response","427","390615","0.0-13.0-2.122","25","Low_HMMActual","","","","","","null","","","","Images/WhiteBeadChoiceCorrect.png","","null"
"image-button-response","428","391193","0.0-13.0-0.123","25","Low_HMMActual","","","","","","576.4750000089407","","","","Images/NewTrialWC.png","","2"
"image-button-response","429","391506","0.0-13.0-1.123","25","Low_HMMActual","","","","","","null","","","","Images/WhiteBeadChoice.png","","null"
"image-button-response","430","392013","0.0-13.0-2.123","25","Low_HMMActual","","","","","","null","","","","Images/WhiteBeadChoiceCorrect.png","","null"
"image-button-response","431","392431","0.0-13.0-0.124","25","Low_HMMActual","","","","","","417.10500000044703","","","","Images/NewTrialWC.png","","2"
"image-button-response","432","392744","0.0-13.0-1.124","25","Low_HMMActual","","","","","","null","","","","Images/WhiteBeadChoice.png","","null"
"image-button-response","433","393252","0.0-13.0-2.124","25","Low_HMMActual","","","","","","null","","","","Images/WhiteBeadChoiceCorrect.png","","null"
"image-button-response","434","393608","0.0-13.0-0.125","25","Low_HMMActual","","","","","","354.0350000257604","","","","Images/NewTrialWC.png","","2"
"image-button-response","435","393913","0.0-13.0-1.125","25","Low_HMMActual","","","","","","null","","","","Images/WhiteBeadChoice.png","","null"
"image-button-response","436","394419","0.0-13.0-2.125","25","Low_HMMActual","","","","","","null","","","","Images/WhiteBeadChoiceCorrect.png","","null"
"image-button-response","437","394737","0.0-13.0-0.126","25","Low_HMMActual","","","","","","315.30499999644235","","","","Images/NewTrialWC.png","","2"
"image-button-response","438","395039","0.0-13.0-1.126","25","Low_HMMActual","","","","","","null","","","","Images/WhiteBeadChoice.png","","null"
"image-button-response","439","395546","0.0-13.0-2.126","25","Low_HMMActual","","","","","","null","","","","Images/WhiteBeadChoiceWrong.png","","null"
"image-button-response","440","396513","0.0-13.0-0.127","25","Low_HMMActual","","","","","","965.654999949038","","","","Images/NewTrialBC.png","","3"
"image-button-response","441","396815","0.0-13.0-1.127","25","Low_HMMActual","","","","","","null","","","","Images/WhiteBeadChoice.png","","null"
"image-button-response","442","397317","0.0-13.0-2.127","25","Low_HMMActual","","","","","","null","","","","Images/WhiteBeadChoiceCorrect.png","","null"
"image-button-response","443","397673","0.0-13.0-0.128","25","Low_HMMActual","","","","","","353.7450000294484","","","","Images/NewTrialWC.png","","2"
"image-button-response","444","397985","0.0-13.0-1.128","25","Low_HMMActual","","","","","","null","","","","Images/WhiteBeadChoice.png","","null"
"image-button-response","445","398493","0.0-13.0-2.128","25","Low_HMMActual","","","","","","null","","","","Images/WhiteBeadChoiceCorrect.png","","null"
"image-button-response","446","399028","0.0-13.0-0.129","25","Low_HMMActual","","","","","","532.3050000006333","","","","Images/NewTrialWC.png","","2"
"image-button-response","447","399333","0.0-13.0-1.129","25","Low_HMMActual","","","","","","null","","","","Images/WhiteBeadChoice.png","","null"
"image-button-response","448","399840","0.0-13.0-2.129","25","Low_HMMActual","","","","","","null","","","","Images/WhiteBeadChoiceCorrect.png","","null"
"image-button-response","449","400227","0.0-13.0-0.130","25","Low_HMMActual","","","","","","378.88499995460734","","","","Images/NewTrialWC.png","","2"
"image-button-response","450","400540","0.0-13.0-1.130","25","Low_HMMActual","","","","","","null","","","","Images/WhiteBeadChoice.png","","null"
"image-button-response","451","401046","0.0-13.0-2.130","25","Low_HMMActual","","","","","","null","","","","Images/WhiteBeadChoiceCorrect.png","","null"
"image-button-response","452","401393","0.0-13.0-0.131","25","Low_HMMActual","","","","","","345.4700000002049","","","","Images/NewTrialWC.png","","2"
"image-button-response","453","401697","0.0-13.0-1.131","25","Low_HMMActual","","","","","","null","","","","Images/WhiteBeadChoice.png","","null"
"image-button-response","454","402206","0.0-13.0-2.131","25","Low_HMMActual","","","","","","null","","","","Images/WhiteBeadChoiceCorrect.png","","null"
"image-button-response","455","402573","0.0-13.0-0.132","25","Low_HMMActual","","","","","","365.784999972675","","","","Images/NewTrialWC.png","","2"
"image-button-response","456","402887","0.0-13.0-1.132","25","Low_HMMActual","","","","","","null","","","","Images/WhiteBeadChoice.png","","null"
"image-button-response","457","403394","0.0-13.0-2.132","25","Low_HMMActual","","","","","","null","","","","Images/WhiteBeadChoiceCorrect.png","","null"
"image-button-response","458","403729","0.0-13.0-0.133","25","Low_HMMActual","","","","","","333.04999995743856","","","","Images/NewTrialWC.png","","2"
"image-button-response","459","404046","0.0-13.0-1.133","25","Low_HMMActual","","","","","","null","","","","Images/WhiteBeadChoice.png","","null"
"image-button-response","460","404553","0.0-13.0-2.133","25","Low_HMMActual","","","","","","null","","","","Images/WhiteBeadChoiceCorrect.png","","null"
"image-button-response","461","404896","0.0-13.0-0.134","25","Low_HMMActual","","","","","","339.4650000263937","","","","Images/NewTrialWC.png","","2"
"image-button-response","462","405199","0.0-13.0-1.134","25","Low_HMMActual","","","","","","null","","","","Images/WhiteBeadChoice.png","","null"
"image-button-response","463","405708","0.0-13.0-2.134","25","Low_HMMActual","","","","","","null","","","","Images/WhiteBeadChoiceCorrect.png","","null"
"image-button-response","464","406166","0.0-13.0-0.135","25","Low_HMMActual","","","","","","457.17499998863786","","","","Images/NewTrialWC.png","","2"
"image-button-response","465","406470","0.0-13.0-1.135","25","Low_HMMActual","","","","","","null","","","","Images/WhiteBeadChoice.png","","null"
"image-button-response","466","406975","0.0-13.0-2.135","25","Low_HMMActual","","","","","","null","","","","Images/WhiteBeadChoiceCorrect.png","","null"
"image-button-response","467","407373","0.0-13.0-0.136","25","Low_HMMActual","","","","","","395.9099999628961","","","","Images/NewTrialWC.png","","2"
"image-button-response","468","407686","0.0-13.0-1.136","25","Low_HMMActual","","","","","","null","","","","Images/WhiteBeadChoice.png","","null"
"image-button-response","469","408195","0.0-13.0-2.136","25","Low_HMMActual","","","","","","null","","","","Images/WhiteBeadChoiceWrong.png","","null"
"image-button-response","470","408934","0.0-13.0-0.137","25","Low_HMMActual","","","","","","735.5950000346638","","","","Images/NewTrialBC.png","","3"
"image-button-response","471","409242","0.0-13.0-1.137","25","Low_HMMActual","","","","","","null","","","","Images/WhiteBeadChoice.png","","null"
"image-button-response","472","409744","0.0-13.0-2.137","25","Low_HMMActual","","","","","","null","","","","Images/WhiteBeadChoiceCorrect.png","","null"
"image-button-response","473","410250","0.0-13.0-0.138","25","Low_HMMActual","","","","","","504.31500002741814","","","","Images/NewTrialWC.png","","2"
"image-button-response","474","410557","0.0-13.0-1.138","25","Low_HMMActual","","","","","","null","","","","Images/WhiteBeadChoice.png","","null"
"image-button-response","475","411059","0.0-13.0-2.138","25","Low_HMMActual","","","","","","null","","","","Images/WhiteBeadChoiceCorrect.png","","null"
"image-button-response","476","411486","0.0-13.0-0.139","25","Low_HMMActual","","","","","","425.6300000124611","","","","Images/NewTrialWC.png","","2"
"image-button-response","477","411790","0.0-13.0-1.139","25","Low_HMMActual","","","","","","null","","","","Images/WhiteBeadChoice.png","","null"
"image-button-response","478","412296","0.0-13.0-2.139","25","Low_HMMActual","","","","","","null","","","","Images/WhiteBeadChoiceCorrect.png","","null"
"image-button-response","479","412747","0.0-13.0-0.140","25","Low_HMMActual","","","","","","449.46500001242384","","","","Images/NewTrialWC.png","","2"
"image-button-response","480","413049","0.0-13.0-1.140","25","Low_HMMActual","","","","","","null","","","","Images/WhiteBeadChoice.png","","null"
"image-button-response","481","413563","0.0-13.0-2.140","25","Low_HMMActual","","","","","","null","","","","Images/WhiteBeadChoiceCorrect.png","","null"
"image-button-response","482","414010","0.0-13.0-0.141","25","Low_HMMActual","","","","","","445.4050000058487","","","","Images/NewTrialWC.png","","2"
"image-button-response","483","414326","0.0-13.0-1.141","25","Low_HMMActual","","","","","","null","","","","Images/WhiteBeadChoice.png","","null"
"image-button-response","484","414833","0.0-13.0-2.141","25","Low_HMMActual","","","","","","null","","","","Images/WhiteBeadChoiceWrong.png","","null"
"image-button-response","485","415357","0.0-13.0-0.142","25","Low_HMMActual","","","","","","521.9349999679253","","","","Images/NewTrialBC.png","","3"
"image-button-response","486","415661","0.0-13.0-1.142","25","Low_HMMActual","","","","","","null","","","","Images/WhiteBeadChoice.png","","null"
"image-button-response","487","416163","0.0-13.0-2.142","25","Low_HMMActual","","","","","","null","","","","Images/WhiteBeadChoiceCorrect.png","","null"
"image-button-response","488","416593","0.0-13.0-0.143","25","Low_HMMActual","","","","","","428.3200000063516","","","","Images/NewTrialWC.png","","2"
"image-button-response","489","416906","0.0-13.0-1.143","25","Low_HMMActual","","","","","","null","","","","Images/WhiteBeadChoice.png","","null"
"image-button-response","490","417412","0.0-13.0-2.143","25","Low_HMMActual","","","","","","null","","","","Images/WhiteBeadChoiceCorrect.png","","null"
"image-button-response","491","417895","0.0-13.0-0.144","25","Low_HMMActual","","","","","","481.51000001234934","","","","Images/NewTrialWC.png","","2"
"image-button-response","492","418206","0.0-13.0-1.144","25","Low_HMMActual","","","","","","null","","","","Images/WhiteBeadChoice.png","","null"
"image-button-response","493","418714","0.0-13.0-2.144","25","Low_HMMActual","","","","","","null","","","","Images/WhiteBeadChoiceCorrect.png","","null"
"image-button-response","494","419096","0.0-13.0-0.145","25","Low_HMMActual","","","","","","381.0149999917485","","","","Images/NewTrialWC.png","","2"
"image-button-response","495","419408","0.0-13.0-1.145","25","Low_HMMActual","","","","","","null","","","","Images/WhiteBeadChoice.png","","null"
"image-button-response","496","419910","0.0-13.0-2.145","25","Low_HMMActual","","","","","","null","","","","Images/WhiteBeadChoiceWrong.png","","null"
"image-button-response","497","420412","0.0-13.0-0.146","25","Low_HMMActual","","","","","","499.7750000329688","","","","Images/NewTrialBC.png","","3"
"image-button-response","498","420724","0.0-13.0-1.146","25","Low_HMMActual","","","","","","null","","","","Images/WhiteBeadChoice.png","","null"
"image-button-response","499","421226","0.0-13.0-2.146","25","Low_HMMActual","","","","","","null","","","","Images/WhiteBeadChoiceWrong.png","","null"
"image-button-response","500","421936","0.0-13.0-0.147","25","Low_HMMActual","","","","","","708.649999985937","","","","Images/NewTrialBC.png","","0"
"image-button-response","501","422242","0.0-13.0-1.147","25","Low_HMMActual","","","","","","null","","","","Images/BlackBeadChoice.png","","null"
"image-button-response","502","422750","0.0-13.0-2.147","25","Low_HMMActual","","","","","","null","","","","Images/BlackBeadChoiceWrong.png","","null"
"image-button-response","503","423823","0.0-13.0-0.148","25","Low_HMMActual","","","","","","1071.5049999998882","","","","Images/NewTrialWC.png","","1"
"image-button-response","504","424125","0.0-13.0-1.148","25","Low_HMMActual","","","","","","null","","","","Images/BlackBeadChoice.png","","null"
"image-button-response","505","424628","0.0-13.0-2.148","25","Low_HMMActual","","","","","","null","","","","Images/BlackBeadChoiceWrong.png","","null"
"image-button-response","506","426284","0.0-13.0-0.149","25","Low_HMMActual","","","","","","1654.70999997342","","","","Images/NewTrialWC.png","","2"
"image-button-response","507","426589","0.0-13.0-1.149","25","Low_HMMActual","","","","","","null","","","","Images/WhiteBeadChoice.png","","null"
"image-button-response","508","427094","0.0-13.0-2.149","25","Low_HMMActual","","","","","","null","","","","Images/WhiteBeadChoiceCorrect.png","","null"
"image-button-response","509","427564","0.0-13.0-0.150","25","Low_HMMActual","","","","","","468.2899999897927","","","","Images/NewTrialWC.png","","2"
"image-button-response","510","427874","0.0-13.0-1.150","25","Low_HMMActual","","","","","","null","","","","Images/WhiteBeadChoice.png","","null"
"image-button-response","511","428377","0.0-13.0-2.150","25","Low_HMMActual","","","","","","null","","","","Images/WhiteBeadChoiceCorrect.png","","null"
"image-button-response","512","428918","0.0-13.0-0.151","25","Low_HMMActual","","","","","","538.6550000403076","","","","Images/NewTrialWC.png","","2"
"image-button-response","513","429233","0.0-13.0-1.151","25","Low_HMMActual","","","","","","null","","","","Images/WhiteBeadChoice.png","","null"
"image-button-response","514","429740","0.0-13.0-2.151","25","Low_HMMActual","","","","","","null","","","","Images/WhiteBeadChoiceWrong.png","","null"
"image-button-response","515","430392","0.0-13.0-0.152","25","Low_HMMActual","","","","","","649.3450000416487","","","","Images/NewTrialBC.png","","3"
"image-button-response","516","430707","0.0-13.0-1.152","25","Low_HMMActual","","","","","","null","","","","Images/WhiteBeadChoice.png","","null"
"image-button-response","517","431209","0.0-13.0-2.152","25","Low_HMMActual","","","","","","null","","","","Images/WhiteBeadChoiceCorrect.png","","null"
"image-button-response","518","431671","0.0-13.0-0.153","25","Low_HMMActual","","","","","","460.4549999930896","","","","Images/NewTrialWC.png","","2"
"image-button-response","519","431974","0.0-13.0-1.153","25","Low_HMMActual","","","","","","null","","","","Images/WhiteBeadChoice.png","","null"
"image-button-response","520","432484","0.0-13.0-2.153","25","Low_HMMActual","","","","","","null","","","","Images/WhiteBeadChoiceCorrect.png","","null"
"image-button-response","521","432946","0.0-13.0-0.154","25","Low_HMMActual","","","","","","460.8449999941513","","","","Images/NewTrialWC.png","","2"
"image-button-response","522","433264","0.0-13.0-1.154","25","Low_HMMActual","","","","","","null","","","","Images/WhiteBeadChoice.png","","null"
"image-button-response","523","433771","0.0-13.0-2.154","25","Low_HMMActual","","","","","","null","","","","Images/WhiteBeadChoiceCorrect.png","","null"
"image-button-response","524","434106","0.0-13.0-0.155","25","Low_HMMActual","","","","","","332.0299999904819","","","","Images/NewTrialWC.png","","2"
"image-button-response","525","434416","0.0-13.0-1.155","25","Low_HMMActual","","","","","","null","","","","Images/WhiteBeadChoice.png","","null"
"image-button-response","526","434923","0.0-13.0-2.155","25","Low_HMMActual","","","","","","null","","","","Images/WhiteBeadChoiceCorrect.png","","null"
"image-button-response","527","435348","0.0-13.0-0.156","25","Low_HMMActual","","","","","","422.38000000361353","","","","Images/NewTrialWC.png","","2"
"image-button-response","528","435670","0.0-13.0-1.156","25","Low_HMMActual","","","","","","null","","","","Images/WhiteBeadChoice.png","","null"
"image-button-response","529","436177","0.0-13.0-2.156","25","Low_HMMActual","","","","","","null","","","","Images/WhiteBeadChoiceWrong.png","","null"
"image-button-response","530","436687","0.0-13.0-0.157","25","Low_HMMActual","","","","","","508.35999997798353","","","","Images/NewTrialBC.png","","3"
"image-button-response","531","436989","0.0-13.0-1.157","25","Low_HMMActual","","","","","","null","","","","Images/WhiteBeadChoice.png","","null"
"image-button-response","532","437491","0.0-13.0-2.157","25","Low_HMMActual","","","","","","null","","","","Images/WhiteBeadChoiceCorrect.png","","null"
"image-button-response","533","438048","0.0-13.0-0.158","25","Low_HMMActual","","","","","","554.7399999923073","","","","Images/NewTrialWC.png","","2"
"image-button-response","534","438362","0.0-13.0-1.158","25","Low_HMMActual","","","","","","null","","","","Images/WhiteBeadChoice.png","","null"
"image-button-response","535","438873","0.0-13.0-2.158","25","Low_HMMActual","","","","","","null","","","","Images/WhiteBeadChoiceCorrect.png","","null"
"image-button-response","536","439238","0.0-13.0-0.159","25","Low_HMMActual","","","","","","362.6500000245869","","","","Images/NewTrialWC.png","","2"
"image-button-response","537","439540","0.0-13.0-1.159","25","Low_HMMActual","","","","","","null","","","","Images/WhiteBeadChoice.png","","null"
"image-button-response","538","440048","0.0-13.0-2.159","25","Low_HMMActual","","","","","","null","","","","Images/WhiteBeadChoiceCorrect.png","","null"
"image-button-response","539","440546","0.0-13.0-0.160","25","Low_HMMActual","","","","","","496.3650000281632","","","","Images/NewTrialWC.png","","2"
"image-button-response","540","440860","0.0-13.0-1.160","25","Low_HMMActual","","","","","","null","","","","Images/WhiteBeadChoice.png","","null"
"image-button-response","541","441367","0.0-13.0-2.160","25","Low_HMMActual","","","","","","null","","","","Images/WhiteBeadChoiceWrong.png","","null"
"image-button-response","542","441960","0.0-13.0-0.161","25","Low_HMMActual","","","","","","591.1600000108592","","","","Images/NewTrialBC.png","","3"
"image-button-response","543","442269","0.0-13.0-1.161","25","Low_HMMActual","","","","","","null","","","","Images/WhiteBeadChoice.png","","null"
"image-button-response","544","442771","0.0-13.0-2.161","25","Low_HMMActual","","","","","","null","","","","Images/WhiteBeadChoiceCorrect.png","","null"
"image-button-response","545","443251","0.0-13.0-0.162","25","Low_HMMActual","","","","","","476.1100000469014","","","","Images/NewTrialWC.png","","2"
"image-button-response","546","443553","0.0-13.0-1.162","25","Low_HMMActual","","","","","","null","","","","Images/WhiteBeadChoice.png","","null"
"image-button-response","547","444064","0.0-13.0-2.162","25","Low_HMMActual","","","","","","null","","","","Images/WhiteBeadChoiceCorrect.png","","null"
"image-button-response","548","444531","0.0-13.0-0.163","25","Low_HMMActual","","","","","","465.49500001128763","","","","Images/NewTrialWC.png","","2"
"image-button-response","549","444843","0.0-13.0-1.163","25","Low_HMMActual","","","","","","null","","","","Images/WhiteBeadChoice.png","","null"
"image-button-response","550","445350","0.0-13.0-2.163","25","Low_HMMActual","","","","","","null","","","","Images/WhiteBeadChoiceWrong.png","","null"
"image-button-response","551","445905","0.0-13.0-0.164","25","Low_HMMActual","","","","","","553.1550000305288","","","","Images/NewTrialBC.png","","3"
"image-button-response","552","446220","0.0-13.0-1.164","25","Low_HMMActual","","","","","","null","","","","Images/WhiteBeadChoice.png","","null"
"image-button-response","553","446722","0.0-13.0-2.164","25","Low_HMMActual","","","","","","null","","","","Images/WhiteBeadChoiceCorrect.png","","null"
"image-button-response","554","447175","0.0-13.0-0.165","25","Low_HMMActual","","","","","","448.35500000044703","","","","Images/NewTrialWC.png","","2"
"image-button-response","555","447482","0.0-13.0-1.165","25","Low_HMMActual","","","","","","null","","","","Images/WhiteBeadChoice.png","","null"
"image-button-response","556","447988","0.0-13.0-2.165","25","Low_HMMActual","","","","","","null","","","","Images/WhiteBeadChoiceCorrect.png","","null"
"image-button-response","557","448604","0.0-13.0-0.166","25","Low_HMMActual","","","","","","613.260000012815","","","","Images/NewTrialWC.png","","2"
"image-button-response","558","448926","0.0-13.0-1.166","25","Low_HMMActual","","","","","","null","","","","Images/WhiteBeadChoice.png","","null"
"image-button-response","559","449434","0.0-13.0-2.166","25","Low_HMMActual","","","","","","null","","","","Images/WhiteBeadChoiceCorrect.png","","null"
"image-button-response","560","449833","0.0-13.0-0.167","25","Low_HMMActual","","","","","","397.97500002896413","","","","Images/NewTrialWC.png","","2"
"image-button-response","561","450145","0.0-13.0-1.167","25","Low_HMMActual","","","","","","null","","","","Images/WhiteBeadChoice.png","","null"
"image-button-response","562","450654","0.0-13.0-2.167","25","Low_HMMActual","","","","","","null","","","","Images/WhiteBeadChoiceCorrect.png","","null"
"image-button-response","563","451059","0.0-13.0-0.168","25","Low_HMMActual","","","","","","401.3450000202283","","","","Images/NewTrialWC.png","","2"
"image-button-response","564","451369","0.0-13.0-1.168","25","Low_HMMActual","","","","","","null","","","","Images/WhiteBeadChoice.png","","null"
"image-button-response","565","451874","0.0-13.0-2.168","25","Low_HMMActual","","","","","","null","","","","Images/WhiteBeadChoiceCorrect.png","","null"
"image-button-response","566","452242","0.0-13.0-0.169","25","Low_HMMActual","","","","","","366.5650000330061","","","","Images/NewTrialWC.png","","2"
"image-button-response","567","452556","0.0-13.0-1.169","25","Low_HMMActual","","","","","","null","","","","Images/WhiteBeadChoice.png","","null"
"image-button-response","568","453061","0.0-13.0-2.169","25","Low_HMMActual","","","","","","null","","","","Images/WhiteBeadChoiceCorrect.png","","null"
"image-button-response","569","453402","0.0-13.0-0.170","25","Low_HMMActual","","","","","","332.77500001713634","","","","Images/NewTrialWC.png","","2"
"image-button-response","570","453714","0.0-13.0-1.170","25","Low_HMMActual","","","","","","null","","","","Images/WhiteBeadChoice.png","","null"
"image-button-response","571","454218","0.0-13.0-2.170","25","Low_HMMActual","","","","","","null","","","","Images/WhiteBeadChoiceCorrect.png","","null"
"image-button-response","572","454573","0.0-13.0-0.171","25","Low_HMMActual","","","","","","353.194999974221","","","","Images/NewTrialWC.png","","2"
"image-button-response","573","454885","0.0-13.0-1.171","25","Low_HMMActual","","","","","","null","","","","Images/WhiteBeadChoice.png","","null"
"image-button-response","574","455393","0.0-13.0-2.171","25","Low_HMMActual","","","","","","null","","","","Images/WhiteBeadChoiceCorrect.png","","null"
"image-button-response","575","455710","0.0-13.0-0.172","25","Low_HMMActual","","","","","","314.4150000298396","","","","Images/NewTrialWC.png","","2"
"image-button-response","576","456012","0.0-13.0-1.172","25","Low_HMMActual","","","","","","null","","","","Images/WhiteBeadChoice.png","","null"
"image-button-response","577","456523","0.0-13.0-2.172","25","Low_HMMActual","","","","","","null","","","","Images/WhiteBeadChoiceCorrect.png","","null"
"image-button-response","578","456849","0.0-13.0-0.173","25","Low_HMMActual","","","","","","323.5949999652803","","","","Images/NewTrialWC.png","","2"
"image-button-response","579","457156","0.0-13.0-1.173","25","Low_HMMActual","","","","","","null","","","","Images/WhiteBeadChoice.png","","null"
"image-button-response","580","457667","0.0-13.0-2.173","25","Low_HMMActual","","","","","","null","","","","Images/WhiteBeadChoiceCorrect.png","","null"
"image-button-response","581","458084","0.0-13.0-0.174","25","Low_HMMActual","","","","","","415.1549999951385","","","","Images/NewTrialWC.png","","2"
"image-button-response","582","458398","0.0-13.0-1.174","25","Low_HMMActual","","","","","","null","","","","Images/WhiteBeadChoice.png","","null"
"image-button-response","583","458905","0.0-13.0-2.174","25","Low_HMMActual","","","","","","null","","","","Images/WhiteBeadChoiceCorrect.png","","null"
"image-button-response","584","459272","0.0-13.0-0.175","25","Low_HMMActual","","","","","","363.5950000025332","","","","Images/NewTrialWC.png","","2"
"image-button-response","585","459574","0.0-13.0-1.175","25","Low_HMMActual","","","","","","null","","","","Images/WhiteBeadChoice.png","","null"
"image-button-response","586","460080","0.0-13.0-2.175","25","Low_HMMActual","","","","","","null","","","","Images/WhiteBeadChoiceCorrect.png","","null"
"image-button-response","587","460406","0.0-13.0-0.176","25","Low_HMMActual","","","","","","323.9750000066124","","","","Images/NewTrialWC.png","","2"
"image-button-response","588","460715","0.0-13.0-1.176","25","Low_HMMActual","","","","","","null","","","","Images/WhiteBeadChoice.png","","null"
"image-button-response","589","461224","0.0-13.0-2.176","25","Low_HMMActual","","","","","","null","","","","Images/WhiteBeadChoiceCorrect.png","","null"
"image-button-response","590","461582","0.0-13.0-0.177","25","Low_HMMActual","","","","","","355.7349999900907","","","","Images/NewTrialWC.png","","2"
"image-button-response","591","461905","0.0-13.0-1.177","25","Low_HMMActual","","","","","","null","","","","Images/WhiteBeadChoice.png","","null"
"image-button-response","592","462415","0.0-13.0-2.177","25","Low_HMMActual","","","","","","null","","","","Images/WhiteBeadChoiceCorrect.png","","null"
"image-button-response","593","462882","0.0-13.0-0.178","25","Low_HMMActual","","","","","","465.2850000420585","","","","Images/NewTrialWC.png","","2"
"image-button-response","594","463192","0.0-13.0-1.178","25","Low_HMMActual","","","","","","null","","","","Images/WhiteBeadChoice.png","","null"
"image-button-response","595","463696","0.0-13.0-2.178","25","Low_HMMActual","","","","","","null","","","","Images/WhiteBeadChoiceCorrect.png","","null"
"image-button-response","596","464147","0.0-13.0-0.179","25","Low_HMMActual","","","","","","448.40500003192574","","","","Images/NewTrialWC.png","","2"
"image-button-response","597","464455","0.0-13.0-1.179","25","Low_HMMActual","","","","","","null","","","","Images/WhiteBeadChoice.png","","null"
"image-button-response","598","464976","0.0-13.0-2.179","25","Low_HMMActual","","","","","","null","","","","Images/WhiteBeadChoiceCorrect.png","","null"
"image-button-response","599","465325","0.0-13.0-0.180","25","Low_HMMActual","","","","","","346.4699999894947","","","","Images/NewTrialWC.png","","2"
"image-button-response","600","465626","0.0-13.0-1.180","25","Low_HMMActual","","","","","","null","","","","Images/WhiteBeadChoice.png","","null"
"image-button-response","601","466128","0.0-13.0-2.180","25","Low_HMMActual","","","","","","null","","","","Images/WhiteBeadChoiceCorrect.png","","null"
"image-button-response","602","466468","0.0-13.0-0.181","25","Low_HMMActual","","","","","","336.1550000263378","","","","Images/NewTrialWC.png","","2"
"image-button-response","603","466783","0.0-13.0-1.181","25","Low_HMMActual","","","","","","null","","","","Images/WhiteBeadChoice.png","","null"
"image-button-response","604","467291","0.0-13.0-2.181","25","Low_HMMActual","","","","","","null","","","","Images/WhiteBeadChoiceCorrect.png","","null"
"image-button-response","605","467720","0.0-13.0-0.182","25","Low_HMMActual","","","","","","426.59499996807426","","","","Images/NewTrialWC.png","","2"
"image-button-response","606","468035","0.0-13.0-1.182","25","Low_HMMActual","","","","","","null","","","","Images/WhiteBeadChoice.png","","null"
"image-button-response","607","468543","0.0-13.0-2.182","25","Low_HMMActual","","","","","","null","","","","Images/WhiteBeadChoiceCorrect.png","","null"
"image-button-response","608","469117","0.0-13.0-0.183","25","Low_HMMActual","","","","","","571.6999999713153","","","","Images/NewTrialWC.png","","2"
"image-button-response","609","469430","0.0-13.0-1.183","25","Low_HMMActual","","","","","","null","","","","Images/WhiteBeadChoice.png","","null"
"image-button-response","610","469935","0.0-13.0-2.183","25","Low_HMMActual","","","","","","null","","","","Images/WhiteBeadChoiceCorrect.png","","null"
"image-button-response","611","470445","0.0-13.0-0.184","25","Low_HMMActual","","","","","","504.80999995488673","","","","Images/NewTrialWC.png","","2"
"image-button-response","612","470760","0.0-13.0-1.184","25","Low_HMMActual","","","","","","null","","","","Images/WhiteBeadChoice.png","","null"
"image-button-response","613","471265","0.0-13.0-2.184","25","Low_HMMActual","","","","","","null","","","","Images/WhiteBeadChoiceWrong.png","","null"
"image-button-response","614","473064","0.0-13.0-0.185","25","Low_HMMActual","","","","","","1797.6650000200607","","","","Images/NewTrialBC.png","","3"
"image-button-response","615","473365","0.0-13.0-1.185","25","Low_HMMActual","","","","","","null","","","","Images/WhiteBeadChoice.png","","null"
"image-button-response","616","473867","0.0-13.0-2.185","25","Low_HMMActual","","","","","","null","","","","Images/WhiteBeadChoiceCorrect.png","","null"
"image-button-response","617","474241","0.0-13.0-0.186","25","Low_HMMActual","","","","","","371.5700000175275","","","","Images/NewTrialWC.png","","2"
"image-button-response","618","474556","0.0-13.0-1.186","25","Low_HMMActual","","","","","","null","","","","Images/WhiteBeadChoice.png","","null"
"image-button-response","619","475064","0.0-13.0-2.186","25","Low_HMMActual","","","","","","null","","","","Images/WhiteBeadChoiceCorrect.png","","null"
"image-button-response","620","475458","0.0-13.0-0.187","25","Low_HMMActual","","","","","","392.070000001695","","","","Images/NewTrialWC.png","","2"
"image-button-response","621","475761","0.0-13.0-1.187","25","Low_HMMActual","","","","","","null","","","","Images/WhiteBeadChoice.png","","null"
"image-button-response","622","476267","0.0-13.0-2.187","25","Low_HMMActual","","","","","","null","","","","Images/WhiteBeadChoiceWrong.png","","null"
"image-button-response","623","476791","0.0-13.0-0.188","25","Low_HMMActual","","","","","","515.4899999615736","","","","Images/NewTrialBC.png","","3"
"image-button-response","624","477092","0.0-13.0-1.188","25","Low_HMMActual","","","","","","null","","","","Images/WhiteBeadChoice.png","","null"
"image-button-response","625","477594","0.0-13.0-2.188","25","Low_HMMActual","","","","","","null","","","","Images/WhiteBeadChoiceCorrect.png","","null"
"image-button-response","626","478109","0.0-13.0-0.189","25","Low_HMMActual","","","","","","512.784999969881","","","","Images/NewTrialWC.png","","2"
"image-button-response","627","478419","0.0-13.0-1.189","25","Low_HMMActual","","","","","","null","","","","Images/WhiteBeadChoice.png","","null"
"image-button-response","628","478922","0.0-13.0-2.189","25","Low_HMMActual","","","","","","null","","","","Images/WhiteBeadChoiceCorrect.png","","null"
"image-button-response","629","479327","0.0-13.0-0.190","25","Low_HMMActual","","","","","","402.5649999966845","","","","Images/NewTrialWC.png","","2"
"image-button-response","630","479652","0.0-13.0-1.190","25","Low_HMMActual","","","","","","null","","","","Images/WhiteBeadChoice.png","","null"
"image-button-response","631","480162","0.0-13.0-2.190","25","Low_HMMActual","","","","","","null","","","","Images/WhiteBeadChoiceCorrect.png","","null"
"image-button-response","632","480596","0.0-13.0-0.191","25","Low_HMMActual","","","","","","430.9699999867007","","","","Images/NewTrialWC.png","","2"
"image-button-response","633","480906","0.0-13.0-1.191","25","Low_HMMActual","","","","","","null","","","","Images/WhiteBeadChoice.png","","null"
"image-button-response","634","481411","0.0-13.0-2.191","25","Low_HMMActual","","","","","","null","","","","Images/WhiteBeadChoiceCorrect.png","","null"
"image-button-response","635","481977","0.0-13.0-0.192","25","Low_HMMActual","","","","","","562.355000001844","","","","Images/NewTrialWC.png","","2"
"image-button-response","636","482279","0.0-13.0-1.192","25","Low_HMMActual","","","","","","null","","","","Images/WhiteBeadChoice.png","","null"
"image-button-response","637","482785","0.0-13.0-2.192","25","Low_HMMActual","","","","","","null","","","","Images/WhiteBeadChoiceCorrect.png","","null"
"image-button-response","638","483430","0.0-13.0-0.193","25","Low_HMMActual","","","","","","643.5399999609217","","","","Images/NewTrialWC.png","","2"
"image-button-response","639","483737","0.0-13.0-1.193","25","Low_HMMActual","","","","","","null","","","","Images/WhiteBeadChoice.png","","null"
"image-button-response","640","484241","0.0-13.0-2.193","25","Low_HMMActual","","","","","","null","","","","Images/WhiteBeadChoiceCorrect.png","","null"
"image-button-response","641","484769","0.0-13.0-0.194","25","Low_HMMActual","","","","","","518.4400000143796","","","","Images/NewTrialWC.png","","2"
"image-button-response","642","485081","0.0-13.0-1.194","25","Low_HMMActual","","","","","","null","","","","Images/WhiteBeadChoice.png","","null"
"image-button-response","643","485589","0.0-13.0-2.194","25","Low_HMMActual","","","","","","null","","","","Images/WhiteBeadChoiceCorrect.png","","null"
"image-button-response","644","485968","0.0-13.0-0.195","25","Low_HMMActual","","","","","","376.09999999403954","","","","Images/NewTrialWC.png","","2"
"image-button-response","645","486271","0.0-13.0-1.195","25","Low_HMMActual","","","","","","null","","","","Images/WhiteBeadChoice.png","","null"
"image-button-response","646","486780","0.0-13.0-2.195","25","Low_HMMActual","","","","","","null","","","","Images/WhiteBeadChoiceWrong.png","","null"
"image-button-response","647","487396","0.0-13.0-0.196","25","Low_HMMActual","","","","","","614.4300000160001","","","","Images/NewTrialBC.png","","3"
"image-button-response","648","487697","0.0-13.0-1.196","25","Low_HMMActual","","","","","","null","","","","Images/WhiteBeadChoice.png","","null"
"image-button-response","649","488204","0.0-13.0-2.196","25","Low_HMMActual","","","","","","null","","","","Images/WhiteBeadChoiceCorrect.png","","null"
"image-button-response","650","488887","0.0-13.0-0.197","25","Low_HMMActual","","","","","","682.2849999880418","","","","Images/NewTrialWC.png","","2"
"image-button-response","651","489201","0.0-13.0-1.197","25","Low_HMMActual","","","","","","null","","","","Images/WhiteBeadChoice.png","","null"
"image-button-response","652","489708","0.0-13.0-2.197","25","Low_HMMActual","","","","","","null","","","","Images/WhiteBeadChoiceCorrect.png","","null"
"image-button-response","653","490180","0.0-13.0-0.198","25","Low_HMMActual","","","","","","470.8099999697879","","","","Images/NewTrialWC.png","","2"
"image-button-response","654","490484","0.0-13.0-1.198","25","Low_HMMActual","","","","","","null","","","","Images/WhiteBeadChoice.png","","null"
"image-button-response","655","490994","0.0-13.0-2.198","25","Low_HMMActual","","","","","","null","","","","Images/WhiteBeadChoiceCorrect.png","","null"
"image-button-response","656","491418","0.0-13.0-0.199","25","Low_HMMActual","","","","","","422.71499999333173","","","","Images/NewTrialWC.png","","2"
"image-button-response","657","491726","0.0-13.0-1.199","25","Low_HMMActual","","","","","","null","","","","Images/WhiteBeadChoice.png","","null"
"image-button-response","658","492249","0.0-13.0-2.199","25","Low_HMMActual","","","","","","null","","","","Images/WhiteBeadChoiceCorrect.png","","null"
"image-button-response","659","492665","0.0-13.0-0.200","25","Low_HMMActual","","","","","","413.27000001911074","","","","Images/NewTrialWC.png","","2"
"image-button-response","660","492979","0.0-13.0-1.200","25","Low_HMMActual","","","","","","null","","","","Images/WhiteBeadChoice.png","","null"
"image-button-response","661","493486","0.0-13.0-2.200","25","Low_HMMActual","","","","","","null","","","","Images/WhiteBeadChoiceCorrect.png","","null"
