"trial_type","trial_index","time_elapsed","internal_node_id","Script_Picker","Block_Type","success","timeout","failed_images","failed_audio","failed_video","rt","url","responses","question_order","stimulus","key_press","response"
"pavlovia","0","2","0.0-0.0","66","High_HMMActual","","","","","","","","","","","",""
"preload","1","4","0.0-1.0","66","High_HMMActual","true","false","[]","[]","[]","","","","","","",""
"external-html","2","15035","0.0-2.0-0.0","66","High_HMMActual","","","","","","14896.639999991748","consent.html","","","","",""
"survey-multi-choice","3","23671","0.0-2.0-1.0","66","High_HMMActual","","","","","","8629.799999995157","","{""Q0"":""Female"",""Q1"":""White""}","[0,1]","","",""
"survey-text","4","26856","0.0-2.0-2.0","66","High_HMMActual","","","","","","3177.5650000199676","","{""Q0"":""39""}","","","",""
"survey-text","5","32118","0.0-2.0-3.0","66","High_HMMActual","","","","","","5152.449999994133","","{""Q0"":""6027fd6deb80d22d739bab75""}","","","",""
"image-keyboard-response","6","42386","0.0-3.0-0.0","66","High_HMMActual","","","","","","10147.545000014361","","","","tutorial/tutorial1.png"," ",""
"image-keyboard-response","7","49039","0.0-3.0-0.1","66","High_HMMActual","","","","","","6651.904999976978","","","","tutorial/tutorial2.png"," ",""
"image-keyboard-response","8","51864","0.0-3.0-0.2","66","High_HMMActual","","","","","","2822.489999991376","","","","tutorial/tutorial3.png"," ",""
"image-keyboard-response","9","53045","0.0-3.0-0.3","66","High_HMMActual","","","","","","1180.2199999801815","","","","tutorial/tutorial4.png"," ",""
"image-keyboard-response","10","54360","0.0-3.0-0.4","66","High_HMMActual","","","","","","1313.6599999852479","","","","tutorial/tutorial5.png"," ",""
"image-keyboard-response","11","56525","0.0-3.0-0.5","66","High_HMMActual","","","","","","2163.605000008829","","","","tutorial/tutorial6.png"," ",""
"image-keyboard-response","12","59459","0.0-3.0-0.6","66","High_HMMActual","","","","","","2932.7049999847077","","","","tutorial/tutorial7.png"," ",""
"image-keyboard-response","13","70480","0.0-3.0-0.7","66","High_HMMActual","","","","","","11019.925000029616","","","","tutorial/tutorial8.png"," ",""
"image-keyboard-response","14","72563","0.0-3.0-0.8","66","High_HMMActual","","","","","","2081.4550000359304","","","","tutorial/tutorial9.png"," ",""
"image-keyboard-response","15","79538","0.0-3.0-0.9","66","High_HMMActual","","","","","","6974.054999998771","","","","tutorial/tutorial10.png"," ",""
"image-keyboard-response","16","82774","0.0-3.0-0.10","66","High_HMMActual","","","","","","3234.360000002198","","","","tutorial/tutorial11.png"," ",""
"image-keyboard-response","17","85618","0.0-3.0-0.11","66","High_HMMActual","","","","","","2842.9150000447407","","","","tutorial/tutorial12.png"," ",""
"image-keyboard-response","18","89609","0.0-3.0-0.12","66","High_HMMActual","","","","","","3989.9699999950826","","","","tutorial/tutorial13.png"," ",""
"image-keyboard-response","19","105764","0.0-3.0-0.13","66","High_HMMActual","","","","","","16153.264999971725","","","","tutorial/tutorial14.png"," ",""
"image-keyboard-response","20","107370","0.0-3.0-0.14","66","High_HMMActual","","","","","","1604.7200000029989","","","","tutorial/tutorial15.png"," ",""
"image-keyboard-response","21","112130","0.0-4.0","66","High_HMMActual","","","","","","4758.704999985639","","","","tutorial/tutorial16.png","arrowup",""
"image-keyboard-response","22","118797","0.0-5.0","66","High_HMMActual","","","","","","5347.71499998169","","","","tutorial/tutorial17.png","arrowright",""
"image-keyboard-response","23","124074","0.0-6.0","66","High_HMMActual","","","","","","4306.704999995418","","","","tutorial/tutorial18.png","arrowright",""
"image-keyboard-response","24","129106","0.0-7.0","66","High_HMMActual","","","","","","4215.48499999335","","","","tutorial/tutorial19.png"," ",""
"html-keyboard-response","25","131137","0.0-8.0","66","High_HMMActual","","","","","","2028.0149999889545","","","","<div class=""container"" style=""height:800px;width:800px;display:flex;flex-direction:column;justify-content:center;align-items:center;text-align:center;font-weight:normal;font-family:Arial;font-size:20px""><p>Loading episode&hellip;</p><div>"," ",""
"image-button-response","26","142202","0.0-9.0-0.0","66","High_HMMActual","","","","","","11059.46000001859","","","","Images/NoChoice.png","","1"
"image-button-response","27","142519","0.0-9.0-1.0","66","High_HMMActual","","","","","","null","","","","Images/BlackBeadChoice.png","","null"
"image-button-response","28","143030","0.0-9.0-2.0","66","High_HMMActual","","","","","","null","","","","Images/BlackBeadChoiceWrong.png","","null"
"image-button-response","29","151493","0.0-9.0-0.1","66","High_HMMActual","","","","","","8460.469999990892","","","","Images/NewTrialWC.png","","0"
"image-button-response","30","151806","0.0-9.0-1.1","66","High_HMMActual","","","","","","null","","","","Images/BlackBeadChoice.png","","null"
"image-button-response","31","152313","0.0-9.0-2.1","66","High_HMMActual","","","","","","null","","","","Images/BlackBeadChoiceCorrect.png","","null"
"image-button-response","32","158428","0.0-9.0-0.2","66","High_HMMActual","","","","","","6112.800000002608","","","","Images/NewTrialBC.png","","2"
"image-button-response","33","158734","0.0-9.0-1.2","66","High_HMMActual","","","","","","null","","","","Images/WhiteBeadChoice.png","","null"
"image-button-response","34","159238","0.0-9.0-2.2","66","High_HMMActual","","","","","","null","","","","Images/WhiteBeadChoiceCorrect.png","","null"
"image-button-response","35","161298","0.0-9.0-0.3","66","High_HMMActual","","","","","","2055.839999986347","","","","Images/NewTrialWC.png","","0"
"image-button-response","36","161624","0.0-9.0-1.3","66","High_HMMActual","","","","","","null","","","","Images/BlackBeadChoice.png","","null"
"image-button-response","37","162139","0.0-9.0-2.3","66","High_HMMActual","","","","","","null","","","","Images/BlackBeadChoiceWrong.png","","null"
"image-button-response","38","164561","0.0-9.0-0.4","66","High_HMMActual","","","","","","2419.8750000214204","","","","Images/NewTrialWC.png","","0"
"image-button-response","39","164876","0.0-9.0-1.4","66","High_HMMActual","","","","","","null","","","","Images/BlackBeadChoice.png","","null"
"image-button-response","40","165386","0.0-9.0-2.4","66","High_HMMActual","","","","","","null","","","","Images/BlackBeadChoiceWrong.png","","null"
"image-button-response","41","167740","0.0-9.0-0.5","66","High_HMMActual","","","","","","2349.694999982603","","","","Images/NewTrialWC.png","","0"
"image-button-response","42","168052","0.0-9.0-1.5","66","High_HMMActual","","","","","","null","","","","Images/BlackBeadChoice.png","","null"
"image-button-response","43","168569","0.0-9.0-2.5","66","High_HMMActual","","","","","","null","","","","Images/BlackBeadChoiceCorrect.png","","null"
"image-button-response","44","169323","0.0-9.0-0.6","66","High_HMMActual","","","","","","751.1250000097789","","","","Images/NewTrialBC.png","","2"
"image-button-response","45","169636","0.0-9.0-1.6","66","High_HMMActual","","","","","","null","","","","Images/WhiteBeadChoice.png","","null"
"image-button-response","46","170144","0.0-9.0-2.6","66","High_HMMActual","","","","","","null","","","","Images/WhiteBeadChoiceCorrect.png","","null"
"image-button-response","47","172386","0.0-9.0-0.7","66","High_HMMActual","","","","","","2238.3050000062212","","","","Images/NewTrialWC.png","","0"
"image-button-response","48","172697","0.0-9.0-1.7","66","High_HMMActual","","","","","","null","","","","Images/BlackBeadChoice.png","","null"
"image-button-response","49","173207","0.0-9.0-2.7","66","High_HMMActual","","","","","","null","","","","Images/BlackBeadChoiceCorrect.png","","null"
"image-button-response","50","174320","0.0-9.0-0.8","66","High_HMMActual","","","","","","1108.2850000238977","","","","Images/NewTrialBC.png","","2"
"image-button-response","51","174637","0.0-9.0-1.8","66","High_HMMActual","","","","","","null","","","","Images/WhiteBeadChoice.png","","null"
"image-button-response","52","175149","0.0-9.0-2.8","66","High_HMMActual","","","","","","null","","","","Images/WhiteBeadChoiceWrong.png","","null"
"image-button-response","53","176035","0.0-9.0-0.9","66","High_HMMActual","","","","","","882.3850000044331","","","","Images/NewTrialBC.png","","2"
"image-button-response","54","176337","0.0-9.0-1.9","66","High_HMMActual","","","","","","null","","","","Images/WhiteBeadChoice.png","","null"
"image-button-response","55","176852","0.0-9.0-2.9","66","High_HMMActual","","","","","","null","","","","Images/WhiteBeadChoiceWrong.png","","null"
"html-keyboard-response","56","179448","0.0-10.0","66","High_HMMActual","","","","","","2594.0649999538437","","","",""," ",""
"image-keyboard-response","57","182677","0.0-11.0","66","High_HMMActual","","","","","","3228.209999972023","","","","tutorial/tutorial20.png"," ",""
"html-keyboard-response","58","188311","0.0-12.0","66","High_HMMActual","","","","","","5631.834999949206","","","","<div class=""container"" style=""height:800px;width:800px;display:flex;flex-direction:column;justify-content:center;align-items:center;text-align:center;font-weight:normal;font-family:Arial;font-size:20px""><p>Loading episode&hellip;</p><div>"," ",""
"image-button-response","59","193137","0.0-13.0-0.0","66","High_HMMActual","","","","","","4822.809999983292","","","","Images/NoChoice.png","","3"
"image-button-response","60","193446","0.0-13.0-1.0","66","High_HMMActual","","","","","","null","","","","Images/WhiteBeadChoice.png","","null"
"image-button-response","61","193955","0.0-13.0-2.0","66","High_HMMActual","","","","","","null","","","","Images/WhiteBeadChoiceCorrect.png","","null"
"image-button-response","62","197952","0.0-13.0-0.1","66","High_HMMActual","","","","","","3994.539999985136","","","","Images/NewTrialWC.png","","0"
"image-button-response","63","198270","0.0-13.0-1.1","66","High_HMMActual","","","","","","null","","","","Images/BlackBeadChoice.png","","null"
"image-button-response","64","198783","0.0-13.0-2.1","66","High_HMMActual","","","","","","null","","","","Images/BlackBeadChoiceCorrect.png","","null"
"image-button-response","65","199624","0.0-13.0-0.2","66","High_HMMActual","","","","","","831.9400000036694","","","","Images/NewTrialBC.png","","2"
"image-button-response","66","199929","0.0-13.0-1.2","66","High_HMMActual","","","","","","null","","","","Images/WhiteBeadChoice.png","","null"
"image-button-response","67","200434","0.0-13.0-2.2","66","High_HMMActual","","","","","","null","","","","Images/WhiteBeadChoiceCorrect.png","","null"
"image-button-response","68","201465","0.0-13.0-0.3","66","High_HMMActual","","","","","","1027.1799999754876","","","","Images/NewTrialWC.png","","0"
"image-button-response","69","201777","0.0-13.0-1.3","66","High_HMMActual","","","","","","null","","","","Images/BlackBeadChoice.png","","null"
"image-button-response","70","202289","0.0-13.0-2.3","66","High_HMMActual","","","","","","null","","","","Images/BlackBeadChoiceWrong.png","","null"
"image-button-response","71","208136","0.0-13.0-0.4","66","High_HMMActual","","","","","","5843.255000014324","","","","Images/NewTrialWC.png","","0"
"image-button-response","72","208440","0.0-13.0-1.4","66","High_HMMActual","","","","","","null","","","","Images/BlackBeadChoice.png","","null"
"image-button-response","73","208954","0.0-13.0-2.4","66","High_HMMActual","","","","","","null","","","","Images/BlackBeadChoiceWrong.png","","null"
"image-button-response","74","209820","0.0-13.0-0.5","66","High_HMMActual","","","","","","855.9750000131316","","","","Images/NewTrialWC.png","","0"
"image-button-response","75","210134","0.0-13.0-1.5","66","High_HMMActual","","","","","","null","","","","Images/BlackBeadChoice.png","","null"
"image-button-response","76","210648","0.0-13.0-2.5","66","High_HMMActual","","","","","","null","","","","Images/BlackBeadChoiceCorrect.png","","null"
"image-button-response","77","211223","0.0-13.0-0.6","66","High_HMMActual","","","","","","570.4699999769218","","","","Images/NewTrialBC.png","","2"
"image-button-response","78","211526","0.0-13.0-1.6","66","High_HMMActual","","","","","","null","","","","Images/WhiteBeadChoice.png","","null"
"image-button-response","79","212043","0.0-13.0-2.6","66","High_HMMActual","","","","","","null","","","","Images/WhiteBeadChoiceCorrect.png","","null"
"image-button-response","80","212649","0.0-13.0-0.7","66","High_HMMActual","","","","","","601.6599999857135","","","","Images/NewTrialWC.png","","0"
"image-button-response","81","212953","0.0-13.0-1.7","66","High_HMMActual","","","","","","null","","","","Images/BlackBeadChoice.png","","null"
"image-button-response","82","213464","0.0-13.0-2.7","66","High_HMMActual","","","","","","null","","","","Images/BlackBeadChoiceCorrect.png","","null"
"image-button-response","83","213911","0.0-13.0-0.8","66","High_HMMActual","","","","","","443.0200000060722","","","","Images/NewTrialBC.png","","2"
"image-button-response","84","214219","0.0-13.0-1.8","66","High_HMMActual","","","","","","null","","","","Images/WhiteBeadChoice.png","","null"
"image-button-response","85","214734","0.0-13.0-2.8","66","High_HMMActual","","","","","","null","","","","Images/WhiteBeadChoiceWrong.png","","null"
"image-button-response","86","216068","0.0-13.0-0.9","66","High_HMMActual","","","","","","1329.3899999698624","","","","Images/NewTrialBC.png","","2"
"image-button-response","87","216381","0.0-13.0-1.9","66","High_HMMActual","","","","","","null","","","","Images/WhiteBeadChoice.png","","null"
"image-button-response","88","216888","0.0-13.0-2.9","66","High_HMMActual","","","","","","null","","","","Images/WhiteBeadChoiceWrong.png","","null"
"image-button-response","89","217505","0.0-13.0-0.10","66","High_HMMActual","","","","","","613.3600000175647","","","","Images/NewTrialBC.png","","2"
"image-button-response","90","217815","0.0-13.0-1.10","66","High_HMMActual","","","","","","null","","","","Images/WhiteBeadChoice.png","","null"
"image-button-response","91","218333","0.0-13.0-2.10","66","High_HMMActual","","","","","","null","","","","Images/WhiteBeadChoiceCorrect.png","","null"
"image-button-response","92","218977","0.0-13.0-0.11","66","High_HMMActual","","","","","","641.1150000058115","","","","Images/NewTrialWC.png","","0"
"image-button-response","93","219290","0.0-13.0-1.11","66","High_HMMActual","","","","","","null","","","","Images/BlackBeadChoice.png","","null"
"image-button-response","94","219804","0.0-13.0-2.11","66","High_HMMActual","","","","","","null","","","","Images/BlackBeadChoiceCorrect.png","","null"
"image-button-response","95","223722","0.0-13.0-0.12","66","High_HMMActual","","","","","","3913.494999986142","","","","Images/NewTrialBC.png","","2"
"image-button-response","96","224031","0.0-13.0-1.12","66","High_HMMActual","","","","","","null","","","","Images/WhiteBeadChoice.png","","null"
"image-button-response","97","224549","0.0-13.0-2.12","66","High_HMMActual","","","","","","null","","","","Images/WhiteBeadChoiceCorrect.png","","null"
"image-button-response","98","225172","0.0-13.0-0.13","66","High_HMMActual","","","","","","619.864999956917","","","","Images/NewTrialWC.png","","0"
"image-button-response","99","225484","0.0-13.0-1.13","66","High_HMMActual","","","","","","null","","","","Images/BlackBeadChoice.png","","null"
"image-button-response","100","225995","0.0-13.0-2.13","66","High_HMMActual","","","","","","null","","","","Images/BlackBeadChoiceCorrect.png","","null"
"image-button-response","101","226619","0.0-13.0-0.14","66","High_HMMActual","","","","","","621.0350000183098","","","","Images/NewTrialBC.png","","2"
"image-button-response","102","226924","0.0-13.0-1.14","66","High_HMMActual","","","","","","null","","","","Images/WhiteBeadChoice.png","","null"
"image-button-response","103","227436","0.0-13.0-2.14","66","High_HMMActual","","","","","","null","","","","Images/WhiteBeadChoiceWrong.png","","null"
"image-button-response","104","228408","0.0-13.0-0.15","66","High_HMMActual","","","","","","968.0149999912828","","","","Images/NewTrialBC.png","","2"
"image-button-response","105","228713","0.0-13.0-1.15","66","High_HMMActual","","","","","","null","","","","Images/WhiteBeadChoice.png","","null"
"image-button-response","106","229225","0.0-13.0-2.15","66","High_HMMActual","","","","","","null","","","","Images/WhiteBeadChoiceWrong.png","","null"
"image-button-response","107","230018","0.0-13.0-0.16","66","High_HMMActual","","","","","","779.8150000162423","","","","Images/NewTrialBC.png","","2"
"image-button-response","108","230332","0.0-13.0-1.16","66","High_HMMActual","","","","","","null","","","","Images/WhiteBeadChoice.png","","null"
"image-button-response","109","230849","0.0-13.0-2.16","66","High_HMMActual","","","","","","null","","","","Images/WhiteBeadChoiceCorrect.png","","null"
"image-button-response","110","231405","0.0-13.0-0.17","66","High_HMMActual","","","","","","552.1099999896251","","","","Images/NewTrialWC.png","","0"
"image-button-response","111","231711","0.0-13.0-1.17","66","High_HMMActual","","","","","","null","","","","Images/BlackBeadChoice.png","","null"
"image-button-response","112","232216","0.0-13.0-2.17","66","High_HMMActual","","","","","","null","","","","Images/BlackBeadChoiceWrong.png","","null"
"image-button-response","113","233239","0.0-13.0-0.18","66","High_HMMActual","","","","","","1019.6350000333041","","","","Images/NewTrialWC.png","","0"
"image-button-response","114","233549","0.0-13.0-1.18","66","High_HMMActual","","","","","","null","","","","Images/BlackBeadChoice.png","","null"
"image-button-response","115","234080","0.0-13.0-2.18","66","High_HMMActual","","","","","","null","","","","Images/BlackBeadChoiceWrong.png","","null"
"image-button-response","116","234779","0.0-13.0-0.19","66","High_HMMActual","","","","","","694.3999999784864","","","","Images/NewTrialWC.png","","0"
"image-button-response","117","235082","0.0-13.0-1.19","66","High_HMMActual","","","","","","null","","","","Images/BlackBeadChoice.png","","null"
"image-button-response","118","235599","0.0-13.0-2.19","66","High_HMMActual","","","","","","null","","","","Images/BlackBeadChoiceWrong.png","","null"
"image-button-response","119","236558","0.0-13.0-0.20","66","High_HMMActual","","","","","","956.9849999970756","","","","Images/NewTrialWC.png","","0"
"image-button-response","120","236874","0.0-13.0-1.20","66","High_HMMActual","","","","","","null","","","","Images/BlackBeadChoice.png","","null"
"image-button-response","121","237387","0.0-13.0-2.20","66","High_HMMActual","","","","","","null","","","","Images/BlackBeadChoiceWrong.png","","null"
"image-button-response","122","238487","0.0-13.0-0.21","66","High_HMMActual","","","","","","1095.4550000024028","","","","Images/NewTrialWC.png","","0"
"image-button-response","123","238796","0.0-13.0-1.21","66","High_HMMActual","","","","","","null","","","","Images/BlackBeadChoice.png","","null"
"image-button-response","124","239312","0.0-13.0-2.21","66","High_HMMActual","","","","","","null","","","","Images/BlackBeadChoiceWrong.png","","null"
"image-button-response","125","240098","0.0-13.0-0.22","66","High_HMMActual","","","","","","783.4550000261515","","","","Images/NewTrialWC.png","","0"
"image-button-response","126","240409","0.0-13.0-1.22","66","High_HMMActual","","","","","","null","","","","Images/BlackBeadChoice.png","","null"
"image-button-response","127","240920","0.0-13.0-2.22","66","High_HMMActual","","","","","","null","","","","Images/BlackBeadChoiceWrong.png","","null"
"image-button-response","128","241683","0.0-13.0-0.23","66","High_HMMActual","","","","","","758.8950000354089","","","","Images/NewTrialWC.png","","0"
"image-button-response","129","241990","0.0-13.0-1.23","66","High_HMMActual","","","","","","null","","","","Images/BlackBeadChoice.png","","null"
"image-button-response","130","242508","0.0-13.0-2.23","66","High_HMMActual","","","","","","null","","","","Images/BlackBeadChoiceCorrect.png","","null"
"image-button-response","131","243267","0.0-13.0-0.24","66","High_HMMActual","","","","","","754.7650000196882","","","","Images/NewTrialBC.png","","2"
"image-button-response","132","243584","0.0-13.0-1.24","66","High_HMMActual","","","","","","null","","","","Images/WhiteBeadChoice.png","","null"
"image-button-response","133","244096","0.0-13.0-2.24","66","High_HMMActual","","","","","","null","","","","Images/WhiteBeadChoiceCorrect.png","","null"
"image-button-response","134","245050","0.0-13.0-0.25","66","High_HMMActual","","","","","","949.5050000259653","","","","Images/NewTrialWC.png","","0"
"image-button-response","135","245357","0.0-13.0-1.25","66","High_HMMActual","","","","","","null","","","","Images/BlackBeadChoice.png","","null"
"image-button-response","136","245869","0.0-13.0-2.25","66","High_HMMActual","","","","","","null","","","","Images/BlackBeadChoiceWrong.png","","null"
"image-button-response","137","246439","0.0-13.0-0.26","66","High_HMMActual","","","","","","566.8899999582209","","","","Images/NewTrialWC.png","","0"
"image-button-response","138","246747","0.0-13.0-1.26","66","High_HMMActual","","","","","","null","","","","Images/BlackBeadChoice.png","","null"
"image-button-response","139","247254","0.0-13.0-2.26","66","High_HMMActual","","","","","","null","","","","Images/BlackBeadChoiceWrong.png","","null"
"image-button-response","140","248030","0.0-13.0-0.27","66","High_HMMActual","","","","","","772.6200000033714","","","","Images/NewTrialWC.png","","0"
"image-button-response","141","248335","0.0-13.0-1.27","66","High_HMMActual","","","","","","null","","","","Images/BlackBeadChoice.png","","null"
"image-button-response","142","248840","0.0-13.0-2.27","66","High_HMMActual","","","","","","null","","","","Images/BlackBeadChoiceCorrect.png","","null"
"image-button-response","143","249459","0.0-13.0-0.28","66","High_HMMActual","","","","","","613.5499999509193","","","","Images/NewTrialBC.png","","2"
"image-button-response","144","249763","0.0-13.0-1.28","66","High_HMMActual","","","","","","null","","","","Images/WhiteBeadChoice.png","","null"
"image-button-response","145","250276","0.0-13.0-2.28","66","High_HMMActual","","","","","","null","","","","Images/WhiteBeadChoiceCorrect.png","","null"
"image-button-response","146","250967","0.0-13.0-0.29","66","High_HMMActual","","","","","","688.5699999984354","","","","Images/NewTrialWC.png","","0"
"image-button-response","147","251280","0.0-13.0-1.29","66","High_HMMActual","","","","","","null","","","","Images/BlackBeadChoice.png","","null"
"image-button-response","148","251792","0.0-13.0-2.29","66","High_HMMActual","","","","","","null","","","","Images/BlackBeadChoiceCorrect.png","","null"
"image-button-response","149","252233","0.0-13.0-0.30","66","High_HMMActual","","","","","","436.58000003779307","","","","Images/NewTrialBC.png","","2"
"image-button-response","150","252539","0.0-13.0-1.30","66","High_HMMActual","","","","","","null","","","","Images/WhiteBeadChoice.png","","null"
"image-button-response","151","253054","0.0-13.0-2.30","66","High_HMMActual","","","","","","null","","","","Images/WhiteBeadChoiceWrong.png","","null"
"image-button-response","152","253613","0.0-13.0-0.31","66","High_HMMActual","","","","","","555.3550000186078","","","","Images/NewTrialBC.png","","2"
"image-button-response","153","253929","0.0-13.0-1.31","66","High_HMMActual","","","","","","null","","","","Images/WhiteBeadChoice.png","","null"
"image-button-response","154","254448","0.0-13.0-2.31","66","High_HMMActual","","","","","","null","","","","Images/WhiteBeadChoiceWrong.png","","null"
"image-button-response","155","254957","0.0-13.0-0.32","66","High_HMMActual","","","","","","506.37999997707084","","","","Images/NewTrialBC.png","","2"
"image-button-response","156","255262","0.0-13.0-1.32","66","High_HMMActual","","","","","","null","","","","Images/WhiteBeadChoice.png","","null"
"image-button-response","157","255780","0.0-13.0-2.32","66","High_HMMActual","","","","","","null","","","","Images/WhiteBeadChoiceCorrect.png","","null"
"image-button-response","158","256297","0.0-13.0-0.33","66","High_HMMActual","","","","","","513.8449999503791","","","","Images/NewTrialWC.png","","0"
"image-button-response","159","256601","0.0-13.0-1.33","66","High_HMMActual","","","","","","null","","","","Images/BlackBeadChoice.png","","null"
"image-button-response","160","257116","0.0-13.0-2.33","66","High_HMMActual","","","","","","null","","","","Images/BlackBeadChoiceCorrect.png","","null"
"image-button-response","161","257600","0.0-13.0-0.34","66","High_HMMActual","","","","","","480.2100000088103","","","","Images/NewTrialBC.png","","2"
"image-button-response","162","257909","0.0-13.0-1.34","66","High_HMMActual","","","","","","null","","","","Images/WhiteBeadChoice.png","","null"
"image-button-response","163","258416","0.0-13.0-2.34","66","High_HMMActual","","","","","","null","","","","Images/WhiteBeadChoiceCorrect.png","","null"
"image-button-response","164","258940","0.0-13.0-0.35","66","High_HMMActual","","","","","","511.36500004213303","","","","Images/NewTrialWC.png","","0"
"image-button-response","165","259247","0.0-13.0-1.35","66","High_HMMActual","","","","","","null","","","","Images/BlackBeadChoice.png","","null"
"image-button-response","166","259755","0.0-13.0-2.35","66","High_HMMActual","","","","","","null","","","","Images/BlackBeadChoiceCorrect.png","","null"
"image-button-response","167","260116","0.0-13.0-0.36","66","High_HMMActual","","","","","","356.77999997278675","","","","Images/NewTrialBC.png","","2"
"image-button-response","168","260428","0.0-13.0-1.36","66","High_HMMActual","","","","","","null","","","","Images/WhiteBeadChoice.png","","null"
"image-button-response","169","260938","0.0-13.0-2.36","66","High_HMMActual","","","","","","null","","","","Images/WhiteBeadChoiceWrong.png","","null"
"image-button-response","170","264949","0.0-13.0-0.37","66","High_HMMActual","","","","","","4006.7099999869242","","","","Images/NewTrialBC.png","","2"
"image-button-response","171","265262","0.0-13.0-1.37","66","High_HMMActual","","","","","","null","","","","Images/WhiteBeadChoice.png","","null"
"image-button-response","172","265772","0.0-13.0-2.37","66","High_HMMActual","","","","","","null","","","","Images/WhiteBeadChoiceWrong.png","","null"
"image-button-response","173","266235","0.0-13.0-0.38","66","High_HMMActual","","","","","","443.71000002138317","","","","Images/NewTrialBC.png","","2"
"image-button-response","174","266554","0.0-13.0-1.38","66","High_HMMActual","","","","","","null","","","","Images/WhiteBeadChoice.png","","null"
"image-button-response","175","267062","0.0-13.0-2.38","66","High_HMMActual","","","","","","null","","","","Images/WhiteBeadChoiceCorrect.png","","null"
"image-button-response","176","273297","0.0-13.0-0.39","66","High_HMMActual","","","","","","6232.405000017025","","","","Images/NewTrialWC.png","","0"
"image-button-response","177","273611","0.0-13.0-1.39","66","High_HMMActual","","","","","","null","","","","Images/BlackBeadChoice.png","","null"
"image-button-response","178","274115","0.0-13.0-2.39","66","High_HMMActual","","","","","","null","","","","Images/BlackBeadChoiceWrong.png","","null"
"image-button-response","179","274769","0.0-13.0-0.40","66","High_HMMActual","","","","","","650.1549999811687","","","","Images/NewTrialWC.png","","0"
"image-button-response","180","275078","0.0-13.0-1.40","66","High_HMMActual","","","","","","null","","","","Images/BlackBeadChoice.png","","null"
"image-button-response","181","275586","0.0-13.0-2.40","66","High_HMMActual","","","","","","null","","","","Images/BlackBeadChoiceWrong.png","","null"
"image-button-response","182","275863","0.0-13.0-0.41","66","High_HMMActual","","","","","","273.0199999641627","","","","Images/NewTrialWC.png","","0"
"image-button-response","183","276168","0.0-13.0-1.41","66","High_HMMActual","","","","","","null","","","","Images/BlackBeadChoice.png","","null"
"image-button-response","184","276674","0.0-13.0-2.41","66","High_HMMActual","","","","","","null","","","","Images/BlackBeadChoiceWrong.png","","null"
"image-button-response","185","277231","0.0-13.0-0.42","66","High_HMMActual","","","","","","553.1299999565817","","","","Images/NewTrialWC.png","","0"
"image-button-response","186","277535","0.0-13.0-1.42","66","High_HMMActual","","","","","","null","","","","Images/BlackBeadChoice.png","","null"
"image-button-response","187","278044","0.0-13.0-2.42","66","High_HMMActual","","","","","","null","","","","Images/BlackBeadChoiceCorrect.png","","null"
"image-button-response","188","278965","0.0-13.0-0.43","66","High_HMMActual","","","","","","917.7550000022165","","","","Images/NewTrialBC.png","","2"
"image-button-response","189","279282","0.0-13.0-1.43","66","High_HMMActual","","","","","","null","","","","Images/WhiteBeadChoice.png","","null"
"image-button-response","190","279788","0.0-13.0-2.43","66","High_HMMActual","","","","","","null","","","","Images/WhiteBeadChoiceWrong.png","","null"
"image-button-response","191","280263","0.0-13.0-0.44","66","High_HMMActual","","","","","","471.674999978859","","","","Images/NewTrialBC.png","","2"
"image-button-response","192","280573","0.0-13.0-1.44","66","High_HMMActual","","","","","","null","","","","Images/WhiteBeadChoice.png","","null"
"image-button-response","193","281084","0.0-13.0-2.44","66","High_HMMActual","","","","","","null","","","","Images/WhiteBeadChoiceCorrect.png","","null"
"image-button-response","194","282048","0.0-13.0-0.45","66","High_HMMActual","","","","","","961.4350000047125","","","","Images/NewTrialWC.png","","0"
"image-button-response","195","282352","0.0-13.0-1.45","66","High_HMMActual","","","","","","null","","","","Images/BlackBeadChoice.png","","null"
"image-button-response","196","282856","0.0-13.0-2.45","66","High_HMMActual","","","","","","null","","","","Images/BlackBeadChoiceWrong.png","","null"
"image-button-response","197","295592","0.0-13.0-0.46","66","High_HMMActual","","","","","","12732.20999998739","","","","Images/NewTrialWC.png","","0"
"image-button-response","198","295904","0.0-13.0-1.46","66","High_HMMActual","","","","","","null","","","","Images/BlackBeadChoice.png","","null"
"image-button-response","199","296420","0.0-13.0-2.46","66","High_HMMActual","","","","","","null","","","","Images/BlackBeadChoiceCorrect.png","","null"
"image-button-response","200","296770","0.0-13.0-0.47","66","High_HMMActual","","","","","","329.9100000294857","","","","Images/NewTrialBC.png","","2"
"image-button-response","201","297087","0.0-13.0-1.47","66","High_HMMActual","","","","","","null","","","","Images/WhiteBeadChoice.png","","null"
"image-button-response","202","297593","0.0-13.0-2.47","66","High_HMMActual","","","","","","null","","","","Images/WhiteBeadChoiceWrong.png","","null"
"image-button-response","203","298803","0.0-13.0-0.48","66","High_HMMActual","","","","","","1206.1700000194833","","","","Images/NewTrialBC.png","","2"
"image-button-response","204","299107","0.0-13.0-1.48","66","High_HMMActual","","","","","","null","","","","Images/WhiteBeadChoice.png","","null"
"image-button-response","205","299613","0.0-13.0-2.48","66","High_HMMActual","","","","","","null","","","","Images/WhiteBeadChoiceCorrect.png","","null"
"image-button-response","206","300342","0.0-13.0-0.49","66","High_HMMActual","","","","","","726.1050000088289","","","","Images/NewTrialWC.png","","0"
"image-button-response","207","300656","0.0-13.0-1.49","66","High_HMMActual","","","","","","null","","","","Images/BlackBeadChoice.png","","null"
"image-button-response","208","301171","0.0-13.0-2.49","66","High_HMMActual","","","","","","null","","","","Images/BlackBeadChoiceWrong.png","","null"
"image-button-response","209","301796","0.0-13.0-0.50","66","High_HMMActual","","","","","","621.6099999728613","","","","Images/NewTrialWC.png","","0"
"image-button-response","210","302103","0.0-13.0-1.50","66","High_HMMActual","","","","","","null","","","","Images/BlackBeadChoice.png","","null"
"image-button-response","211","302620","0.0-13.0-2.50","66","High_HMMActual","","","","","","null","","","","Images/BlackBeadChoiceWrong.png","","null"
"image-button-response","212","303050","0.0-13.0-0.51","66","High_HMMActual","","","","","","426.465000025928","","","","Images/NewTrialWC.png","","0"
"image-button-response","213","303356","0.0-13.0-1.51","66","High_HMMActual","","","","","","null","","","","Images/BlackBeadChoice.png","","null"
"image-button-response","214","303870","0.0-13.0-2.51","66","High_HMMActual","","","","","","null","","","","Images/BlackBeadChoiceCorrect.png","","null"
"image-button-response","215","304462","0.0-13.0-0.52","66","High_HMMActual","","","","","","587.9399999976158","","","","Images/NewTrialBC.png","","2"
"image-button-response","216","304769","0.0-13.0-1.52","66","High_HMMActual","","","","","","null","","","","Images/WhiteBeadChoice.png","","null"
"image-button-response","217","305281","0.0-13.0-2.52","66","High_HMMActual","","","","","","null","","","","Images/WhiteBeadChoiceCorrect.png","","null"
"image-button-response","218","305722","0.0-13.0-0.53","66","High_HMMActual","","","","","","428.23499999940395","","","","Images/NewTrialWC.png","","0"
"image-button-response","219","306036","0.0-13.0-1.53","66","High_HMMActual","","","","","","null","","","","Images/BlackBeadChoice.png","","null"
"image-button-response","220","306553","0.0-13.0-2.53","66","High_HMMActual","","","","","","null","","","","Images/BlackBeadChoiceWrong.png","","null"
"image-button-response","221","306891","0.0-13.0-0.54","66","High_HMMActual","","","","","","333.9299999643117","","","","Images/NewTrialWC.png","","0"
"image-button-response","222","307199","0.0-13.0-1.54","66","High_HMMActual","","","","","","null","","","","Images/BlackBeadChoice.png","","null"
"image-button-response","223","307717","0.0-13.0-2.54","66","High_HMMActual","","","","","","null","","","","Images/BlackBeadChoiceWrong.png","","null"
"image-button-response","224","308045","0.0-13.0-0.55","66","High_HMMActual","","","","","","324.9699999578297","","","","Images/NewTrialWC.png","","0"
"image-button-response","225","308359","0.0-13.0-1.55","66","High_HMMActual","","","","","","null","","","","Images/BlackBeadChoice.png","","null"
"image-button-response","226","308873","0.0-13.0-2.55","66","High_HMMActual","","","","","","null","","","","Images/BlackBeadChoiceCorrect.png","","null"
"image-button-response","227","309217","0.0-13.0-0.56","66","High_HMMActual","","","","","","340.2350000105798","","","","Images/NewTrialBC.png","","2"
"image-button-response","228","309534","0.0-13.0-1.56","66","High_HMMActual","","","","","","null","","","","Images/WhiteBeadChoice.png","","null"
"image-button-response","229","310041","0.0-13.0-2.56","66","High_HMMActual","","","","","","null","","","","Images/WhiteBeadChoiceWrong.png","","null"
"image-button-response","230","310530","0.0-13.0-0.57","66","High_HMMActual","","","","","","485.2400000090711","","","","Images/NewTrialBC.png","","2"
"image-button-response","231","310835","0.0-13.0-1.57","66","High_HMMActual","","","","","","null","","","","Images/WhiteBeadChoice.png","","null"
"image-button-response","232","311343","0.0-13.0-2.57","66","High_HMMActual","","","","","","null","","","","Images/WhiteBeadChoiceWrong.png","","null"
"image-button-response","233","311986","0.0-13.0-0.58","66","High_HMMActual","","","","","","639.5650000195019","","","","Images/NewTrialBC.png","","2"
"image-button-response","234","312299","0.0-13.0-1.58","66","High_HMMActual","","","","","","null","","","","Images/WhiteBeadChoice.png","","null"
"image-button-response","235","312814","0.0-13.0-2.58","66","High_HMMActual","","","","","","null","","","","Images/WhiteBeadChoiceCorrect.png","","null"
"image-button-response","236","313224","0.0-13.0-0.59","66","High_HMMActual","","","","","","403.7800000514835","","","","Images/NewTrialWC.png","","0"
"image-button-response","237","313547","0.0-13.0-1.59","66","High_HMMActual","","","","","","null","","","","Images/BlackBeadChoice.png","","null"
"image-button-response","238","314053","0.0-13.0-2.59","66","High_HMMActual","","","","","","null","","","","Images/BlackBeadChoiceCorrect.png","","null"
"image-button-response","239","314631","0.0-13.0-0.60","66","High_HMMActual","","","","","","574.4849999900907","","","","Images/NewTrialBC.png","","2"
"image-button-response","240","314947","0.0-13.0-1.60","66","High_HMMActual","","","","","","null","","","","Images/WhiteBeadChoice.png","","null"
"image-button-response","241","315457","0.0-13.0-2.60","66","High_HMMActual","","","","","","null","","","","Images/WhiteBeadChoiceCorrect.png","","null"
"image-button-response","242","316155","0.0-13.0-0.61","66","High_HMMActual","","","","","","693.2250000536442","","","","Images/NewTrialWC.png","","0"
"image-button-response","243","316470","0.0-13.0-1.61","66","High_HMMActual","","","","","","null","","","","Images/BlackBeadChoice.png","","null"
"image-button-response","244","316980","0.0-13.0-2.61","66","High_HMMActual","","","","","","null","","","","Images/BlackBeadChoiceCorrect.png","","null"
"image-button-response","245","317357","0.0-13.0-0.62","66","High_HMMActual","","","","","","373.2149999705143","","","","Images/NewTrialBC.png","","2"
"image-button-response","246","317669","0.0-13.0-1.62","66","High_HMMActual","","","","","","null","","","","Images/WhiteBeadChoice.png","","null"
"image-button-response","247","318181","0.0-13.0-2.62","66","High_HMMActual","","","","","","null","","","","Images/WhiteBeadChoiceCorrect.png","","null"
"image-button-response","248","318608","0.0-13.0-0.63","66","High_HMMActual","","","","","","413.40499999932945","","","","Images/NewTrialWC.png","","0"
"image-button-response","249","318915","0.0-13.0-1.63","66","High_HMMActual","","","","","","null","","","","Images/BlackBeadChoice.png","","null"
"image-button-response","250","319425","0.0-13.0-2.63","66","High_HMMActual","","","","","","null","","","","Images/BlackBeadChoiceWrong.png","","null"
"image-button-response","251","319740","0.0-13.0-0.64","66","High_HMMActual","","","","","","311.0350000206381","","","","Images/NewTrialWC.png","","0"
"image-button-response","252","320049","0.0-13.0-1.64","66","High_HMMActual","","","","","","null","","","","Images/BlackBeadChoice.png","","null"
"image-button-response","253","320553","0.0-13.0-2.64","66","High_HMMActual","","","","","","null","","","","Images/BlackBeadChoiceWrong.png","","null"
"image-button-response","254","320983","0.0-13.0-0.65","66","High_HMMActual","","","","","","426.76500004017726","","","","Images/NewTrialWC.png","","0"
"image-button-response","255","321300","0.0-13.0-1.65","66","High_HMMActual","","","","","","null","","","","Images/BlackBeadChoice.png","","null"
"image-button-response","256","321811","0.0-13.0-2.65","66","High_HMMActual","","","","","","null","","","","Images/BlackBeadChoiceCorrect.png","","null"
"image-button-response","257","322640","0.0-13.0-0.66","66","High_HMMActual","","","","","","822.615000011865","","","","Images/NewTrialBC.png","","2"
"image-button-response","258","322947","0.0-13.0-1.66","66","High_HMMActual","","","","","","null","","","","Images/WhiteBeadChoice.png","","null"
"image-button-response","259","323451","0.0-13.0-2.66","66","High_HMMActual","","","","","","null","","","","Images/WhiteBeadChoiceCorrect.png","","null"
"image-button-response","260","323689","0.0-13.0-0.67","66","High_HMMActual","","","","","","235.14000000432134","","","","Images/NewTrialWC.png","","0"
"image-button-response","261","323996","0.0-13.0-1.67","66","High_HMMActual","","","","","","null","","","","Images/BlackBeadChoice.png","","null"
"image-button-response","262","324501","0.0-13.0-2.67","66","High_HMMActual","","","","","","null","","","","Images/BlackBeadChoiceCorrect.png","","null"
"image-button-response","263","324970","0.0-13.0-0.68","66","High_HMMActual","","","","","","465.92500002589077","","","","Images/NewTrialBC.png","","2"
"image-button-response","264","325281","0.0-13.0-1.68","66","High_HMMActual","","","","","","null","","","","Images/WhiteBeadChoice.png","","null"
"image-button-response","265","325792","0.0-13.0-2.68","66","High_HMMActual","","","","","","null","","","","Images/WhiteBeadChoiceWrong.png","","null"
"image-button-response","266","326239","0.0-13.0-0.69","66","High_HMMActual","","","","","","443.12000001082197","","","","Images/NewTrialBC.png","","2"
"image-button-response","267","326562","0.0-13.0-1.69","66","High_HMMActual","","","","","","null","","","","Images/WhiteBeadChoice.png","","null"
"image-button-response","268","327072","0.0-13.0-2.69","66","High_HMMActual","","","","","","null","","","","Images/WhiteBeadChoiceWrong.png","","null"
"image-button-response","269","327384","0.0-13.0-0.70","66","High_HMMActual","","","","","","307.425000006333","","","","Images/NewTrialBC.png","","2"
"image-button-response","270","327691","0.0-13.0-1.70","66","High_HMMActual","","","","","","null","","","","Images/WhiteBeadChoice.png","","null"
"image-button-response","271","328199","0.0-13.0-2.70","66","High_HMMActual","","","","","","null","","","","Images/WhiteBeadChoiceCorrect.png","","null"
"image-button-response","272","328601","0.0-13.0-0.71","66","High_HMMActual","","","","","","397.9999999864958","","","","Images/NewTrialWC.png","","0"
"image-button-response","273","328911","0.0-13.0-1.71","66","High_HMMActual","","","","","","null","","","","Images/BlackBeadChoice.png","","null"
"image-button-response","274","329415","0.0-13.0-2.71","66","High_HMMActual","","","","","","null","","","","Images/BlackBeadChoiceCorrect.png","","null"
"image-button-response","275","329809","0.0-13.0-0.72","66","High_HMMActual","","","","","","390.0250000297092","","","","Images/NewTrialBC.png","","2"
"image-button-response","276","330125","0.0-13.0-1.72","66","High_HMMActual","","","","","","null","","","","Images/WhiteBeadChoice.png","","null"
"image-button-response","277","330630","0.0-13.0-2.72","66","High_HMMActual","","","","","","null","","","","Images/WhiteBeadChoiceWrong.png","","null"
"image-button-response","278","330924","0.0-13.0-0.73","66","High_HMMActual","","","","","","289.9399999878369","","","","Images/NewTrialBC.png","","2"
"image-button-response","279","331231","0.0-13.0-1.73","66","High_HMMActual","","","","","","null","","","","Images/WhiteBeadChoice.png","","null"
"image-button-response","280","331747","0.0-13.0-2.73","66","High_HMMActual","","","","","","null","","","","Images/WhiteBeadChoiceCorrect.png","","null"
"image-button-response","281","332070","0.0-13.0-0.74","66","High_HMMActual","","","","","","320.160000002943","","","","Images/NewTrialWC.png","","0"
"image-button-response","282","332376","0.0-13.0-1.74","66","High_HMMActual","","","","","","null","","","","Images/BlackBeadChoice.png","","null"
"image-button-response","283","332891","0.0-13.0-2.74","66","High_HMMActual","","","","","","null","","","","Images/BlackBeadChoiceWrong.png","","null"
"image-button-response","284","333226","0.0-13.0-0.75","66","High_HMMActual","","","","","","330.52999997744337","","","","Images/NewTrialWC.png","","0"
"image-button-response","285","333543","0.0-13.0-1.75","66","High_HMMActual","","","","","","null","","","","Images/BlackBeadChoice.png","","null"
"image-button-response","286","334048","0.0-13.0-2.75","66","High_HMMActual","","","","","","null","","","","Images/BlackBeadChoiceCorrect.png","","null"
"image-button-response","287","334322","0.0-13.0-0.76","66","High_HMMActual","","","","","","270.2049999497831","","","","Images/NewTrialBC.png","","2"
"image-button-response","288","334639","0.0-13.0-1.76","66","High_HMMActual","","","","","","null","","","","Images/WhiteBeadChoice.png","","null"
"image-button-response","289","335146","0.0-13.0-2.76","66","High_HMMActual","","","","","","null","","","","Images/WhiteBeadChoiceWrong.png","","null"
"image-button-response","290","335503","0.0-13.0-0.77","66","High_HMMActual","","","","","","352.7250000042841","","","","Images/NewTrialBC.png","","2"
"image-button-response","291","335817","0.0-13.0-1.77","66","High_HMMActual","","","","","","null","","","","Images/WhiteBeadChoice.png","","null"
"image-button-response","292","336331","0.0-13.0-2.77","66","High_HMMActual","","","","","","null","","","","Images/WhiteBeadChoiceWrong.png","","null"
"image-button-response","293","336920","0.0-13.0-0.78","66","High_HMMActual","","","","","","571.8350000097416","","","","Images/NewTrialBC.png","","2"
"image-button-response","294","337232","0.0-13.0-1.78","66","High_HMMActual","","","","","","null","","","","Images/WhiteBeadChoice.png","","null"
"image-button-response","295","337740","0.0-13.0-2.78","66","High_HMMActual","","","","","","null","","","","Images/WhiteBeadChoiceCorrect.png","","null"
"image-button-response","296","338131","0.0-13.0-0.79","66","High_HMMActual","","","","","","388.6599999968894","","","","Images/NewTrialWC.png","","0"
"image-button-response","297","338436","0.0-13.0-1.79","66","High_HMMActual","","","","","","null","","","","Images/BlackBeadChoice.png","","null"
"image-button-response","298","338947","0.0-13.0-2.79","66","High_HMMActual","","","","","","null","","","","Images/BlackBeadChoiceCorrect.png","","null"
"image-button-response","299","339359","0.0-13.0-0.80","66","High_HMMActual","","","","","","407.9650000203401","","","","Images/NewTrialBC.png","","2"
"image-button-response","300","339669","0.0-13.0-1.80","66","High_HMMActual","","","","","","null","","","","Images/WhiteBeadChoice.png","","null"
"image-button-response","301","340181","0.0-13.0-2.80","66","High_HMMActual","","","","","","null","","","","Images/WhiteBeadChoiceCorrect.png","","null"
"image-button-response","302","340870","0.0-13.0-0.81","66","High_HMMActual","","","","","","684.7650000127032","","","","Images/NewTrialWC.png","","0"
"image-button-response","303","341182","0.0-13.0-1.81","66","High_HMMActual","","","","","","null","","","","Images/BlackBeadChoice.png","","null"
"image-button-response","304","341698","0.0-13.0-2.81","66","High_HMMActual","","","","","","null","","","","Images/BlackBeadChoiceCorrect.png","","null"
"image-button-response","305","345173","0.0-13.0-0.82","66","High_HMMActual","","","","","","3471.109999984037","","","","Images/NewTrialBC.png","","2"
"image-button-response","306","345481","0.0-13.0-1.82","66","High_HMMActual","","","","","","null","","","","Images/WhiteBeadChoice.png","","null"
"image-button-response","307","345984","0.0-13.0-2.82","66","High_HMMActual","","","","","","null","","","","Images/WhiteBeadChoiceCorrect.png","","null"
"image-button-response","308","346918","0.0-13.0-0.83","66","High_HMMActual","","","","","","930.1449999911711","","","","Images/NewTrialWC.png","","0"
"image-button-response","309","347232","0.0-13.0-1.83","66","High_HMMActual","","","","","","null","","","","Images/BlackBeadChoice.png","","null"
"image-button-response","310","347741","0.0-13.0-2.83","66","High_HMMActual","","","","","","null","","","","Images/BlackBeadChoiceCorrect.png","","null"
"image-button-response","311","349017","0.0-13.0-0.84","66","High_HMMActual","","","","","","1271.759999974165","","","","Images/NewTrialBC.png","","2"
"image-button-response","312","349322","0.0-13.0-1.84","66","High_HMMActual","","","","","","null","","","","Images/WhiteBeadChoice.png","","null"
"image-button-response","313","349842","0.0-13.0-2.84","66","High_HMMActual","","","","","","null","","","","Images/WhiteBeadChoiceCorrect.png","","null"
"image-button-response","314","351055","0.0-13.0-0.85","66","High_HMMActual","","","","","","1210.285000037402","","","","Images/NewTrialWC.png","","0"
"image-button-response","315","351359","0.0-13.0-1.85","66","High_HMMActual","","","","","","null","","","","Images/BlackBeadChoice.png","","null"
"image-button-response","316","351871","0.0-13.0-2.85","66","High_HMMActual","","","","","","null","","","","Images/BlackBeadChoiceCorrect.png","","null"
"image-button-response","317","353721","0.0-13.0-0.86","66","High_HMMActual","","","","","","1846.3049999554642","","","","Images/NewTrialBC.png","","2"
"image-button-response","318","354040","0.0-13.0-1.86","66","High_HMMActual","","","","","","null","","","","Images/WhiteBeadChoice.png","","null"
"image-button-response","319","354554","0.0-13.0-2.86","66","High_HMMActual","","","","","","null","","","","Images/WhiteBeadChoiceWrong.png","","null"
"image-button-response","320","355099","0.0-13.0-0.87","66","High_HMMActual","","","","","","540.6349999830127","","","","Images/NewTrialBC.png","","2"
"image-button-response","321","355411","0.0-13.0-1.87","66","High_HMMActual","","","","","","null","","","","Images/WhiteBeadChoice.png","","null"
"image-button-response","322","355919","0.0-13.0-2.87","66","High_HMMActual","","","","","","null","","","","Images/WhiteBeadChoiceWrong.png","","null"
"image-button-response","323","356030","0.0-13.0-0.88","66","High_HMMActual","","","","","","97.34999999636784","","","","Images/NewTrialBC.png","","2"
"image-button-response","324","356345","0.0-13.0-1.88","66","High_HMMActual","","","","","","null","","","","Images/WhiteBeadChoice.png","","null"
"image-button-response","325","356853","0.0-13.0-2.88","66","High_HMMActual","","","","","","null","","","","Images/WhiteBeadChoiceCorrect.png","","null"
"image-button-response","326","357295","0.0-13.0-0.89","66","High_HMMActual","","","","","","437.34499998390675","","","","Images/NewTrialWC.png","","0"
"image-button-response","327","357607","0.0-13.0-1.89","66","High_HMMActual","","","","","","null","","","","Images/BlackBeadChoice.png","","null"
"image-button-response","328","358112","0.0-13.0-2.89","66","High_HMMActual","","","","","","null","","","","Images/BlackBeadChoiceCorrect.png","","null"
"image-button-response","329","386335","0.0-13.0-0.90","66","High_HMMActual","","","","","","28218.909999995958","","","","Images/NewTrialBC.png","","2"
"image-button-response","330","386648","0.0-13.0-1.90","66","High_HMMActual","","","","","","null","","","","Images/WhiteBeadChoice.png","","null"
"image-button-response","331","387158","0.0-13.0-2.90","66","High_HMMActual","","","","","","null","","","","Images/WhiteBeadChoiceWrong.png","","null"
"image-button-response","332","388163","0.0-13.0-0.91","66","High_HMMActual","","","","","","1001.7949999892153","","","","Images/NewTrialBC.png","","2"
"image-button-response","333","388470","0.0-13.0-1.91","66","High_HMMActual","","","","","","null","","","","Images/WhiteBeadChoice.png","","null"
"image-button-response","334","388992","0.0-13.0-2.91","66","High_HMMActual","","","","","","null","","","","Images/WhiteBeadChoiceCorrect.png","","null"
"image-button-response","335","389759","0.0-13.0-0.92","66","High_HMMActual","","","","","","762.8750000149012","","","","Images/NewTrialWC.png","","0"
"image-button-response","336","390069","0.0-13.0-1.92","66","High_HMMActual","","","","","","null","","","","Images/BlackBeadChoice.png","","null"
"image-button-response","337","390579","0.0-13.0-2.92","66","High_HMMActual","","","","","","null","","","","Images/BlackBeadChoiceWrong.png","","null"
"image-button-response","338","390928","0.0-13.0-0.93","66","High_HMMActual","","","","","","344.1449999809265","","","","Images/NewTrialWC.png","","0"
"image-button-response","339","391244","0.0-13.0-1.93","66","High_HMMActual","","","","","","null","","","","Images/BlackBeadChoice.png","","null"
"image-button-response","340","391751","0.0-13.0-2.93","66","High_HMMActual","","","","","","null","","","","Images/BlackBeadChoiceWrong.png","","null"
"image-button-response","341","392047","0.0-13.0-0.94","66","High_HMMActual","","","","","","289.2400000127964","","","","Images/NewTrialWC.png","","0"
"image-button-response","342","392359","0.0-13.0-1.94","66","High_HMMActual","","","","","","null","","","","Images/BlackBeadChoice.png","","null"
"image-button-response","343","392874","0.0-13.0-2.94","66","High_HMMActual","","","","","","null","","","","Images/BlackBeadChoiceWrong.png","","null"
"image-button-response","344","393109","0.0-13.0-0.95","66","High_HMMActual","","","","","","231.29999998491257","","","","Images/NewTrialWC.png","","0"
"image-button-response","345","393440","0.0-13.0-1.95","66","High_HMMActual","","","","","","null","","","","Images/BlackBeadChoice.png","","null"
"image-button-response","346","393951","0.0-13.0-2.95","66","High_HMMActual","","","","","","null","","","","Images/BlackBeadChoiceWrong.png","","null"
"image-button-response","347","394315","0.0-13.0-0.96","66","High_HMMActual","","","","","","360.60000001452863","","","","Images/NewTrialWC.png","","0"
"image-button-response","348","394629","0.0-13.0-1.96","66","High_HMMActual","","","","","","null","","","","Images/BlackBeadChoice.png","","null"
"image-button-response","349","395144","0.0-13.0-2.96","66","High_HMMActual","","","","","","null","","","","Images/BlackBeadChoiceCorrect.png","","null"
"image-button-response","350","395743","0.0-13.0-0.97","66","High_HMMActual","","","","","","594.3750000442378","","","","Images/NewTrialBC.png","","2"
"image-button-response","351","396054","0.0-13.0-1.97","66","High_HMMActual","","","","","","null","","","","Images/WhiteBeadChoice.png","","null"
"image-button-response","352","396567","0.0-13.0-2.97","66","High_HMMActual","","","","","","null","","","","Images/WhiteBeadChoiceWrong.png","","null"
"image-button-response","353","397819","0.0-13.0-0.98","66","High_HMMActual","","","","","","1248.360000026878","","","","Images/NewTrialBC.png","","2"
"image-button-response","354","398125","0.0-13.0-1.98","66","High_HMMActual","","","","","","null","","","","Images/WhiteBeadChoice.png","","null"
"image-button-response","355","398633","0.0-13.0-2.98","66","High_HMMActual","","","","","","null","","","","Images/WhiteBeadChoiceCorrect.png","","null"
"image-button-response","356","399028","0.0-13.0-0.99","66","High_HMMActual","","","","","","392.664999992121","","","","Images/NewTrialWC.png","","0"
"image-button-response","357","399343","0.0-13.0-1.99","66","High_HMMActual","","","","","","null","","","","Images/BlackBeadChoice.png","","null"
"image-button-response","358","399856","0.0-13.0-2.99","66","High_HMMActual","","","","","","null","","","","Images/BlackBeadChoiceCorrect.png","","null"
"image-button-response","359","400875","0.0-13.0-0.100","66","High_HMMActual","","","","","","1014.8100000224076","","","","Images/NewTrialBC.png","","2"
"image-button-response","360","401195","0.0-13.0-1.100","66","High_HMMActual","","","","","","null","","","","Images/WhiteBeadChoice.png","","null"
"image-button-response","361","401702","0.0-13.0-2.100","66","High_HMMActual","","","","","","null","","","","Images/WhiteBeadChoiceWrong.png","","null"
"image-button-response","362","402140","0.0-13.0-0.101","66","High_HMMActual","","","","","","434.0899999951944","","","","Images/NewTrialBC.png","","2"
"image-button-response","363","402457","0.0-13.0-1.101","66","High_HMMActual","","","","","","null","","","","Images/WhiteBeadChoice.png","","null"
"image-button-response","364","402973","0.0-13.0-2.101","66","High_HMMActual","","","","","","null","","","","Images/WhiteBeadChoiceWrong.png","","null"
"image-button-response","365","403592","0.0-13.0-0.102","66","High_HMMActual","","","","","","607.4249999946915","","","","Images/NewTrialBC.png","","2"
"image-button-response","366","403903","0.0-13.0-1.102","66","High_HMMActual","","","","","","null","","","","Images/WhiteBeadChoice.png","","null"
"image-button-response","367","404416","0.0-13.0-2.102","66","High_HMMActual","","","","","","null","","","","Images/WhiteBeadChoiceWrong.png","","null"
"image-button-response","368","404961","0.0-13.0-0.103","66","High_HMMActual","","","","","","542.1499999938533","","","","Images/NewTrialBC.png","","2"
"image-button-response","369","405279","0.0-13.0-1.103","66","High_HMMActual","","","","","","null","","","","Images/WhiteBeadChoice.png","","null"
"image-button-response","370","405784","0.0-13.0-2.103","66","High_HMMActual","","","","","","null","","","","Images/WhiteBeadChoiceWrong.png","","null"
"image-button-response","371","406565","0.0-13.0-0.104","66","High_HMMActual","","","","","","774.074999964796","","","","Images/NewTrialBC.png","","2"
"image-button-response","372","406877","0.0-13.0-1.104","66","High_HMMActual","","","","","","null","","","","Images/WhiteBeadChoice.png","","null"
"image-button-response","373","407393","0.0-13.0-2.104","66","High_HMMActual","","","","","","null","","","","Images/WhiteBeadChoiceCorrect.png","","null"
"image-button-response","374","408124","0.0-13.0-0.105","66","High_HMMActual","","","","","","728.1799999764189","","","","Images/NewTrialWC.png","","0"
"image-button-response","375","408431","0.0-13.0-1.105","66","High_HMMActual","","","","","","null","","","","Images/BlackBeadChoice.png","","null"
"image-button-response","376","408938","0.0-13.0-2.105","66","High_HMMActual","","","","","","null","","","","Images/BlackBeadChoiceCorrect.png","","null"
"image-button-response","377","409391","0.0-13.0-0.106","66","High_HMMActual","","","","","","449.5050000259653","","","","Images/NewTrialBC.png","","2"
"image-button-response","378","409703","0.0-13.0-1.106","66","High_HMMActual","","","","","","null","","","","Images/WhiteBeadChoice.png","","null"
"image-button-response","379","410216","0.0-13.0-2.106","66","High_HMMActual","","","","","","null","","","","Images/WhiteBeadChoiceCorrect.png","","null"
"image-button-response","380","410917","0.0-13.0-0.107","66","High_HMMActual","","","","","","697.5150000071153","","","","Images/NewTrialWC.png","","0"
"image-button-response","381","411232","0.0-13.0-1.107","66","High_HMMActual","","","","","","null","","","","Images/BlackBeadChoice.png","","null"
"image-button-response","382","411740","0.0-13.0-2.107","66","High_HMMActual","","","","","","null","","","","Images/BlackBeadChoiceCorrect.png","","null"
"image-button-response","383","412756","0.0-13.0-0.108","66","High_HMMActual","","","","","","1003.580000018701","","","","Images/NewTrialBC.png","","2"
"image-button-response","384","413059","0.0-13.0-1.108","66","High_HMMActual","","","","","","null","","","","Images/WhiteBeadChoice.png","","null"
"image-button-response","385","413563","0.0-13.0-2.108","66","High_HMMActual","","","","","","null","","","","Images/WhiteBeadChoiceCorrect.png","","null"
"image-button-response","386","413826","0.0-13.0-0.109","66","High_HMMActual","","","","","","259.78999998187646","","","","Images/NewTrialWC.png","","0"
"image-button-response","387","414134","0.0-13.0-1.109","66","High_HMMActual","","","","","","null","","","","Images/BlackBeadChoice.png","","null"
"image-button-response","388","414642","0.0-13.0-2.109","66","High_HMMActual","","","","","","null","","","","Images/BlackBeadChoiceCorrect.png","","null"
"image-button-response","389","414920","0.0-13.0-0.110","66","High_HMMActual","","","","","","271.1649999837391","","","","Images/NewTrialBC.png","","2"
"image-button-response","390","415237","0.0-13.0-1.110","66","High_HMMActual","","","","","","null","","","","Images/WhiteBeadChoice.png","","null"
"image-button-response","391","415747","0.0-13.0-2.110","66","High_HMMActual","","","","","","null","","","","Images/WhiteBeadChoiceCorrect.png","","null"
"image-button-response","392","416036","0.0-13.0-0.111","66","High_HMMActual","","","","","","285.55000002961606","","","","Images/NewTrialWC.png","","0"
"image-button-response","393","416357","0.0-13.0-1.111","66","High_HMMActual","","","","","","null","","","","Images/BlackBeadChoice.png","","null"
"image-button-response","394","416863","0.0-13.0-2.111","66","High_HMMActual","","","","","","null","","","","Images/BlackBeadChoiceWrong.png","","null"
"image-button-response","395","417448","0.0-13.0-0.112","66","High_HMMActual","","","","","","580.4099999950267","","","","Images/NewTrialWC.png","","0"
"image-button-response","396","417760","0.0-13.0-1.112","66","High_HMMActual","","","","","","null","","","","Images/BlackBeadChoice.png","","null"
"image-button-response","397","418267","0.0-13.0-2.112","66","High_HMMActual","","","","","","null","","","","Images/BlackBeadChoiceWrong.png","","null"
"image-button-response","398","418671","0.0-13.0-0.113","66","High_HMMActual","","","","","","400.6350000272505","","","","Images/NewTrialWC.png","","0"
"image-button-response","399","418988","0.0-13.0-1.113","66","High_HMMActual","","","","","","null","","","","Images/BlackBeadChoice.png","","null"
"image-button-response","400","419492","0.0-13.0-2.113","66","High_HMMActual","","","","","","null","","","","Images/BlackBeadChoiceCorrect.png","","null"
"image-button-response","401","419757","0.0-13.0-0.114","66","High_HMMActual","","","","","","261.1750000505708","","","","Images/NewTrialBC.png","","2"
"image-button-response","402","420069","0.0-13.0-1.114","66","High_HMMActual","","","","","","null","","","","Images/WhiteBeadChoice.png","","null"
"image-button-response","403","420583","0.0-13.0-2.114","66","High_HMMActual","","","","","","null","","","","Images/WhiteBeadChoiceWrong.png","","null"
"image-button-response","404","421206","0.0-13.0-0.115","66","High_HMMActual","","","","","","618.8100000144914","","","","Images/NewTrialBC.png","","2"
"image-button-response","405","421521","0.0-13.0-1.115","66","High_HMMActual","","","","","","null","","","","Images/WhiteBeadChoice.png","","null"
"image-button-response","406","422031","0.0-13.0-2.115","66","High_HMMActual","","","","","","null","","","","Images/WhiteBeadChoiceWrong.png","","null"
"image-button-response","407","422440","0.0-13.0-0.116","66","High_HMMActual","","","","","","404.62500002468005","","","","Images/NewTrialBC.png","","2"
"image-button-response","408","422758","0.0-13.0-1.116","66","High_HMMActual","","","","","","null","","","","Images/WhiteBeadChoice.png","","null"
"image-button-response","409","423276","0.0-13.0-2.116","66","High_HMMActual","","","","","","null","","","","Images/WhiteBeadChoiceCorrect.png","","null"
"image-button-response","410","423701","0.0-13.0-0.117","66","High_HMMActual","","","","","","422.41500003729016","","","","Images/NewTrialWC.png","","0"
"image-button-response","411","424017","0.0-13.0-1.117","66","High_HMMActual","","","","","","null","","","","Images/BlackBeadChoice.png","","null"
"image-button-response","412","424525","0.0-13.0-2.117","66","High_HMMActual","","","","","","null","","","","Images/BlackBeadChoiceCorrect.png","","null"
"image-button-response","413","425987","0.0-13.0-0.118","66","High_HMMActual","","","","","","1458.669999963604","","","","Images/NewTrialBC.png","","2"
"image-button-response","414","426294","0.0-13.0-1.118","66","High_HMMActual","","","","","","null","","","","Images/WhiteBeadChoice.png","","null"
"image-button-response","415","426808","0.0-13.0-2.118","66","High_HMMActual","","","","","","null","","","","Images/WhiteBeadChoiceCorrect.png","","null"
"image-button-response","416","427160","0.0-13.0-0.119","66","High_HMMActual","","","","","","349.37000001082197","","","","Images/NewTrialWC.png","","0"
"image-button-response","417","427475","0.0-13.0-1.119","66","High_HMMActual","","","","","","null","","","","Images/BlackBeadChoice.png","","null"
"image-button-response","418","427985","0.0-13.0-2.119","66","High_HMMActual","","","","","","null","","","","Images/BlackBeadChoiceWrong.png","","null"
"image-button-response","419","428393","0.0-13.0-0.120","66","High_HMMActual","","","","","","404.065000009723","","","","Images/NewTrialWC.png","","0"
"image-button-response","420","428708","0.0-13.0-1.120","66","High_HMMActual","","","","","","null","","","","Images/BlackBeadChoice.png","","null"
"image-button-response","421","429219","0.0-13.0-2.120","66","High_HMMActual","","","","","","null","","","","Images/BlackBeadChoiceCorrect.png","","null"
"image-button-response","422","429879","0.0-13.0-0.121","66","High_HMMActual","","","","","","656.7299999878742","","","","Images/NewTrialBC.png","","2"
"image-button-response","423","430192","0.0-13.0-1.121","66","High_HMMActual","","","","","","null","","","","Images/WhiteBeadChoice.png","","null"
"image-button-response","424","430704","0.0-13.0-2.121","66","High_HMMActual","","","","","","null","","","","Images/WhiteBeadChoiceWrong.png","","null"
"image-button-response","425","432037","0.0-13.0-0.122","66","High_HMMActual","","","","","","1330.690000031609","","","","Images/NewTrialBC.png","","2"
"image-button-response","426","432342","0.0-13.0-1.122","66","High_HMMActual","","","","","","null","","","","Images/WhiteBeadChoice.png","","null"
"image-button-response","427","432857","0.0-13.0-2.122","66","High_HMMActual","","","","","","null","","","","Images/WhiteBeadChoiceCorrect.png","","null"
"image-button-response","428","433155","0.0-13.0-0.123","66","High_HMMActual","","","","","","295.43500003637746","","","","Images/NewTrialWC.png","","0"
"image-button-response","429","433466","0.0-13.0-1.123","66","High_HMMActual","","","","","","null","","","","Images/BlackBeadChoice.png","","null"
"image-button-response","430","433981","0.0-13.0-2.123","66","High_HMMActual","","","","","","null","","","","Images/BlackBeadChoiceCorrect.png","","null"
"image-button-response","431","434466","0.0-13.0-0.124","66","High_HMMActual","","","","","","480.6399999652058","","","","Images/NewTrialBC.png","","2"
"image-button-response","432","434771","0.0-13.0-1.124","66","High_HMMActual","","","","","","null","","","","Images/WhiteBeadChoice.png","","null"
"image-button-response","433","435276","0.0-13.0-2.124","66","High_HMMActual","","","","","","null","","","","Images/WhiteBeadChoiceCorrect.png","","null"
"image-button-response","434","435974","0.0-13.0-0.125","66","High_HMMActual","","","","","","694.4500000099652","","","","Images/NewTrialWC.png","","0"
"image-button-response","435","436288","0.0-13.0-1.125","66","High_HMMActual","","","","","","null","","","","Images/BlackBeadChoice.png","","null"
"image-button-response","436","436795","0.0-13.0-2.125","66","High_HMMActual","","","","","","null","","","","Images/BlackBeadChoiceCorrect.png","","null"
"image-button-response","437","437131","0.0-13.0-0.126","66","High_HMMActual","","","","","","321.7449999647215","","","","Images/NewTrialBC.png","","2"
"image-button-response","438","437442","0.0-13.0-1.126","66","High_HMMActual","","","","","","null","","","","Images/WhiteBeadChoice.png","","null"
"image-button-response","439","437954","0.0-13.0-2.126","66","High_HMMActual","","","","","","null","","","","Images/WhiteBeadChoiceCorrect.png","","null"
"image-button-response","440","438201","0.0-13.0-0.127","66","High_HMMActual","","","","","","241.8349999934435","","","","Images/NewTrialWC.png","","0"
"image-button-response","441","438521","0.0-13.0-1.127","66","High_HMMActual","","","","","","null","","","","Images/BlackBeadChoice.png","","null"
"image-button-response","442","439035","0.0-13.0-2.127","66","High_HMMActual","","","","","","null","","","","Images/BlackBeadChoiceCorrect.png","","null"
"image-button-response","443","439356","0.0-13.0-0.128","66","High_HMMActual","","","","","","317.60999996913597","","","","Images/NewTrialBC.png","","2"
"image-button-response","444","439670","0.0-13.0-1.128","66","High_HMMActual","","","","","","null","","","","Images/WhiteBeadChoice.png","","null"
"image-button-response","445","440184","0.0-13.0-2.128","66","High_HMMActual","","","","","","null","","","","Images/WhiteBeadChoiceCorrect.png","","null"
"image-button-response","446","440452","0.0-13.0-0.129","66","High_HMMActual","","","","","","263.15999997314066","","","","Images/NewTrialWC.png","","0"
"image-button-response","447","440769","0.0-13.0-1.129","66","High_HMMActual","","","","","","null","","","","Images/BlackBeadChoice.png","","null"
"image-button-response","448","441281","0.0-13.0-2.129","66","High_HMMActual","","","","","","null","","","","Images/BlackBeadChoiceCorrect.png","","null"
"image-button-response","449","441600","0.0-13.0-0.130","66","High_HMMActual","","","","","","314.17000002693385","","","","Images/NewTrialBC.png","","2"
"image-button-response","450","441918","0.0-13.0-1.130","66","High_HMMActual","","","","","","null","","","","Images/WhiteBeadChoice.png","","null"
"image-button-response","451","442428","0.0-13.0-2.130","66","High_HMMActual","","","","","","null","","","","Images/WhiteBeadChoiceCorrect.png","","null"
"image-button-response","452","442694","0.0-13.0-0.131","66","High_HMMActual","","","","","","262.1649999637157","","","","Images/NewTrialWC.png","","0"
"image-button-response","453","443007","0.0-13.0-1.131","66","High_HMMActual","","","","","","null","","","","Images/BlackBeadChoice.png","","null"
"image-button-response","454","443511","0.0-13.0-2.131","66","High_HMMActual","","","","","","null","","","","Images/BlackBeadChoiceCorrect.png","","null"
"image-button-response","455","443725","0.0-13.0-0.132","66","High_HMMActual","","","","","","210.32000001287088","","","","Images/NewTrialBC.png","","2"
"image-button-response","456","444032","0.0-13.0-1.132","66","High_HMMActual","","","","","","null","","","","Images/WhiteBeadChoice.png","","null"
"image-button-response","457","444542","0.0-13.0-2.132","66","High_HMMActual","","","","","","null","","","","Images/WhiteBeadChoiceCorrect.png","","null"
"image-button-response","458","444841","0.0-13.0-0.133","66","High_HMMActual","","","","","","294.12999999476597","","","","Images/NewTrialWC.png","","0"
"image-button-response","459","445155","0.0-13.0-1.133","66","High_HMMActual","","","","","","null","","","","Images/BlackBeadChoice.png","","null"
"image-button-response","460","445666","0.0-13.0-2.133","66","High_HMMActual","","","","","","null","","","","Images/BlackBeadChoiceCorrect.png","","null"
"image-button-response","461","445964","0.0-13.0-0.134","66","High_HMMActual","","","","","","291.56500002136454","","","","Images/NewTrialBC.png","","2"
"image-button-response","462","446281","0.0-13.0-1.134","66","High_HMMActual","","","","","","null","","","","Images/WhiteBeadChoice.png","","null"
"image-button-response","463","446798","0.0-13.0-2.134","66","High_HMMActual","","","","","","null","","","","Images/WhiteBeadChoiceCorrect.png","","null"
"image-button-response","464","447232","0.0-13.0-0.135","66","High_HMMActual","","","","","","430.59500004164875","","","","Images/NewTrialWC.png","","0"
"image-button-response","465","447552","0.0-13.0-1.135","66","High_HMMActual","","","","","","null","","","","Images/BlackBeadChoice.png","","null"
"image-button-response","466","448066","0.0-13.0-2.135","66","High_HMMActual","","","","","","null","","","","Images/BlackBeadChoiceCorrect.png","","null"
"image-button-response","467","448286","0.0-13.0-0.136","66","High_HMMActual","","","","","","215.90000001015142","","","","Images/NewTrialBC.png","","2"
"image-button-response","468","448605","0.0-13.0-1.136","66","High_HMMActual","","","","","","null","","","","Images/WhiteBeadChoice.png","","null"
"image-button-response","469","449117","0.0-13.0-2.136","66","High_HMMActual","","","","","","null","","","","Images/WhiteBeadChoiceCorrect.png","","null"
"image-button-response","470","449343","0.0-13.0-0.137","66","High_HMMActual","","","","","","222.0549999619834","","","","Images/NewTrialWC.png","","0"
"image-button-response","471","449658","0.0-13.0-1.137","66","High_HMMActual","","","","","","null","","","","Images/BlackBeadChoice.png","","null"
"image-button-response","472","450172","0.0-13.0-2.137","66","High_HMMActual","","","","","","null","","","","Images/BlackBeadChoiceCorrect.png","","null"
"image-button-response","473","450370","0.0-13.0-0.138","66","High_HMMActual","","","","","","185.33500004559755","","","","Images/NewTrialBC.png","","2"
"image-button-response","474","450678","0.0-13.0-1.138","66","High_HMMActual","","","","","","null","","","","Images/WhiteBeadChoice.png","","null"
"image-button-response","475","451182","0.0-13.0-2.138","66","High_HMMActual","","","","","","null","","","","Images/WhiteBeadChoiceWrong.png","","null"
"image-button-response","476","451928","0.0-13.0-0.139","66","High_HMMActual","","","","","","742.194999998901","","","","Images/NewTrialBC.png","","2"
"image-button-response","477","452234","0.0-13.0-1.139","66","High_HMMActual","","","","","","null","","","","Images/WhiteBeadChoice.png","","null"
"image-button-response","478","452752","0.0-13.0-2.139","66","High_HMMActual","","","","","","null","","","","Images/WhiteBeadChoiceCorrect.png","","null"
"image-button-response","479","452955","0.0-13.0-0.140","66","High_HMMActual","","","","","","199.2949999985285","","","","Images/NewTrialWC.png","","0"
"image-button-response","480","453267","0.0-13.0-1.140","66","High_HMMActual","","","","","","null","","","","Images/BlackBeadChoice.png","","null"
"image-button-response","481","453783","0.0-13.0-2.140","66","High_HMMActual","","","","","","null","","","","Images/BlackBeadChoiceCorrect.png","","null"
"image-button-response","482","454039","0.0-13.0-0.141","66","High_HMMActual","","","","","","241.57499999273568","","","","Images/NewTrialBC.png","","2"
"image-button-response","483","454348","0.0-13.0-1.141","66","High_HMMActual","","","","","","null","","","","Images/WhiteBeadChoice.png","","null"
"image-button-response","484","454856","0.0-13.0-2.141","66","High_HMMActual","","","","","","null","","","","Images/WhiteBeadChoiceCorrect.png","","null"
"image-button-response","485","455167","0.0-13.0-0.142","66","High_HMMActual","","","","","","307.65500001143664","","","","Images/NewTrialWC.png","","0"
"image-button-response","486","455471","0.0-13.0-1.142","66","High_HMMActual","","","","","","null","","","","Images/BlackBeadChoice.png","","null"
"image-button-response","487","455986","0.0-13.0-2.142","66","High_HMMActual","","","","","","null","","","","Images/BlackBeadChoiceWrong.png","","null"
"image-button-response","488","456608","0.0-13.0-0.143","66","High_HMMActual","","","","","","618.2000000262633","","","","Images/NewTrialWC.png","","0"
"image-button-response","489","456917","0.0-13.0-1.143","66","High_HMMActual","","","","","","null","","","","Images/BlackBeadChoice.png","","null"
"image-button-response","490","457425","0.0-13.0-2.143","66","High_HMMActual","","","","","","null","","","","Images/BlackBeadChoiceWrong.png","","null"
"image-button-response","491","457767","0.0-13.0-0.144","66","High_HMMActual","","","","","","339.75500002270564","","","","Images/NewTrialWC.png","","0"
"image-button-response","492","458088","0.0-13.0-1.144","66","High_HMMActual","","","","","","null","","","","Images/BlackBeadChoice.png","","null"
"image-button-response","493","458606","0.0-13.0-2.144","66","High_HMMActual","","","","","","null","","","","Images/BlackBeadChoiceCorrect.png","","null"
"image-button-response","494","459158","0.0-13.0-0.145","66","High_HMMActual","","","","","","547.6250000065193","","","","Images/NewTrialBC.png","","2"
"image-button-response","495","459471","0.0-13.0-1.145","66","High_HMMActual","","","","","","null","","","","Images/WhiteBeadChoice.png","","null"
"image-button-response","496","459983","0.0-13.0-2.145","66","High_HMMActual","","","","","","null","","","","Images/WhiteBeadChoiceCorrect.png","","null"
"image-button-response","497","460399","0.0-13.0-0.146","66","High_HMMActual","","","","","","411.36999998707324","","","","Images/NewTrialWC.png","","0"
"image-button-response","498","460716","0.0-13.0-1.146","66","High_HMMActual","","","","","","null","","","","Images/BlackBeadChoice.png","","null"
"image-button-response","499","461223","0.0-13.0-2.146","66","High_HMMActual","","","","","","null","","","","Images/BlackBeadChoiceCorrect.png","","null"
"image-button-response","500","461842","0.0-13.0-0.147","66","High_HMMActual","","","","","","615.4249999672174","","","","Images/NewTrialBC.png","","2"
"image-button-response","501","462154","0.0-13.0-1.147","66","High_HMMActual","","","","","","null","","","","Images/WhiteBeadChoice.png","","null"
"image-button-response","502","462666","0.0-13.0-2.147","66","High_HMMActual","","","","","","null","","","","Images/WhiteBeadChoiceCorrect.png","","null"
"image-button-response","503","462910","0.0-13.0-0.148","66","High_HMMActual","","","","","","240.29499996686354","","","","Images/NewTrialWC.png","","0"
"image-button-response","504","463216","0.0-13.0-1.148","66","High_HMMActual","","","","","","null","","","","Images/BlackBeadChoice.png","","null"
"image-button-response","505","463734","0.0-13.0-2.148","66","High_HMMActual","","","","","","null","","","","Images/BlackBeadChoiceCorrect.png","","null"
"image-button-response","506","464067","0.0-13.0-0.149","66","High_HMMActual","","","","","","328.41499999631196","","","","Images/NewTrialBC.png","","2"
"image-button-response","507","464372","0.0-13.0-1.149","66","High_HMMActual","","","","","","null","","","","Images/WhiteBeadChoice.png","","null"
"image-button-response","508","464891","0.0-13.0-2.149","66","High_HMMActual","","","","","","null","","","","Images/WhiteBeadChoiceCorrect.png","","null"
"image-button-response","509","465139","0.0-13.0-0.150","66","High_HMMActual","","","","","","244.2000000155531","","","","Images/NewTrialWC.png","","0"
"image-button-response","510","465453","0.0-13.0-1.150","66","High_HMMActual","","","","","","null","","","","Images/BlackBeadChoice.png","","null"
"image-button-response","511","465964","0.0-13.0-2.150","66","High_HMMActual","","","","","","null","","","","Images/BlackBeadChoiceCorrect.png","","null"
"image-button-response","512","466174","0.0-13.0-0.151","66","High_HMMActual","","","","","","205.63000004040077","","","","Images/NewTrialBC.png","","2"
"image-button-response","513","466489","0.0-13.0-1.151","66","High_HMMActual","","","","","","null","","","","Images/WhiteBeadChoice.png","","null"
"image-button-response","514","466995","0.0-13.0-2.151","66","High_HMMActual","","","","","","null","","","","Images/WhiteBeadChoiceWrong.png","","null"
"image-button-response","515","467688","0.0-13.0-0.152","66","High_HMMActual","","","","","","687.4550000065938","","","","Images/NewTrialBC.png","","2"
"image-button-response","516","468002","0.0-13.0-1.152","66","High_HMMActual","","","","","","null","","","","Images/WhiteBeadChoice.png","","null"
"image-button-response","517","468509","0.0-13.0-2.152","66","High_HMMActual","","","","","","null","","","","Images/WhiteBeadChoiceWrong.png","","null"
"image-button-response","518","468735","0.0-13.0-0.153","66","High_HMMActual","","","","","","222.43999998318031","","","","Images/NewTrialBC.png","","2"
"image-button-response","519","469050","0.0-13.0-1.153","66","High_HMMActual","","","","","","null","","","","Images/WhiteBeadChoice.png","","null"
"image-button-response","520","469562","0.0-13.0-2.153","66","High_HMMActual","","","","","","null","","","","Images/WhiteBeadChoiceCorrect.png","","null"
"image-button-response","521","469879","0.0-13.0-0.154","66","High_HMMActual","","","","","","313.85999999474734","","","","Images/NewTrialWC.png","","0"
"image-button-response","522","470186","0.0-13.0-1.154","66","High_HMMActual","","","","","","null","","","","Images/BlackBeadChoice.png","","null"
"image-button-response","523","470692","0.0-13.0-2.154","66","High_HMMActual","","","","","","null","","","","Images/BlackBeadChoiceCorrect.png","","null"
"image-button-response","524","470946","0.0-13.0-0.155","66","High_HMMActual","","","","","","250.10999996447936","","","","Images/NewTrialBC.png","","2"
"image-button-response","525","471252","0.0-13.0-1.155","66","High_HMMActual","","","","","","null","","","","Images/WhiteBeadChoice.png","","null"
"image-button-response","526","471765","0.0-13.0-2.155","66","High_HMMActual","","","","","","null","","","","Images/WhiteBeadChoiceCorrect.png","","null"
"image-button-response","527","471978","0.0-13.0-0.156","66","High_HMMActual","","","","","","208.55500001925975","","","","Images/NewTrialWC.png","","0"
"image-button-response","528","472287","0.0-13.0-1.156","66","High_HMMActual","","","","","","null","","","","Images/BlackBeadChoice.png","","null"
"image-button-response","529","472799","0.0-13.0-2.156","66","High_HMMActual","","","","","","null","","","","Images/BlackBeadChoiceCorrect.png","","null"
"image-button-response","530","473014","0.0-13.0-0.157","66","High_HMMActual","","","","","","207.82999997027218","","","","Images/NewTrialBC.png","","2"
"image-button-response","531","473329","0.0-13.0-1.157","66","High_HMMActual","","","","","","null","","","","Images/WhiteBeadChoice.png","","null"
"image-button-response","532","473845","0.0-13.0-2.157","66","High_HMMActual","","","","","","null","","","","Images/WhiteBeadChoiceCorrect.png","","null"
"image-button-response","533","474123","0.0-13.0-0.158","66","High_HMMActual","","","","","","274.11999995820224","","","","Images/NewTrialWC.png","","0"
"image-button-response","534","474428","0.0-13.0-1.158","66","High_HMMActual","","","","","","null","","","","Images/BlackBeadChoice.png","","null"
"image-button-response","535","474936","0.0-13.0-2.158","66","High_HMMActual","","","","","","null","","","","Images/BlackBeadChoiceCorrect.png","","null"
"image-button-response","536","475106","0.0-13.0-0.159","66","High_HMMActual","","","","","","165.804999996908","","","","Images/NewTrialBC.png","","2"
"image-button-response","537","475422","0.0-13.0-1.159","66","High_HMMActual","","","","","","null","","","","Images/WhiteBeadChoice.png","","null"
"image-button-response","538","475927","0.0-13.0-2.159","66","High_HMMActual","","","","","","null","","","","Images/WhiteBeadChoiceCorrect.png","","null"
"image-button-response","539","476420","0.0-13.0-0.160","66","High_HMMActual","","","","","","489.3949999823235","","","","Images/NewTrialWC.png","","0"
"image-button-response","540","476733","0.0-13.0-1.160","66","High_HMMActual","","","","","","null","","","","Images/BlackBeadChoice.png","","null"
"image-button-response","541","477239","0.0-13.0-2.160","66","High_HMMActual","","","","","","null","","","","Images/BlackBeadChoiceCorrect.png","","null"
"image-button-response","542","477868","0.0-13.0-0.161","66","High_HMMActual","","","","","","625.5050000036135","","","","Images/NewTrialBC.png","","2"
"image-button-response","543","478184","0.0-13.0-1.161","66","High_HMMActual","","","","","","null","","","","Images/WhiteBeadChoice.png","","null"
"image-button-response","544","478689","0.0-13.0-2.161","66","High_HMMActual","","","","","","null","","","","Images/WhiteBeadChoiceCorrect.png","","null"
"image-button-response","545","479083","0.0-13.0-0.162","66","High_HMMActual","","","","","","379.9950000247918","","","","Images/NewTrialWC.png","","0"
"image-button-response","546","479389","0.0-13.0-1.162","66","High_HMMActual","","","","","","null","","","","Images/BlackBeadChoice.png","","null"
"image-button-response","547","479898","0.0-13.0-2.162","66","High_HMMActual","","","","","","null","","","","Images/BlackBeadChoiceCorrect.png","","null"
"image-button-response","548","480291","0.0-13.0-0.163","66","High_HMMActual","","","","","","388.63499998115003","","","","Images/NewTrialBC.png","","2"
"image-button-response","549","480598","0.0-13.0-1.163","66","High_HMMActual","","","","","","null","","","","Images/WhiteBeadChoice.png","","null"
"image-button-response","550","481107","0.0-13.0-2.163","66","High_HMMActual","","","","","","null","","","","Images/WhiteBeadChoiceCorrect.png","","null"
"image-button-response","551","481324","0.0-13.0-0.164","66","High_HMMActual","","","","","","212.8099999972619","","","","Images/NewTrialWC.png","","0"
"image-button-response","552","481628","0.0-13.0-1.164","66","High_HMMActual","","","","","","null","","","","Images/BlackBeadChoice.png","","null"
"image-button-response","553","482132","0.0-13.0-2.164","66","High_HMMActual","","","","","","null","","","","Images/BlackBeadChoiceCorrect.png","","null"
"image-button-response","554","482421","0.0-13.0-0.165","66","High_HMMActual","","","","","","286.40500002074987","","","","Images/NewTrialBC.png","","2"
"image-button-response","555","482747","0.0-13.0-1.165","66","High_HMMActual","","","","","","null","","","","Images/WhiteBeadChoice.png","","null"
"image-button-response","556","483264","0.0-13.0-2.165","66","High_HMMActual","","","","","","null","","","","Images/WhiteBeadChoiceCorrect.png","","null"
"image-button-response","557","483811","0.0-13.0-0.166","66","High_HMMActual","","","","","","543.6849999823608","","","","Images/NewTrialWC.png","","0"
"image-button-response","558","484125","0.0-13.0-1.166","66","High_HMMActual","","","","","","null","","","","Images/BlackBeadChoice.png","","null"
"image-button-response","559","484639","0.0-13.0-2.166","66","High_HMMActual","","","","","","null","","","","Images/BlackBeadChoiceWrong.png","","null"
"image-button-response","560","485182","0.0-13.0-0.167","66","High_HMMActual","","","","","","536.4050000207499","","","","Images/NewTrialWC.png","","0"
"image-button-response","561","485500","0.0-13.0-1.167","66","High_HMMActual","","","","","","null","","","","Images/BlackBeadChoice.png","","null"
"image-button-response","562","486015","0.0-13.0-2.167","66","High_HMMActual","","","","","","null","","","","Images/BlackBeadChoiceWrong.png","","null"
"image-button-response","563","486327","0.0-13.0-0.168","66","High_HMMActual","","","","","","308.91500000143424","","","","Images/NewTrialWC.png","","0"
"image-button-response","564","486632","0.0-13.0-1.168","66","High_HMMActual","","","","","","null","","","","Images/BlackBeadChoice.png","","null"
"image-button-response","565","487142","0.0-13.0-2.168","66","High_HMMActual","","","","","","null","","","","Images/BlackBeadChoiceCorrect.png","","null"
"image-button-response","566","487560","0.0-13.0-0.169","66","High_HMMActual","","","","","","413.42499997699633","","","","Images/NewTrialBC.png","","2"
"image-button-response","567","487873","0.0-13.0-1.169","66","High_HMMActual","","","","","","null","","","","Images/WhiteBeadChoice.png","","null"
"image-button-response","568","488379","0.0-13.0-2.169","66","High_HMMActual","","","","","","null","","","","Images/WhiteBeadChoiceCorrect.png","","null"
"image-button-response","569","488838","0.0-13.0-0.170","66","High_HMMActual","","","","","","454.85999999800697","","","","Images/NewTrialWC.png","","0"
"image-button-response","570","489150","0.0-13.0-1.170","66","High_HMMActual","","","","","","null","","","","Images/BlackBeadChoice.png","","null"
"image-button-response","571","489659","0.0-13.0-2.170","66","High_HMMActual","","","","","","null","","","","Images/BlackBeadChoiceCorrect.png","","null"
"image-button-response","572","491399","0.0-13.0-0.171","66","High_HMMActual","","","","","","1736.5800000261515","","","","Images/NewTrialBC.png","","2"
"image-button-response","573","491703","0.0-13.0-1.171","66","High_HMMActual","","","","","","null","","","","Images/WhiteBeadChoice.png","","null"
"image-button-response","574","492220","0.0-13.0-2.171","66","High_HMMActual","","","","","","null","","","","Images/WhiteBeadChoiceCorrect.png","","null"
"image-button-response","575","492937","0.0-13.0-0.172","66","High_HMMActual","","","","","","706.934999965597","","","","Images/NewTrialWC.png","","0"
"image-button-response","576","493253","0.0-13.0-1.172","66","High_HMMActual","","","","","","null","","","","Images/BlackBeadChoice.png","","null"
"image-button-response","577","493757","0.0-13.0-2.172","66","High_HMMActual","","","","","","null","","","","Images/BlackBeadChoiceCorrect.png","","null"
"image-button-response","578","497028","0.0-13.0-0.173","66","High_HMMActual","","","","","","3266.8850000482053","","","","Images/NewTrialBC.png","","2"
"image-button-response","579","497336","0.0-13.0-1.173","66","High_HMMActual","","","","","","null","","","","Images/WhiteBeadChoice.png","","null"
"image-button-response","580","497850","0.0-13.0-2.173","66","High_HMMActual","","","","","","null","","","","Images/WhiteBeadChoiceCorrect.png","","null"
"image-button-response","581","498263","0.0-13.0-0.174","66","High_HMMActual","","","","","","409.4100000220351","","","","Images/NewTrialWC.png","","0"
"image-button-response","582","498580","0.0-13.0-1.174","66","High_HMMActual","","","","","","null","","","","Images/BlackBeadChoice.png","","null"
"image-button-response","583","499094","0.0-13.0-2.174","66","High_HMMActual","","","","","","null","","","","Images/BlackBeadChoiceCorrect.png","","null"
"image-button-response","584","499796","0.0-13.0-0.175","66","High_HMMActual","","","","","","699.1149999666959","","","","Images/NewTrialBC.png","","2"
"image-button-response","585","500108","0.0-13.0-1.175","66","High_HMMActual","","","","","","null","","","","Images/WhiteBeadChoice.png","","null"
"image-button-response","586","500625","0.0-13.0-2.175","66","High_HMMActual","","","","","","null","","","","Images/WhiteBeadChoiceCorrect.png","","null"
"image-button-response","587","500850","0.0-13.0-0.176","66","High_HMMActual","","","","","","222.47999999672174","","","","Images/NewTrialWC.png","","0"
"image-button-response","588","501167","0.0-13.0-1.176","66","High_HMMActual","","","","","","null","","","","Images/BlackBeadChoice.png","","null"
"image-button-response","589","501676","0.0-13.0-2.176","66","High_HMMActual","","","","","","null","","","","Images/BlackBeadChoiceCorrect.png","","null"
"image-button-response","590","502080","0.0-13.0-0.177","66","High_HMMActual","","","","","","399.67000001342967","","","","Images/NewTrialBC.png","","2"
"image-button-response","591","502396","0.0-13.0-1.177","66","High_HMMActual","","","","","","null","","","","Images/WhiteBeadChoice.png","","null"
"image-button-response","592","502902","0.0-13.0-2.177","66","High_HMMActual","","","","","","null","","","","Images/WhiteBeadChoiceCorrect.png","","null"
"image-button-response","593","503101","0.0-13.0-0.178","66","High_HMMActual","","","","","","195.52499998826534","","","","Images/NewTrialWC.png","","0"
"image-button-response","594","503408","0.0-13.0-1.178","66","High_HMMActual","","","","","","null","","","","Images/BlackBeadChoice.png","","null"
"image-button-response","595","503920","0.0-13.0-2.178","66","High_HMMActual","","","","","","null","","","","Images/BlackBeadChoiceCorrect.png","","null"
"image-button-response","596","504201","0.0-13.0-0.179","66","High_HMMActual","","","","","","267.44000002508983","","","","Images/NewTrialBC.png","","2"
"image-button-response","597","504514","0.0-13.0-1.179","66","High_HMMActual","","","","","","null","","","","Images/WhiteBeadChoice.png","","null"
"image-button-response","598","505024","0.0-13.0-2.179","66","High_HMMActual","","","","","","null","","","","Images/WhiteBeadChoiceCorrect.png","","null"
"image-button-response","599","505507","0.0-13.0-0.180","66","High_HMMActual","","","","","","478.0800000298768","","","","Images/NewTrialWC.png","","0"
"image-button-response","600","505815","0.0-13.0-1.180","66","High_HMMActual","","","","","","null","","","","Images/BlackBeadChoice.png","","null"
"image-button-response","601","506328","0.0-13.0-2.180","66","High_HMMActual","","","","","","null","","","","Images/BlackBeadChoiceCorrect.png","","null"
"image-button-response","602","506623","0.0-13.0-0.181","66","High_HMMActual","","","","","","290.9250000375323","","","","Images/NewTrialBC.png","","2"
"image-button-response","603","506937","0.0-13.0-1.181","66","High_HMMActual","","","","","","null","","","","Images/WhiteBeadChoice.png","","null"
"image-button-response","604","507446","0.0-13.0-2.181","66","High_HMMActual","","","","","","null","","","","Images/WhiteBeadChoiceCorrect.png","","null"
"image-button-response","605","507597","0.0-13.0-0.182","66","High_HMMActual","","","","","","146.98499999940395","","","","Images/NewTrialWC.png","","0"
"image-button-response","606","507929","0.0-13.0-1.182","66","High_HMMActual","","","","","","null","","","","Images/BlackBeadChoice.png","","null"
"image-button-response","607","508438","0.0-13.0-2.182","66","High_HMMActual","","","","","","null","","","","Images/BlackBeadChoiceCorrect.png","","null"
"image-button-response","608","508635","0.0-13.0-0.183","66","High_HMMActual","","","","","","193.66500002797693","","","","Images/NewTrialBC.png","","2"
"image-button-response","609","508946","0.0-13.0-1.183","66","High_HMMActual","","","","","","null","","","","Images/WhiteBeadChoice.png","","null"
"image-button-response","610","509462","0.0-13.0-2.183","66","High_HMMActual","","","","","","null","","","","Images/WhiteBeadChoiceCorrect.png","","null"
"image-button-response","611","509748","0.0-13.0-0.184","66","High_HMMActual","","","","","","282.5249999877997","","","","Images/NewTrialWC.png","","0"
"image-button-response","612","510064","0.0-13.0-1.184","66","High_HMMActual","","","","","","null","","","","Images/BlackBeadChoice.png","","null"
"image-button-response","613","510579","0.0-13.0-2.184","66","High_HMMActual","","","","","","null","","","","Images/BlackBeadChoiceWrong.png","","null"
"image-button-response","614","510969","0.0-13.0-0.185","66","High_HMMActual","","","","","","385.76500001363456","","","","Images/NewTrialWC.png","","0"
"image-button-response","615","511281","0.0-13.0-1.185","66","High_HMMActual","","","","","","null","","","","Images/BlackBeadChoice.png","","null"
"image-button-response","616","511797","0.0-13.0-2.185","66","High_HMMActual","","","","","","null","","","","Images/BlackBeadChoiceWrong.png","","null"
"image-button-response","617","512017","0.0-13.0-0.186","66","High_HMMActual","","","","","","214.9349999963306","","","","Images/NewTrialWC.png","","0"
"image-button-response","618","512330","0.0-13.0-1.186","66","High_HMMActual","","","","","","null","","","","Images/BlackBeadChoice.png","","null"
"image-button-response","619","512843","0.0-13.0-2.186","66","High_HMMActual","","","","","","null","","","","Images/BlackBeadChoiceCorrect.png","","null"
"image-button-response","620","513385","0.0-13.0-0.187","66","High_HMMActual","","","","","","538.4450000128709","","","","Images/NewTrialBC.png","","2"
"image-button-response","621","513689","0.0-13.0-1.187","66","High_HMMActual","","","","","","null","","","","Images/WhiteBeadChoice.png","","null"
"image-button-response","622","514195","0.0-13.0-2.187","66","High_HMMActual","","","","","","null","","","","Images/WhiteBeadChoiceCorrect.png","","null"
"image-button-response","623","514421","0.0-13.0-0.188","66","High_HMMActual","","","","","","222.6449999725446","","","","Images/NewTrialWC.png","","0"
"image-button-response","624","514738","0.0-13.0-1.188","66","High_HMMActual","","","","","","null","","","","Images/BlackBeadChoice.png","","null"
"image-button-response","625","515244","0.0-13.0-2.188","66","High_HMMActual","","","","","","null","","","","Images/BlackBeadChoiceCorrect.png","","null"
"image-button-response","626","515457","0.0-13.0-0.189","66","High_HMMActual","","","","","","209.35000001918525","","","","Images/NewTrialBC.png","","2"
"image-button-response","627","515763","0.0-13.0-1.189","66","High_HMMActual","","","","","","null","","","","Images/WhiteBeadChoice.png","","null"
"image-button-response","628","516286","0.0-13.0-2.189","66","High_HMMActual","","","","","","null","","","","Images/WhiteBeadChoiceWrong.png","","null"
"image-button-response","629","516436","0.0-13.0-0.190","66","High_HMMActual","","","","","","146.92999998806044","","","","Images/NewTrialBC.png","","0"
"image-button-response","630","516748","0.0-13.0-1.190","66","High_HMMActual","","","","","","null","","","","Images/BlackBeadChoice.png","","null"
"image-button-response","631","517262","0.0-13.0-2.190","66","High_HMMActual","","","","","","null","","","","Images/BlackBeadChoiceCorrect.png","","null"
"image-button-response","632","517628","0.0-13.0-0.191","66","High_HMMActual","","","","","","364.1700000152923","","","","Images/NewTrialBC.png","","2"
"image-button-response","633","517934","0.0-13.0-1.191","66","High_HMMActual","","","","","","null","","","","Images/WhiteBeadChoice.png","","null"
"image-button-response","634","518441","0.0-13.0-2.191","66","High_HMMActual","","","","","","null","","","","Images/WhiteBeadChoiceWrong.png","","null"
"image-button-response","635","518546","0.0-13.0-0.192","66","High_HMMActual","","","","","","100.38000001804903","","","","Images/NewTrialBC.png","","2"
"image-button-response","636","518860","0.0-13.0-1.192","66","High_HMMActual","","","","","","null","","","","Images/WhiteBeadChoice.png","","null"
"image-button-response","637","519372","0.0-13.0-2.192","66","High_HMMActual","","","","","","null","","","","Images/WhiteBeadChoiceWrong.png","","null"
"image-button-response","638","519748","0.0-13.0-0.193","66","High_HMMActual","","","","","","371.67500000214204","","","","Images/NewTrialBC.png","","2"
"image-button-response","639","520063","0.0-13.0-1.193","66","High_HMMActual","","","","","","null","","","","Images/WhiteBeadChoice.png","","null"
"image-button-response","640","520569","0.0-13.0-2.193","66","High_HMMActual","","","","","","null","","","","Images/WhiteBeadChoiceCorrect.png","","null"
"image-button-response","641","520929","0.0-13.0-0.194","66","High_HMMActual","","","","","","357.4549999902956","","","","Images/NewTrialWC.png","","0"
"image-button-response","642","521234","0.0-13.0-1.194","66","High_HMMActual","","","","","","null","","","","Images/BlackBeadChoice.png","","null"
"image-button-response","643","521748","0.0-13.0-2.194","66","High_HMMActual","","","","","","null","","","","Images/BlackBeadChoiceCorrect.png","","null"
"image-button-response","644","522280","0.0-13.0-0.195","66","High_HMMActual","","","","","","527.3750000051223","","","","Images/NewTrialBC.png","","2"
"image-button-response","645","522595","0.0-13.0-1.195","66","High_HMMActual","","","","","","null","","","","Images/WhiteBeadChoice.png","","null"
"image-button-response","646","523109","0.0-13.0-2.195","66","High_HMMActual","","","","","","null","","","","Images/WhiteBeadChoiceCorrect.png","","null"
"image-button-response","647","523349","0.0-13.0-0.196","66","High_HMMActual","","","","","","232.88000002503395","","","","Images/NewTrialWC.png","","0"
"image-button-response","648","523653","0.0-13.0-1.196","66","High_HMMActual","","","","","","null","","","","Images/BlackBeadChoice.png","","null"
"image-button-response","649","524161","0.0-13.0-2.196","66","High_HMMActual","","","","","","null","","","","Images/BlackBeadChoiceCorrect.png","","null"
"image-button-response","650","524393","0.0-13.0-0.197","66","High_HMMActual","","","","","","230.38500000257045","","","","Images/NewTrialBC.png","","2"
"image-button-response","651","524712","0.0-13.0-1.197","66","High_HMMActual","","","","","","null","","","","Images/WhiteBeadChoice.png","","null"
"image-button-response","652","525220","0.0-13.0-2.197","66","High_HMMActual","","","","","","null","","","","Images/WhiteBeadChoiceCorrect.png","","null"
"image-button-response","653","526255","0.0-13.0-0.198","66","High_HMMActual","","","","","","1030.2950000041164","","","","Images/NewTrialWC.png","","0"
