"trial_type","trial_index","time_elapsed","internal_node_id","Script_Picker","Block_Type","success","timeout","failed_images","failed_audio","failed_video","rt","url","responses","question_order","stimulus","key_press","response"
"pavlovia","0","3","0.0-0.0","185","Low_HMMActual","","","","","","","","","","","",""
"preload","1","4","0.0-1.0","185","Low_HMMActual","true","false","[]","[]","[]","","","","","","",""
"external-html","2","6313","0.0-2.0-0.0","185","Low_HMMActual","","","","","","6247.840000025462","consent.html","","","","",""
"survey-multi-choice","3","11177","0.0-2.0-1.0","185","Low_HMMActual","","","","","","4862.044999958016","","{""Q0"":""Male"",""Q1"":""White""}","[0,1]","","",""
"survey-text","4","13149","0.0-2.0-2.0","185","Low_HMMActual","","","","","","1968.880000000354","","{""Q0"":""27""}","","","",""
"survey-text","5","17229","0.0-2.0-3.0","185","Low_HMMActual","","","","","","3973.3150000101887","","{""Q0"":""5f97e6601f6d0e016087fc91""}","","","",""
"image-keyboard-response","6","32336","0.0-3.0-0.0","185","Low_HMMActual","","","","","","14994.790000026114","","","","tutorial/tutorial1.png"," ",""
"image-keyboard-response","7","39691","0.0-3.0-0.1","185","Low_HMMActual","","","","","","7353.700000036042","","","","tutorial/tutorial2.png"," ",""
"image-keyboard-response","8","41801","0.0-3.0-0.2","185","Low_HMMActual","","","","","","2109.9900000263005","","","","tutorial/tutorial3.png"," ",""
"image-keyboard-response","9","42983","0.0-3.0-0.3","185","Low_HMMActual","","","","","","1181.4850000082515","","","","tutorial/tutorial4.png"," ",""
"image-keyboard-response","10","44477","0.0-3.0-0.4","185","Low_HMMActual","","","","","","1493.6849999940023","","","","tutorial/tutorial5.png"," ",""
"image-keyboard-response","11","48369","0.0-3.0-0.5","185","Low_HMMActual","","","","","","3891.1499999812804","","","","tutorial/tutorial6.png"," ",""
"image-keyboard-response","12","50828","0.0-3.0-0.6","185","Low_HMMActual","","","","","","2458.7199999950826","","","","tutorial/tutorial7.png"," ",""
"image-keyboard-response","13","60279","0.0-3.0-0.7","185","Low_HMMActual","","","","","","9449.829999997746","","","","tutorial/tutorial8.png"," ",""
"image-keyboard-response","14","67467","0.0-3.0-0.8","185","Low_HMMActual","","","","","","7187.819999991916","","","","tutorial/tutorial9.png"," ",""
"image-keyboard-response","15","75432","0.0-3.0-0.9","185","Low_HMMActual","","","","","","7964.259999978822","","","","tutorial/tutorial10.png"," ",""
"image-keyboard-response","16","82650","0.0-3.0-0.10","185","Low_HMMActual","","","","","","7217.490000010002","","","","tutorial/tutorial11.png"," ",""
"image-keyboard-response","17","89377","0.0-3.0-0.11","185","Low_HMMActual","","","","","","6726.185000035912","","","","tutorial/tutorial12.png"," ",""
"image-keyboard-response","18","91984","0.0-3.0-0.12","185","Low_HMMActual","","","","","","2606.590000039432","","","","tutorial/tutorial13.png"," ",""
"image-keyboard-response","19","100217","0.0-3.0-0.13","185","Low_HMMActual","","","","","","8232.610000006389","","","","tutorial/tutorial14.png"," ",""
"image-keyboard-response","20","101986","0.0-3.0-0.14","185","Low_HMMActual","","","","","","1768.2299999869429","","","","tutorial/tutorial15.png"," ",""
"image-keyboard-response","21","107778","0.0-4.0","185","Low_HMMActual","","","","","","5790.789999999106","","","","tutorial/tutorial16.png","arrowup",""
"image-keyboard-response","22","114772","0.0-5.0","185","Low_HMMActual","","","","","","4254.865000024438","","","","tutorial/tutorial17.png","arrowright",""
"image-keyboard-response","23","124210","0.0-6.0","185","Low_HMMActual","","","","","","8238.944999990053","","","","tutorial/tutorial18.png","arrowleft",""
"image-keyboard-response","24","131160","0.0-7.0","185","Low_HMMActual","","","","","","4578.045000031125","","","","tutorial/tutorial19.png"," ",""
"html-keyboard-response","25","138971","0.0-8.0","185","Low_HMMActual","","","","","","7810.05999998888","","","","<div class=""container"" style=""height:800px;width:800px;display:flex;flex-direction:column;justify-content:center;align-items:center;text-align:center;font-weight:normal;font-family:Arial;font-size:20px""><p>Loading episode&hellip;</p><div>"," ",""
"image-button-response","26","145880","0.0-9.0-0.0","185","Low_HMMActual","","","","","","6906.5950000076555","","","","Images/NoChoice.png","","2"
"image-button-response","27","146197","0.0-9.0-1.0","185","Low_HMMActual","","","","","","null","","","","Images/WhiteBeadChoice.png","","null"
"image-button-response","28","146698","0.0-9.0-2.0","185","Low_HMMActual","","","","","","null","","","","Images/WhiteBeadChoiceCorrect.png","","null"
"image-button-response","29","159715","0.0-9.0-0.1","185","Low_HMMActual","","","","","","13015.59999998426","","","","Images/NewTrialWC.png","","2"
"image-button-response","30","160017","0.0-9.0-1.1","185","Low_HMMActual","","","","","","null","","","","Images/WhiteBeadChoice.png","","null"
"image-button-response","31","160518","0.0-9.0-2.1","185","Low_HMMActual","","","","","","null","","","","Images/WhiteBeadChoiceCorrect.png","","null"
"image-button-response","32","161758","0.0-9.0-0.2","185","Low_HMMActual","","","","","","1237.4299999792129","","","","Images/NewTrialWC.png","","2"
"image-button-response","33","162074","0.0-9.0-1.2","185","Low_HMMActual","","","","","","null","","","","Images/WhiteBeadChoice.png","","null"
"image-button-response","34","162577","0.0-9.0-2.2","185","Low_HMMActual","","","","","","null","","","","Images/WhiteBeadChoiceCorrect.png","","null"
"image-button-response","35","165083","0.0-9.0-0.3","185","Low_HMMActual","","","","","","2504.144999955315","","","","Images/NewTrialWC.png","","3"
"image-button-response","36","165394","0.0-9.0-1.3","185","Low_HMMActual","","","","","","null","","","","Images/WhiteBeadChoice.png","","null"
"image-button-response","37","165910","0.0-9.0-2.3","185","Low_HMMActual","","","","","","null","","","","Images/WhiteBeadChoiceWrong.png","","null"
"image-button-response","38","167824","0.0-9.0-0.4","185","Low_HMMActual","","","","","","1913.1100000231527","","","","Images/NewTrialBC.png","","0"
"image-button-response","39","168127","0.0-9.0-1.4","185","Low_HMMActual","","","","","","null","","","","Images/BlackBeadChoice.png","","null"
"image-button-response","40","168642","0.0-9.0-2.4","185","Low_HMMActual","","","","","","null","","","","Images/BlackBeadChoiceCorrect.png","","null"
"image-button-response","41","171375","0.0-9.0-0.5","185","Low_HMMActual","","","","","","2731.3650000141934","","","","Images/NewTrialBC.png","","0"
"image-button-response","42","171677","0.0-9.0-1.5","185","Low_HMMActual","","","","","","null","","","","Images/BlackBeadChoice.png","","null"
"image-button-response","43","172182","0.0-9.0-2.5","185","Low_HMMActual","","","","","","null","","","","Images/BlackBeadChoiceCorrect.png","","null"
"image-button-response","44","173271","0.0-9.0-0.6","185","Low_HMMActual","","","","","","1087.390000000596","","","","Images/NewTrialBC.png","","3"
"image-button-response","45","173573","0.0-9.0-1.6","185","Low_HMMActual","","","","","","null","","","","Images/WhiteBeadChoice.png","","null"
"image-button-response","46","174074","0.0-9.0-2.6","185","Low_HMMActual","","","","","","null","","","","Images/WhiteBeadChoiceCorrect.png","","null"
"image-button-response","47","175378","0.0-9.0-0.7","185","Low_HMMActual","","","","","","1302.9200000455603","","","","Images/NewTrialWC.png","","1"
"image-button-response","48","175685","0.0-9.0-1.7","185","Low_HMMActual","","","","","","null","","","","Images/BlackBeadChoice.png","","null"
"image-button-response","49","176201","0.0-9.0-2.7","185","Low_HMMActual","","","","","","null","","","","Images/BlackBeadChoiceCorrect.png","","null"
"image-button-response","50","183688","0.0-9.0-0.8","185","Low_HMMActual","","","","","","7485.719999996945","","","","Images/NewTrialBC.png","","0"
"image-button-response","51","184000","0.0-9.0-1.8","185","Low_HMMActual","","","","","","null","","","","Images/BlackBeadChoice.png","","null"
"image-button-response","52","184514","0.0-9.0-2.8","185","Low_HMMActual","","","","","","null","","","","Images/BlackBeadChoiceWrong.png","","null"
"image-button-response","53","186544","0.0-9.0-0.9","185","Low_HMMActual","","","","","","2028.2599999918602","","","","Images/NewTrialWC.png","","2"
"image-button-response","54","186852","0.0-9.0-1.9","185","Low_HMMActual","","","","","","null","","","","Images/WhiteBeadChoice.png","","null"
"image-button-response","55","187367","0.0-9.0-2.9","185","Low_HMMActual","","","","","","null","","","","Images/WhiteBeadChoiceWrong.png","","null"
"html-keyboard-response","56","191414","0.0-10.0","185","Low_HMMActual","","","","","","4045.0500000151806","","","",""," ",""
"image-keyboard-response","57","192977","0.0-11.0","185","Low_HMMActual","","","","","","1562.7249999670312","","","","tutorial/tutorial20.png"," ",""
"html-keyboard-response","58","199956","0.0-12.0","185","Low_HMMActual","","","","","","6977.260000014212","","","","<div class=""container"" style=""height:800px;width:800px;display:flex;flex-direction:column;justify-content:center;align-items:center;text-align:center;font-weight:normal;font-family:Arial;font-size:20px""><p>Loading episode&hellip;</p><div>"," ",""
"image-button-response","59","203486","0.0-13.0-0.0","185","Low_HMMActual","","","","","","3529.099999985192","","","","Images/NoChoice.png","","0"
"image-button-response","60","203789","0.0-13.0-1.0","185","Low_HMMActual","","","","","","null","","","","Images/BlackBeadChoice.png","","null"
"image-button-response","61","204291","0.0-13.0-2.0","185","Low_HMMActual","","","","","","null","","","","Images/BlackBeadChoiceWrong.png","","null"
"image-button-response","62","205678","0.0-13.0-0.1","185","Low_HMMActual","","","","","","1385.5800000019372","","","","Images/NewTrialWC.png","","2"
"image-button-response","63","205980","0.0-13.0-1.1","185","Low_HMMActual","","","","","","null","","","","Images/WhiteBeadChoice.png","","null"
"image-button-response","64","206488","0.0-13.0-2.1","185","Low_HMMActual","","","","","","null","","","","Images/WhiteBeadChoiceCorrect.png","","null"
"image-button-response","65","212713","0.0-13.0-0.2","185","Low_HMMActual","","","","","","6223.5400000354275","","","","Images/NewTrialWC.png","","1"
"image-button-response","66","213014","0.0-13.0-1.2","185","Low_HMMActual","","","","","","null","","","","Images/BlackBeadChoice.png","","null"
"image-button-response","67","213515","0.0-13.0-2.2","185","Low_HMMActual","","","","","","null","","","","Images/BlackBeadChoiceWrong.png","","null"
"image-button-response","68","215205","0.0-13.0-0.3","185","Low_HMMActual","","","","","","1688.1249999860302","","","","Images/NewTrialWC.png","","3"
"image-button-response","69","215507","0.0-13.0-1.3","185","Low_HMMActual","","","","","","null","","","","Images/WhiteBeadChoice.png","","null"
"image-button-response","70","216009","0.0-13.0-2.3","185","Low_HMMActual","","","","","","null","","","","Images/WhiteBeadChoiceWrong.png","","null"
"image-button-response","71","218385","0.0-13.0-0.4","185","Low_HMMActual","","","","","","2375.3450000076555","","","","Images/NewTrialBC.png","","0"
"image-button-response","72","218698","0.0-13.0-1.4","185","Low_HMMActual","","","","","","null","","","","Images/BlackBeadChoice.png","","null"
"image-button-response","73","219201","0.0-13.0-2.4","185","Low_HMMActual","","","","","","null","","","","Images/BlackBeadChoiceCorrect.png","","null"
"image-button-response","74","226220","0.0-13.0-0.5","185","Low_HMMActual","","","","","","7017.189999984112","","","","Images/NewTrialBC.png","","0"
"image-button-response","75","226523","0.0-13.0-1.5","185","Low_HMMActual","","","","","","null","","","","Images/BlackBeadChoice.png","","null"
"image-button-response","76","227025","0.0-13.0-2.5","185","Low_HMMActual","","","","","","null","","","","Images/BlackBeadChoiceCorrect.png","","null"
"image-button-response","77","227798","0.0-13.0-0.6","185","Low_HMMActual","","","","","","771.0549999610521","","","","Images/NewTrialBC.png","","0"
"image-button-response","78","228106","0.0-13.0-1.6","185","Low_HMMActual","","","","","","null","","","","Images/BlackBeadChoice.png","","null"
"image-button-response","79","228608","0.0-13.0-2.6","185","Low_HMMActual","","","","","","null","","","","Images/BlackBeadChoiceWrong.png","","null"
"image-button-response","80","230479","0.0-13.0-0.7","185","Low_HMMActual","","","","","","1868.9899999881163","","","","Images/NewTrialWC.png","","2"
"image-button-response","81","230793","0.0-13.0-1.7","185","Low_HMMActual","","","","","","null","","","","Images/WhiteBeadChoice.png","","null"
"image-button-response","82","231295","0.0-13.0-2.7","185","Low_HMMActual","","","","","","null","","","","Images/WhiteBeadChoiceWrong.png","","null"
"image-button-response","83","232026","0.0-13.0-0.8","185","Low_HMMActual","","","","","","730.3700000047684","","","","Images/NewTrialBC.png","","1"
"image-button-response","84","232336","0.0-13.0-1.8","185","Low_HMMActual","","","","","","null","","","","Images/BlackBeadChoice.png","","null"
"image-button-response","85","232837","0.0-13.0-2.8","185","Low_HMMActual","","","","","","null","","","","Images/BlackBeadChoiceWrong.png","","null"
"image-button-response","86","233264","0.0-13.0-0.9","185","Low_HMMActual","","","","","","425.5600000033155","","","","Images/NewTrialWC.png","","2"
"image-button-response","87","233565","0.0-13.0-1.9","185","Low_HMMActual","","","","","","null","","","","Images/WhiteBeadChoice.png","","null"
"image-button-response","88","234067","0.0-13.0-2.9","185","Low_HMMActual","","","","","","null","","","","Images/WhiteBeadChoiceWrong.png","","null"
"image-button-response","89","235527","0.0-13.0-0.10","185","Low_HMMActual","","","","","","1458.5550000192598","","","","Images/NewTrialBC.png","","0"
"image-button-response","90","235830","0.0-13.0-1.10","185","Low_HMMActual","","","","","","null","","","","Images/BlackBeadChoice.png","","null"
"image-button-response","91","236332","0.0-13.0-2.10","185","Low_HMMActual","","","","","","null","","","","Images/BlackBeadChoiceWrong.png","","null"
"image-button-response","92","237210","0.0-13.0-0.11","185","Low_HMMActual","","","","","","876.5300000086427","","","","Images/NewTrialWC.png","","3"
"image-button-response","93","237512","0.0-13.0-1.11","185","Low_HMMActual","","","","","","null","","","","Images/WhiteBeadChoice.png","","null"
"image-button-response","94","238013","0.0-13.0-2.11","185","Low_HMMActual","","","","","","null","","","","Images/WhiteBeadChoiceCorrect.png","","null"
"image-button-response","95","238413","0.0-13.0-0.12","185","Low_HMMActual","","","","","","397.75500004179776","","","","Images/NewTrialWC.png","","2"
"image-button-response","96","238724","0.0-13.0-1.12","185","Low_HMMActual","","","","","","null","","","","Images/WhiteBeadChoice.png","","null"
"image-button-response","97","239228","0.0-13.0-2.12","185","Low_HMMActual","","","","","","null","","","","Images/WhiteBeadChoiceCorrect.png","","null"
"image-button-response","98","240305","0.0-13.0-0.13","185","Low_HMMActual","","","","","","1071.0699999472126","","","","Images/NewTrialWC.png","","2"
"image-button-response","99","240614","0.0-13.0-1.13","185","Low_HMMActual","","","","","","null","","","","Images/WhiteBeadChoice.png","","null"
"image-button-response","100","241118","0.0-13.0-2.13","185","Low_HMMActual","","","","","","null","","","","Images/WhiteBeadChoiceCorrect.png","","null"
"image-button-response","101","241778","0.0-13.0-0.14","185","Low_HMMActual","","","","","","658.0650000250898","","","","Images/NewTrialWC.png","","2"
"image-button-response","102","242090","0.0-13.0-1.14","185","Low_HMMActual","","","","","","null","","","","Images/WhiteBeadChoice.png","","null"
"image-button-response","103","242598","0.0-13.0-2.14","185","Low_HMMActual","","","","","","null","","","","Images/WhiteBeadChoiceCorrect.png","","null"
"image-button-response","104","244021","0.0-13.0-0.15","185","Low_HMMActual","","","","","","1421.1249999934807","","","","Images/NewTrialWC.png","","2"
"image-button-response","105","244327","0.0-13.0-1.15","185","Low_HMMActual","","","","","","null","","","","Images/WhiteBeadChoice.png","","null"
"image-button-response","106","244841","0.0-13.0-2.15","185","Low_HMMActual","","","","","","null","","","","Images/WhiteBeadChoiceCorrect.png","","null"
"image-button-response","107","245650","0.0-13.0-0.16","185","Low_HMMActual","","","","","","806.7750000045635","","","","Images/NewTrialWC.png","","2"
"image-button-response","108","245951","0.0-13.0-1.16","185","Low_HMMActual","","","","","","null","","","","Images/WhiteBeadChoice.png","","null"
"image-button-response","109","246470","0.0-13.0-2.16","185","Low_HMMActual","","","","","","null","","","","Images/WhiteBeadChoiceCorrect.png","","null"
"image-button-response","110","247371","0.0-13.0-0.17","185","Low_HMMActual","","","","","","899.0699999849312","","","","Images/NewTrialWC.png","","2"
"image-button-response","111","247680","0.0-13.0-1.17","185","Low_HMMActual","","","","","","null","","","","Images/WhiteBeadChoice.png","","null"
"image-button-response","112","248187","0.0-13.0-2.17","185","Low_HMMActual","","","","","","null","","","","Images/WhiteBeadChoiceCorrect.png","","null"
"image-button-response","113","248764","0.0-13.0-0.18","185","Low_HMMActual","","","","","","575.9699999471195","","","","Images/NewTrialWC.png","","2"
"image-button-response","114","249078","0.0-13.0-1.18","185","Low_HMMActual","","","","","","null","","","","Images/WhiteBeadChoice.png","","null"
"image-button-response","115","249594","0.0-13.0-2.18","185","Low_HMMActual","","","","","","null","","","","Images/WhiteBeadChoiceCorrect.png","","null"
"image-button-response","116","251016","0.0-13.0-0.19","185","Low_HMMActual","","","","","","1421.0400000447407","","","","Images/NewTrialWC.png","","0"
"image-button-response","117","251323","0.0-13.0-1.19","185","Low_HMMActual","","","","","","null","","","","Images/BlackBeadChoice.png","","null"
"image-button-response","118","251835","0.0-13.0-2.19","185","Low_HMMActual","","","","","","null","","","","Images/BlackBeadChoiceWrong.png","","null"
"image-button-response","119","252749","0.0-13.0-0.20","185","Low_HMMActual","","","","","","912.3299999628216","","","","Images/NewTrialWC.png","","1"
"image-button-response","120","253062","0.0-13.0-1.20","185","Low_HMMActual","","","","","","null","","","","Images/BlackBeadChoice.png","","null"
"image-button-response","121","253570","0.0-13.0-2.20","185","Low_HMMActual","","","","","","null","","","","Images/BlackBeadChoiceWrong.png","","null"
"image-button-response","122","255710","0.0-13.0-0.21","185","Low_HMMActual","","","","","","2138.684999954421","","","","Images/NewTrialWC.png","","2"
"image-button-response","123","256025","0.0-13.0-1.21","185","Low_HMMActual","","","","","","null","","","","Images/WhiteBeadChoice.png","","null"
"image-button-response","124","256529","0.0-13.0-2.21","185","Low_HMMActual","","","","","","null","","","","Images/WhiteBeadChoiceWrong.png","","null"
"image-button-response","125","259096","0.0-13.0-0.22","185","Low_HMMActual","","","","","","2565.869999991264","","","","Images/NewTrialBC.png","","0"
"image-button-response","126","259406","0.0-13.0-1.22","185","Low_HMMActual","","","","","","null","","","","Images/BlackBeadChoice.png","","null"
"image-button-response","127","259920","0.0-13.0-2.22","185","Low_HMMActual","","","","","","null","","","","Images/BlackBeadChoiceWrong.png","","null"
"image-button-response","128","260524","0.0-13.0-0.23","185","Low_HMMActual","","","","","","602.4999999790452","","","","Images/NewTrialWC.png","","1"
"image-button-response","129","260840","0.0-13.0-1.23","185","Low_HMMActual","","","","","","null","","","","Images/BlackBeadChoice.png","","null"
"image-button-response","130","261344","0.0-13.0-2.23","185","Low_HMMActual","","","","","","null","","","","Images/BlackBeadChoiceWrong.png","","null"
"image-button-response","131","262167","0.0-13.0-0.24","185","Low_HMMActual","","","","","","821.1500000325032","","","","Images/NewTrialWC.png","","2"
"image-button-response","132","262478","0.0-13.0-1.24","185","Low_HMMActual","","","","","","null","","","","Images/WhiteBeadChoice.png","","null"
"image-button-response","133","262994","0.0-13.0-2.24","185","Low_HMMActual","","","","","","null","","","","Images/WhiteBeadChoiceCorrect.png","","null"
"image-button-response","134","263749","0.0-13.0-0.25","185","Low_HMMActual","","","","","","752.5799999712035","","","","Images/NewTrialWC.png","","2"
"image-button-response","135","264052","0.0-13.0-1.25","185","Low_HMMActual","","","","","","null","","","","Images/WhiteBeadChoice.png","","null"
"image-button-response","136","264554","0.0-13.0-2.25","185","Low_HMMActual","","","","","","null","","","","Images/WhiteBeadChoiceCorrect.png","","null"
"image-button-response","137","267784","0.0-13.0-0.26","185","Low_HMMActual","","","","","","3228.0449999962","","","","Images/NewTrialWC.png","","3"
"image-button-response","138","268088","0.0-13.0-1.26","185","Low_HMMActual","","","","","","null","","","","Images/WhiteBeadChoice.png","","null"
"image-button-response","139","268602","0.0-13.0-2.26","185","Low_HMMActual","","","","","","null","","","","Images/WhiteBeadChoiceCorrect.png","","null"
"image-button-response","140","269566","0.0-13.0-0.27","185","Low_HMMActual","","","","","","962.6000000280328","","","","Images/NewTrialWC.png","","2"
"image-button-response","141","269879","0.0-13.0-1.27","185","Low_HMMActual","","","","","","null","","","","Images/WhiteBeadChoice.png","","null"
"image-button-response","142","270392","0.0-13.0-2.27","185","Low_HMMActual","","","","","","null","","","","Images/WhiteBeadChoiceCorrect.png","","null"
"image-button-response","143","271149","0.0-13.0-0.28","185","Low_HMMActual","","","","","","755.2749999449588","","","","Images/NewTrialWC.png","","2"
"image-button-response","144","271451","0.0-13.0-1.28","185","Low_HMMActual","","","","","","null","","","","Images/WhiteBeadChoice.png","","null"
"image-button-response","145","271952","0.0-13.0-2.28","185","Low_HMMActual","","","","","","null","","","","Images/WhiteBeadChoiceWrong.png","","null"
"image-button-response","146","272577","0.0-13.0-0.29","185","Low_HMMActual","","","","","","623.4849999891594","","","","Images/NewTrialBC.png","","0"
"image-button-response","147","272889","0.0-13.0-1.29","185","Low_HMMActual","","","","","","null","","","","Images/BlackBeadChoice.png","","null"
"image-button-response","148","273397","0.0-13.0-2.29","185","Low_HMMActual","","","","","","null","","","","Images/BlackBeadChoiceWrong.png","","null"
"image-button-response","149","274528","0.0-13.0-0.30","185","Low_HMMActual","","","","","","1129.659999976866","","","","Images/NewTrialWC.png","","2"
"image-button-response","150","274830","0.0-13.0-1.30","185","Low_HMMActual","","","","","","null","","","","Images/WhiteBeadChoice.png","","null"
"image-button-response","151","275332","0.0-13.0-2.30","185","Low_HMMActual","","","","","","null","","","","Images/WhiteBeadChoiceWrong.png","","null"
"image-button-response","152","276330","0.0-13.0-0.31","185","Low_HMMActual","","","","","","995.9299999754876","","","","Images/NewTrialBC.png","","0"
"image-button-response","153","276641","0.0-13.0-1.31","185","Low_HMMActual","","","","","","null","","","","Images/BlackBeadChoice.png","","null"
"image-button-response","154","277143","0.0-13.0-2.31","185","Low_HMMActual","","","","","","null","","","","Images/BlackBeadChoiceWrong.png","","null"
"image-button-response","155","278548","0.0-13.0-0.32","185","Low_HMMActual","","","","","","1403.374999994412","","","","Images/NewTrialWC.png","","2"
"image-button-response","156","278861","0.0-13.0-1.32","185","Low_HMMActual","","","","","","null","","","","Images/WhiteBeadChoice.png","","null"
"image-button-response","157","279369","0.0-13.0-2.32","185","Low_HMMActual","","","","","","null","","","","Images/WhiteBeadChoiceCorrect.png","","null"
"image-button-response","158","279816","0.0-13.0-0.33","185","Low_HMMActual","","","","","","445.4750000149943","","","","Images/NewTrialWC.png","","2"
"image-button-response","159","280133","0.0-13.0-1.33","185","Low_HMMActual","","","","","","null","","","","Images/WhiteBeadChoice.png","","null"
"image-button-response","160","280636","0.0-13.0-2.33","185","Low_HMMActual","","","","","","null","","","","Images/WhiteBeadChoiceCorrect.png","","null"
"image-button-response","161","282522","0.0-13.0-0.34","185","Low_HMMActual","","","","","","1884.604999970179","","","","Images/NewTrialWC.png","","0"
"image-button-response","162","282830","0.0-13.0-1.34","185","Low_HMMActual","","","","","","null","","","","Images/BlackBeadChoice.png","","null"
"image-button-response","163","283336","0.0-13.0-2.34","185","Low_HMMActual","","","","","","null","","","","Images/BlackBeadChoiceWrong.png","","null"
"image-button-response","164","288139","0.0-13.0-0.35","185","Low_HMMActual","","","","","","4801.5200000372715","","","","Images/NewTrialWC.png","","2"
"image-button-response","165","288446","0.0-13.0-1.35","185","Low_HMMActual","","","","","","null","","","","Images/WhiteBeadChoice.png","","null"
"image-button-response","166","288948","0.0-13.0-2.35","185","Low_HMMActual","","","","","","null","","","","Images/WhiteBeadChoiceCorrect.png","","null"
"image-button-response","167","290521","0.0-13.0-0.36","185","Low_HMMActual","","","","","","1571.7699999804609","","","","Images/NewTrialWC.png","","2"
"image-button-response","168","290836","0.0-13.0-1.36","185","Low_HMMActual","","","","","","null","","","","Images/WhiteBeadChoice.png","","null"
"image-button-response","169","291344","0.0-13.0-2.36","185","Low_HMMActual","","","","","","null","","","","Images/WhiteBeadChoiceCorrect.png","","null"
"image-button-response","170","292378","0.0-13.0-0.37","185","Low_HMMActual","","","","","","1031.9449999951757","","","","Images/NewTrialWC.png","","3"
"image-button-response","171","292680","0.0-13.0-1.37","185","Low_HMMActual","","","","","","null","","","","Images/WhiteBeadChoice.png","","null"
"image-button-response","172","293189","0.0-13.0-2.37","185","Low_HMMActual","","","","","","null","","","","Images/WhiteBeadChoiceWrong.png","","null"
"image-button-response","173","294001","0.0-13.0-0.38","185","Low_HMMActual","","","","","","810.5949999880977","","","","Images/NewTrialBC.png","","3"
"image-button-response","174","294305","0.0-13.0-1.38","185","Low_HMMActual","","","","","","null","","","","Images/WhiteBeadChoice.png","","null"
"image-button-response","175","294817","0.0-13.0-2.38","185","Low_HMMActual","","","","","","null","","","","Images/WhiteBeadChoiceCorrect.png","","null"
"image-button-response","176","296527","0.0-13.0-0.39","185","Low_HMMActual","","","","","","1707.7450000215322","","","","Images/NewTrialWC.png","","0"
"image-button-response","177","296839","0.0-13.0-1.39","185","Low_HMMActual","","","","","","null","","","","Images/BlackBeadChoice.png","","null"
"image-button-response","178","297342","0.0-13.0-2.39","185","Low_HMMActual","","","","","","null","","","","Images/BlackBeadChoiceWrong.png","","null"
"image-button-response","179","298768","0.0-13.0-0.40","185","Low_HMMActual","","","","","","1424.4199999957345","","","","Images/NewTrialWC.png","","1"
"image-button-response","180","299076","0.0-13.0-1.40","185","Low_HMMActual","","","","","","null","","","","Images/BlackBeadChoice.png","","null"
"image-button-response","181","299578","0.0-13.0-2.40","185","Low_HMMActual","","","","","","null","","","","Images/BlackBeadChoiceWrong.png","","null"
"image-button-response","182","300456","0.0-13.0-0.41","185","Low_HMMActual","","","","","","876.529999950435","","","","Images/NewTrialWC.png","","2"
"image-button-response","183","300760","0.0-13.0-1.41","185","Low_HMMActual","","","","","","null","","","","Images/WhiteBeadChoice.png","","null"
"image-button-response","184","301262","0.0-13.0-2.41","185","Low_HMMActual","","","","","","null","","","","Images/WhiteBeadChoiceCorrect.png","","null"
"image-button-response","185","301803","0.0-13.0-0.42","185","Low_HMMActual","","","","","","539.4599999999627","","","","Images/NewTrialWC.png","","2"
"image-button-response","186","302107","0.0-13.0-1.42","185","Low_HMMActual","","","","","","null","","","","Images/WhiteBeadChoice.png","","null"
"image-button-response","187","302624","0.0-13.0-2.42","185","Low_HMMActual","","","","","","null","","","","Images/WhiteBeadChoiceCorrect.png","","null"
"image-button-response","188","304304","0.0-13.0-0.43","185","Low_HMMActual","","","","","","1679.0649999747984","","","","Images/NewTrialWC.png","","3"
"image-button-response","189","304617","0.0-13.0-1.43","185","Low_HMMActual","","","","","","null","","","","Images/WhiteBeadChoice.png","","null"
"image-button-response","190","305118","0.0-13.0-2.43","185","Low_HMMActual","","","","","","null","","","","Images/WhiteBeadChoiceWrong.png","","null"
"image-button-response","191","306037","0.0-13.0-0.44","185","Low_HMMActual","","","","","","917.8749999846332","","","","Images/NewTrialBC.png","","0"
"image-button-response","192","306353","0.0-13.0-1.44","185","Low_HMMActual","","","","","","null","","","","Images/BlackBeadChoice.png","","null"
"image-button-response","193","306866","0.0-13.0-2.44","185","Low_HMMActual","","","","","","null","","","","Images/BlackBeadChoiceCorrect.png","","null"
"image-button-response","194","307095","0.0-13.0-0.45","185","Low_HMMActual","","","","","","228.23999996762723","","","","Images/NewTrialBC.png","","0"
"image-button-response","195","307400","0.0-13.0-1.45","185","Low_HMMActual","","","","","","null","","","","Images/BlackBeadChoice.png","","null"
"image-button-response","196","307904","0.0-13.0-2.45","185","Low_HMMActual","","","","","","null","","","","Images/BlackBeadChoiceWrong.png","","null"
"image-button-response","197","308435","0.0-13.0-0.46","185","Low_HMMActual","","","","","","529.5099999639206","","","","Images/NewTrialWC.png","","1"
"image-button-response","198","308749","0.0-13.0-1.46","185","Low_HMMActual","","","","","","null","","","","Images/BlackBeadChoice.png","","null"
"image-button-response","199","309254","0.0-13.0-2.46","185","Low_HMMActual","","","","","","null","","","","Images/BlackBeadChoiceWrong.png","","null"
"image-button-response","200","310047","0.0-13.0-0.47","185","Low_HMMActual","","","","","","791.3800000096671","","","","Images/NewTrialWC.png","","2"
"image-button-response","201","310348","0.0-13.0-1.47","185","Low_HMMActual","","","","","","null","","","","Images/WhiteBeadChoice.png","","null"
"image-button-response","202","310854","0.0-13.0-2.47","185","Low_HMMActual","","","","","","null","","","","Images/WhiteBeadChoiceCorrect.png","","null"
"image-button-response","203","311550","0.0-13.0-0.48","185","Low_HMMActual","","","","","","693.8899999950081","","","","Images/NewTrialWC.png","","2"
"image-button-response","204","311863","0.0-13.0-1.48","185","Low_HMMActual","","","","","","null","","","","Images/WhiteBeadChoice.png","","null"
"image-button-response","205","312364","0.0-13.0-2.48","185","Low_HMMActual","","","","","","null","","","","Images/WhiteBeadChoiceCorrect.png","","null"
"image-button-response","206","313147","0.0-13.0-0.49","185","Low_HMMActual","","","","","","779.9749999539927","","","","Images/NewTrialWC.png","","2"
"image-button-response","207","313450","0.0-13.0-1.49","185","Low_HMMActual","","","","","","null","","","","Images/WhiteBeadChoice.png","","null"
"image-button-response","208","313951","0.0-13.0-2.49","185","Low_HMMActual","","","","","","null","","","","Images/WhiteBeadChoiceWrong.png","","null"
"image-button-response","209","314475","0.0-13.0-0.50","185","Low_HMMActual","","","","","","523.4250000212342","","","","Images/NewTrialBC.png","","0"
"image-button-response","210","314791","0.0-13.0-1.50","185","Low_HMMActual","","","","","","null","","","","Images/BlackBeadChoice.png","","null"
"image-button-response","211","315292","0.0-13.0-2.50","185","Low_HMMActual","","","","","","null","","","","Images/BlackBeadChoiceCorrect.png","","null"
"image-button-response","212","315834","0.0-13.0-0.51","185","Low_HMMActual","","","","","","539.6049999981187","","","","Images/NewTrialBC.png","","1"
"image-button-response","213","316145","0.0-13.0-1.51","185","Low_HMMActual","","","","","","null","","","","Images/BlackBeadChoice.png","","null"
"image-button-response","214","316646","0.0-13.0-2.51","185","Low_HMMActual","","","","","","null","","","","Images/BlackBeadChoiceWrong.png","","null"
"image-button-response","215","317437","0.0-13.0-0.52","185","Low_HMMActual","","","","","","789.55499996664","","","","Images/NewTrialWC.png","","2"
"image-button-response","216","317745","0.0-13.0-1.52","185","Low_HMMActual","","","","","","null","","","","Images/WhiteBeadChoice.png","","null"
"image-button-response","217","318254","0.0-13.0-2.52","185","Low_HMMActual","","","","","","null","","","","Images/WhiteBeadChoiceCorrect.png","","null"
"image-button-response","218","319813","0.0-13.0-0.53","185","Low_HMMActual","","","","","","1556.4800000283867","","","","Images/NewTrialWC.png","","2"
"image-button-response","219","320122","0.0-13.0-1.53","185","Low_HMMActual","","","","","","null","","","","Images/WhiteBeadChoice.png","","null"
"image-button-response","220","320625","0.0-13.0-2.53","185","Low_HMMActual","","","","","","null","","","","Images/WhiteBeadChoiceCorrect.png","","null"
"image-button-response","221","321201","0.0-13.0-0.54","185","Low_HMMActual","","","","","","574.3249999941327","","","","Images/NewTrialWC.png","","3"
"image-button-response","222","321508","0.0-13.0-1.54","185","Low_HMMActual","","","","","","null","","","","Images/WhiteBeadChoice.png","","null"
"image-button-response","223","322010","0.0-13.0-2.54","185","Low_HMMActual","","","","","","null","","","","Images/WhiteBeadChoiceCorrect.png","","null"
"image-button-response","224","322489","0.0-13.0-0.55","185","Low_HMMActual","","","","","","477.3150000255555","","","","Images/NewTrialWC.png","","2"
"image-button-response","225","322805","0.0-13.0-1.55","185","Low_HMMActual","","","","","","null","","","","Images/WhiteBeadChoice.png","","null"
"image-button-response","226","323309","0.0-13.0-2.55","185","Low_HMMActual","","","","","","null","","","","Images/WhiteBeadChoiceCorrect.png","","null"
"image-button-response","227","323772","0.0-13.0-0.56","185","Low_HMMActual","","","","","","461.79500001017004","","","","Images/NewTrialWC.png","","2"
"image-button-response","228","324077","0.0-13.0-1.56","185","Low_HMMActual","","","","","","null","","","","Images/WhiteBeadChoice.png","","null"
"image-button-response","229","324581","0.0-13.0-2.56","185","Low_HMMActual","","","","","","null","","","","Images/WhiteBeadChoiceCorrect.png","","null"
"image-button-response","230","325404","0.0-13.0-0.57","185","Low_HMMActual","","","","","","821.5699999709614","","","","Images/NewTrialWC.png","","2"
"image-button-response","231","325719","0.0-13.0-1.57","185","Low_HMMActual","","","","","","null","","","","Images/WhiteBeadChoice.png","","null"
"image-button-response","232","326221","0.0-13.0-2.57","185","Low_HMMActual","","","","","","null","","","","Images/WhiteBeadChoiceCorrect.png","","null"
"image-button-response","233","326698","0.0-13.0-0.58","185","Low_HMMActual","","","","","","475.0249999924563","","","","Images/NewTrialWC.png","","2"
"image-button-response","234","326999","0.0-13.0-1.58","185","Low_HMMActual","","","","","","null","","","","Images/WhiteBeadChoice.png","","null"
"image-button-response","235","327500","0.0-13.0-2.58","185","Low_HMMActual","","","","","","null","","","","Images/WhiteBeadChoiceWrong.png","","null"
"image-button-response","236","328506","0.0-13.0-0.59","185","Low_HMMActual","","","","","","1004.1499999933876","","","","Images/NewTrialBC.png","","0"
"image-button-response","237","328807","0.0-13.0-1.59","185","Low_HMMActual","","","","","","null","","","","Images/BlackBeadChoice.png","","null"
"image-button-response","238","329322","0.0-13.0-2.59","185","Low_HMMActual","","","","","","null","","","","Images/BlackBeadChoiceCorrect.png","","null"
"image-button-response","239","332011","0.0-13.0-0.60","185","Low_HMMActual","","","","","","2686.8949999916367","","","","Images/NewTrialBC.png","","0"
"image-button-response","240","332319","0.0-13.0-1.60","185","Low_HMMActual","","","","","","null","","","","Images/BlackBeadChoice.png","","null"
"image-button-response","241","332821","0.0-13.0-2.60","185","Low_HMMActual","","","","","","null","","","","Images/BlackBeadChoiceCorrect.png","","null"
"image-button-response","242","333359","0.0-13.0-0.61","185","Low_HMMActual","","","","","","535.0999999791384","","","","Images/NewTrialBC.png","","0"
"image-button-response","243","333660","0.0-13.0-1.61","185","Low_HMMActual","","","","","","null","","","","Images/BlackBeadChoice.png","","null"
"image-button-response","244","334163","0.0-13.0-2.61","185","Low_HMMActual","","","","","","null","","","","Images/BlackBeadChoiceWrong.png","","null"
"image-button-response","245","334606","0.0-13.0-0.62","185","Low_HMMActual","","","","","","442.5700000138022","","","","Images/NewTrialWC.png","","3"
"image-button-response","246","334911","0.0-13.0-1.62","185","Low_HMMActual","","","","","","null","","","","Images/WhiteBeadChoice.png","","null"
"image-button-response","247","335413","0.0-13.0-2.62","185","Low_HMMActual","","","","","","null","","","","Images/WhiteBeadChoiceCorrect.png","","null"
"image-button-response","248","335906","0.0-13.0-0.63","185","Low_HMMActual","","","","","","491.0999999847263","","","","Images/NewTrialWC.png","","2"
"image-button-response","249","336215","0.0-13.0-1.63","185","Low_HMMActual","","","","","","null","","","","Images/WhiteBeadChoice.png","","null"
"image-button-response","250","336732","0.0-13.0-2.63","185","Low_HMMActual","","","","","","null","","","","Images/WhiteBeadChoiceCorrect.png","","null"
"image-button-response","251","337388","0.0-13.0-0.64","185","Low_HMMActual","","","","","","653.394999972079","","","","Images/NewTrialWC.png","","2"
"image-button-response","252","337694","0.0-13.0-1.64","185","Low_HMMActual","","","","","","null","","","","Images/WhiteBeadChoice.png","","null"
"image-button-response","253","338200","0.0-13.0-2.64","185","Low_HMMActual","","","","","","null","","","","Images/WhiteBeadChoiceCorrect.png","","null"
"image-button-response","254","338811","0.0-13.0-0.65","185","Low_HMMActual","","","","","","609.6499999985099","","","","Images/NewTrialWC.png","","2"
"image-button-response","255","339118","0.0-13.0-1.65","185","Low_HMMActual","","","","","","null","","","","Images/WhiteBeadChoice.png","","null"
"image-button-response","256","339621","0.0-13.0-2.65","185","Low_HMMActual","","","","","","null","","","","Images/WhiteBeadChoiceCorrect.png","","null"
"image-button-response","257","340064","0.0-13.0-0.66","185","Low_HMMActual","","","","","","441.6649999911897","","","","Images/NewTrialWC.png","","2"
"image-button-response","258","340381","0.0-13.0-1.66","185","Low_HMMActual","","","","","","null","","","","Images/WhiteBeadChoice.png","","null"
"image-button-response","259","340882","0.0-13.0-2.66","185","Low_HMMActual","","","","","","null","","","","Images/WhiteBeadChoiceWrong.png","","null"
"image-button-response","260","341801","0.0-13.0-0.67","185","Low_HMMActual","","","","","","918.0150000029244","","","","Images/NewTrialBC.png","","1"
"image-button-response","261","342117","0.0-13.0-1.67","185","Low_HMMActual","","","","","","null","","","","Images/BlackBeadChoice.png","","null"
"image-button-response","262","342620","0.0-13.0-2.67","185","Low_HMMActual","","","","","","null","","","","Images/BlackBeadChoiceWrong.png","","null"
"image-button-response","263","343265","0.0-13.0-0.68","185","Low_HMMActual","","","","","","642.5250000320375","","","","Images/NewTrialWC.png","","2"
"image-button-response","264","343566","0.0-13.0-1.68","185","Low_HMMActual","","","","","","null","","","","Images/WhiteBeadChoice.png","","null"
"image-button-response","265","344073","0.0-13.0-2.68","185","Low_HMMActual","","","","","","null","","","","Images/WhiteBeadChoiceCorrect.png","","null"
"image-button-response","266","344573","0.0-13.0-0.69","185","Low_HMMActual","","","","","","497.65999999362975","","","","Images/NewTrialWC.png","","2"
"image-button-response","267","344880","0.0-13.0-1.69","185","Low_HMMActual","","","","","","null","","","","Images/WhiteBeadChoice.png","","null"
"image-button-response","268","345400","0.0-13.0-2.69","185","Low_HMMActual","","","","","","null","","","","Images/WhiteBeadChoiceCorrect.png","","null"
"image-button-response","269","346415","0.0-13.0-0.70","185","Low_HMMActual","","","","","","1013.039999990724","","","","Images/NewTrialWC.png","","2"
"image-button-response","270","346719","0.0-13.0-1.70","185","Low_HMMActual","","","","","","null","","","","Images/WhiteBeadChoice.png","","null"
"image-button-response","271","347226","0.0-13.0-2.70","185","Low_HMMActual","","","","","","null","","","","Images/WhiteBeadChoiceCorrect.png","","null"
"image-button-response","272","347874","0.0-13.0-0.71","185","Low_HMMActual","","","","","","646.245000010822","","","","Images/NewTrialWC.png","","2"
"image-button-response","273","348187","0.0-13.0-1.71","185","Low_HMMActual","","","","","","null","","","","Images/WhiteBeadChoice.png","","null"
"image-button-response","274","348698","0.0-13.0-2.71","185","Low_HMMActual","","","","","","null","","","","Images/WhiteBeadChoiceCorrect.png","","null"
"image-button-response","275","350215","0.0-13.0-0.72","185","Low_HMMActual","","","","","","1515.17500000773","","","","Images/NewTrialWC.png","","2"
"image-button-response","276","350529","0.0-13.0-1.72","185","Low_HMMActual","","","","","","null","","","","Images/WhiteBeadChoice.png","","null"
"image-button-response","277","351039","0.0-13.0-2.72","185","Low_HMMActual","","","","","","null","","","","Images/WhiteBeadChoiceCorrect.png","","null"
"image-button-response","278","352097","0.0-13.0-0.73","185","Low_HMMActual","","","","","","1057.2699999902397","","","","Images/NewTrialWC.png","","2"
"image-button-response","279","352408","0.0-13.0-1.73","185","Low_HMMActual","","","","","","null","","","","Images/WhiteBeadChoice.png","","null"
"image-button-response","280","352916","0.0-13.0-2.73","185","Low_HMMActual","","","","","","null","","","","Images/WhiteBeadChoiceCorrect.png","","null"
"image-button-response","281","354135","0.0-13.0-0.74","185","Low_HMMActual","","","","","","1217.3700000275858","","","","Images/NewTrialWC.png","","2"
"image-button-response","282","354447","0.0-13.0-1.74","185","Low_HMMActual","","","","","","null","","","","Images/WhiteBeadChoice.png","","null"
"image-button-response","283","354949","0.0-13.0-2.74","185","Low_HMMActual","","","","","","null","","","","Images/WhiteBeadChoiceCorrect.png","","null"
"image-button-response","284","358308","0.0-13.0-0.75","185","Low_HMMActual","","","","","","3357.740000006743","","","","Images/NewTrialWC.png","","3"
"image-button-response","285","358626","0.0-13.0-1.75","185","Low_HMMActual","","","","","","null","","","","Images/WhiteBeadChoice.png","","null"
"image-button-response","286","359132","0.0-13.0-2.75","185","Low_HMMActual","","","","","","null","","","","Images/WhiteBeadChoiceCorrect.png","","null"
"image-button-response","287","360804","0.0-13.0-0.76","185","Low_HMMActual","","","","","","1670.014999981504","","","","Images/NewTrialWC.png","","0"
"image-button-response","288","361117","0.0-13.0-1.76","185","Low_HMMActual","","","","","","null","","","","Images/BlackBeadChoice.png","","null"
"image-button-response","289","361619","0.0-13.0-2.76","185","Low_HMMActual","","","","","","null","","","","Images/BlackBeadChoiceWrong.png","","null"
"image-button-response","290","362517","0.0-13.0-0.77","185","Low_HMMActual","","","","","","896.100000012666","","","","Images/NewTrialWC.png","","0"
"image-button-response","291","362820","0.0-13.0-1.77","185","Low_HMMActual","","","","","","null","","","","Images/BlackBeadChoice.png","","null"
"image-button-response","292","363321","0.0-13.0-2.77","185","Low_HMMActual","","","","","","null","","","","Images/BlackBeadChoiceWrong.png","","null"
"image-button-response","293","364170","0.0-13.0-0.78","185","Low_HMMActual","","","","","","846.9000000040978","","","","Images/NewTrialWC.png","","3"
"image-button-response","294","364473","0.0-13.0-1.78","185","Low_HMMActual","","","","","","null","","","","Images/WhiteBeadChoice.png","","null"
"image-button-response","295","364978","0.0-13.0-2.78","185","Low_HMMActual","","","","","","null","","","","Images/WhiteBeadChoiceCorrect.png","","null"
"image-button-response","296","365482","0.0-13.0-0.79","185","Low_HMMActual","","","","","","502.5150000001304","","","","Images/NewTrialWC.png","","3"
"image-button-response","297","365798","0.0-13.0-1.79","185","Low_HMMActual","","","","","","null","","","","Images/WhiteBeadChoice.png","","null"
"image-button-response","298","366300","0.0-13.0-2.79","185","Low_HMMActual","","","","","","null","","","","Images/WhiteBeadChoiceWrong.png","","null"
"image-button-response","299","367349","0.0-13.0-0.80","185","Low_HMMActual","","","","","","1047.6100000087172","","","","Images/NewTrialBC.png","","0"
"image-button-response","300","367666","0.0-13.0-1.80","185","Low_HMMActual","","","","","","null","","","","Images/BlackBeadChoice.png","","null"
"image-button-response","301","368167","0.0-13.0-2.80","185","Low_HMMActual","","","","","","null","","","","Images/BlackBeadChoiceWrong.png","","null"
"image-button-response","302","368902","0.0-13.0-0.81","185","Low_HMMActual","","","","","","733.2549999700859","","","","Images/NewTrialWC.png","","1"
"image-button-response","303","369211","0.0-13.0-1.81","185","Low_HMMActual","","","","","","null","","","","Images/BlackBeadChoice.png","","null"
"image-button-response","304","369728","0.0-13.0-2.81","185","Low_HMMActual","","","","","","null","","","","Images/BlackBeadChoiceWrong.png","","null"
"image-button-response","305","371189","0.0-13.0-0.82","185","Low_HMMActual","","","","","","1459.2549999943003","","","","Images/NewTrialWC.png","","2"
"image-button-response","306","371491","0.0-13.0-1.82","185","Low_HMMActual","","","","","","null","","","","Images/WhiteBeadChoice.png","","null"
"image-button-response","307","371996","0.0-13.0-2.82","185","Low_HMMActual","","","","","","null","","","","Images/WhiteBeadChoiceCorrect.png","","null"
"image-button-response","308","372547","0.0-13.0-0.83","185","Low_HMMActual","","","","","","548.7799999536946","","","","Images/NewTrialWC.png","","0"
"image-button-response","309","372860","0.0-13.0-1.83","185","Low_HMMActual","","","","","","null","","","","Images/BlackBeadChoice.png","","null"
"image-button-response","310","373370","0.0-13.0-2.83","185","Low_HMMActual","","","","","","null","","","","Images/BlackBeadChoiceWrong.png","","null"
"image-button-response","311","374030","0.0-13.0-0.84","185","Low_HMMActual","","","","","","657.9650000203401","","","","Images/NewTrialWC.png","","1"
"image-button-response","312","374334","0.0-13.0-1.84","185","Low_HMMActual","","","","","","null","","","","Images/BlackBeadChoice.png","","null"
"image-button-response","313","374843","0.0-13.0-2.84","185","Low_HMMActual","","","","","","null","","","","Images/BlackBeadChoiceWrong.png","","null"
"image-button-response","314","375318","0.0-13.0-0.85","185","Low_HMMActual","","","","","","473.79499999806285","","","","Images/NewTrialWC.png","","1"
"image-button-response","315","375625","0.0-13.0-1.85","185","Low_HMMActual","","","","","","null","","","","Images/BlackBeadChoice.png","","null"
"image-button-response","316","376134","0.0-13.0-2.85","185","Low_HMMActual","","","","","","null","","","","Images/BlackBeadChoiceWrong.png","","null"
"image-button-response","317","376511","0.0-13.0-0.86","185","Low_HMMActual","","","","","","375.15000003622845","","","","Images/NewTrialWC.png","","1"
"image-button-response","318","376822","0.0-13.0-1.86","185","Low_HMMActual","","","","","","null","","","","Images/BlackBeadChoice.png","","null"
"image-button-response","319","377323","0.0-13.0-2.86","185","Low_HMMActual","","","","","","null","","","","Images/BlackBeadChoiceCorrect.png","","null"
"image-button-response","320","377794","0.0-13.0-0.87","185","Low_HMMActual","","","","","","469.745000009425","","","","Images/NewTrialBC.png","","0"
"image-button-response","321","378104","0.0-13.0-1.87","185","Low_HMMActual","","","","","","null","","","","Images/BlackBeadChoice.png","","null"
"image-button-response","322","378614","0.0-13.0-2.87","185","Low_HMMActual","","","","","","null","","","","Images/BlackBeadChoiceWrong.png","","null"
"image-button-response","323","379247","0.0-13.0-0.88","185","Low_HMMActual","","","","","","631.6900000092573","","","","Images/NewTrialWC.png","","2"
"image-button-response","324","379549","0.0-13.0-1.88","185","Low_HMMActual","","","","","","null","","","","Images/WhiteBeadChoice.png","","null"
"image-button-response","325","380051","0.0-13.0-2.88","185","Low_HMMActual","","","","","","null","","","","Images/WhiteBeadChoiceWrong.png","","null"
"image-button-response","326","380645","0.0-13.0-0.89","185","Low_HMMActual","","","","","","591.794999956619","","","","Images/NewTrialBC.png","","0"
"image-button-response","327","380959","0.0-13.0-1.89","185","Low_HMMActual","","","","","","null","","","","Images/BlackBeadChoice.png","","null"
"image-button-response","328","381468","0.0-13.0-2.89","185","Low_HMMActual","","","","","","null","","","","Images/BlackBeadChoiceWrong.png","","null"
"image-button-response","329","382128","0.0-13.0-0.90","185","Low_HMMActual","","","","","","658.3450000034645","","","","Images/NewTrialWC.png","","3"
"image-button-response","330","382445","0.0-13.0-1.90","185","Low_HMMActual","","","","","","null","","","","Images/WhiteBeadChoice.png","","null"
"image-button-response","331","382946","0.0-13.0-2.90","185","Low_HMMActual","","","","","","null","","","","Images/WhiteBeadChoiceCorrect.png","","null"
"image-button-response","332","383915","0.0-13.0-0.91","185","Low_HMMActual","","","","","","967.5249999854714","","","","Images/NewTrialWC.png","","2"
"image-button-response","333","384223","0.0-13.0-1.91","185","Low_HMMActual","","","","","","null","","","","Images/WhiteBeadChoice.png","","null"
"image-button-response","334","384725","0.0-13.0-2.91","185","Low_HMMActual","","","","","","null","","","","Images/WhiteBeadChoiceCorrect.png","","null"
"image-button-response","335","385158","0.0-13.0-0.92","185","Low_HMMActual","","","","","","431.2950000166893","","","","Images/NewTrialWC.png","","2"
"image-button-response","336","385471","0.0-13.0-1.92","185","Low_HMMActual","","","","","","null","","","","Images/WhiteBeadChoice.png","","null"
"image-button-response","337","385973","0.0-13.0-2.92","185","Low_HMMActual","","","","","","null","","","","Images/WhiteBeadChoiceWrong.png","","null"
"image-button-response","338","386516","0.0-13.0-0.93","185","Low_HMMActual","","","","","","539.8349999450147","","","","Images/NewTrialBC.png","","0"
"image-button-response","339","386826","0.0-13.0-1.93","185","Low_HMMActual","","","","","","null","","","","Images/BlackBeadChoice.png","","null"
"image-button-response","340","387327","0.0-13.0-2.93","185","Low_HMMActual","","","","","","null","","","","Images/BlackBeadChoiceCorrect.png","","null"
"image-button-response","341","388383","0.0-13.0-0.94","185","Low_HMMActual","","","","","","1054.2950000381097","","","","Images/NewTrialBC.png","","0"
"image-button-response","342","388685","0.0-13.0-1.94","185","Low_HMMActual","","","","","","null","","","","Images/BlackBeadChoice.png","","null"
"image-button-response","343","389200","0.0-13.0-2.94","185","Low_HMMActual","","","","","","null","","","","Images/BlackBeadChoiceCorrect.png","","null"
"image-button-response","344","390011","0.0-13.0-0.95","185","Low_HMMActual","","","","","","808.9299999992363","","","","Images/NewTrialBC.png","","0"
"image-button-response","345","390323","0.0-13.0-1.95","185","Low_HMMActual","","","","","","null","","","","Images/BlackBeadChoice.png","","null"
"image-button-response","346","390840","0.0-13.0-2.95","185","Low_HMMActual","","","","","","null","","","","Images/BlackBeadChoiceWrong.png","","null"
"image-button-response","347","391914","0.0-13.0-0.96","185","Low_HMMActual","","","","","","1073.0900000198744","","","","Images/NewTrialWC.png","","2"
"image-button-response","348","392216","0.0-13.0-1.96","185","Low_HMMActual","","","","","","null","","","","Images/WhiteBeadChoice.png","","null"
"image-button-response","349","392718","0.0-13.0-2.96","185","Low_HMMActual","","","","","","null","","","","Images/WhiteBeadChoiceWrong.png","","null"
"image-button-response","350","393124","0.0-13.0-0.97","185","Low_HMMActual","","","","","","404.5050000422634","","","","Images/NewTrialBC.png","","0"
"image-button-response","351","393439","0.0-13.0-1.97","185","Low_HMMActual","","","","","","null","","","","Images/BlackBeadChoice.png","","null"
"image-button-response","352","393950","0.0-13.0-2.97","185","Low_HMMActual","","","","","","null","","","","Images/BlackBeadChoiceWrong.png","","null"
"image-button-response","353","394476","0.0-13.0-0.98","185","Low_HMMActual","","","","","","523.4649999765679","","","","Images/NewTrialWC.png","","3"
"image-button-response","354","394781","0.0-13.0-1.98","185","Low_HMMActual","","","","","","null","","","","Images/WhiteBeadChoice.png","","null"
"image-button-response","355","395293","0.0-13.0-2.98","185","Low_HMMActual","","","","","","null","","","","Images/WhiteBeadChoiceCorrect.png","","null"
"image-button-response","356","397875","0.0-13.0-0.99","185","Low_HMMActual","","","","","","2580.759999982547","","","","Images/NewTrialWC.png","","2"
"image-button-response","357","398181","0.0-13.0-1.99","185","Low_HMMActual","","","","","","null","","","","Images/WhiteBeadChoice.png","","null"
"image-button-response","358","398693","0.0-13.0-2.99","185","Low_HMMActual","","","","","","null","","","","Images/WhiteBeadChoiceCorrect.png","","null"
"image-button-response","359","399139","0.0-13.0-0.100","185","Low_HMMActual","","","","","","444.13499999791384","","","","Images/NewTrialWC.png","","2"
"image-button-response","360","399441","0.0-13.0-1.100","185","Low_HMMActual","","","","","","null","","","","Images/WhiteBeadChoice.png","","null"
"image-button-response","361","399944","0.0-13.0-2.100","185","Low_HMMActual","","","","","","null","","","","Images/WhiteBeadChoiceWrong.png","","null"
"image-button-response","362","401160","0.0-13.0-0.101","185","Low_HMMActual","","","","","","1214.8399999714456","","","","Images/NewTrialBC.png","","0"
"image-button-response","363","401469","0.0-13.0-1.101","185","Low_HMMActual","","","","","","null","","","","Images/BlackBeadChoice.png","","null"
"image-button-response","364","401971","0.0-13.0-2.101","185","Low_HMMActual","","","","","","null","","","","Images/BlackBeadChoiceWrong.png","","null"
"image-button-response","365","402633","0.0-13.0-0.102","185","Low_HMMActual","","","","","","660.8350000460632","","","","Images/NewTrialWC.png","","2"
"image-button-response","366","402937","0.0-13.0-1.102","185","Low_HMMActual","","","","","","null","","","","Images/WhiteBeadChoice.png","","null"
"image-button-response","367","403441","0.0-13.0-2.102","185","Low_HMMActual","","","","","","null","","","","Images/WhiteBeadChoiceCorrect.png","","null"
"image-button-response","368","404006","0.0-13.0-0.103","185","Low_HMMActual","","","","","","563.4899999713525","","","","Images/NewTrialWC.png","","2"
"image-button-response","369","404321","0.0-13.0-1.103","185","Low_HMMActual","","","","","","null","","","","Images/WhiteBeadChoice.png","","null"
"image-button-response","370","404832","0.0-13.0-2.103","185","Low_HMMActual","","","","","","null","","","","Images/WhiteBeadChoiceWrong.png","","null"
"image-button-response","371","405450","0.0-13.0-0.104","185","Low_HMMActual","","","","","","615.2599999913946","","","","Images/NewTrialBC.png","","0"
"image-button-response","372","405755","0.0-13.0-1.104","185","Low_HMMActual","","","","","","null","","","","Images/BlackBeadChoice.png","","null"
"image-button-response","373","406259","0.0-13.0-2.104","185","Low_HMMActual","","","","","","null","","","","Images/BlackBeadChoiceCorrect.png","","null"
"image-button-response","374","406718","0.0-13.0-0.105","185","Low_HMMActual","","","","","","451.72499999171123","","","","Images/NewTrialBC.png","","0"
"image-button-response","375","407032","0.0-13.0-1.105","185","Low_HMMActual","","","","","","null","","","","Images/BlackBeadChoice.png","","null"
"image-button-response","376","407541","0.0-13.0-2.105","185","Low_HMMActual","","","","","","null","","","","Images/BlackBeadChoiceCorrect.png","","null"
"image-button-response","377","408230","0.0-13.0-0.106","185","Low_HMMActual","","","","","","687.2999999905005","","","","Images/NewTrialBC.png","","1"
"image-button-response","378","408532","0.0-13.0-1.106","185","Low_HMMActual","","","","","","null","","","","Images/BlackBeadChoice.png","","null"
"image-button-response","379","409033","0.0-13.0-2.106","185","Low_HMMActual","","","","","","null","","","","Images/BlackBeadChoiceCorrect.png","","null"
"image-button-response","380","409524","0.0-13.0-0.107","185","Low_HMMActual","","","","","","487.920000043232","","","","Images/NewTrialBC.png","","0"
"image-button-response","381","409836","0.0-13.0-1.107","185","Low_HMMActual","","","","","","null","","","","Images/BlackBeadChoice.png","","null"
"image-button-response","382","410350","0.0-13.0-2.107","185","Low_HMMActual","","","","","","null","","","","Images/BlackBeadChoiceWrong.png","","null"
"image-button-response","383","411011","0.0-13.0-0.108","185","Low_HMMActual","","","","","","659.9600000190549","","","","Images/NewTrialWC.png","","2"
"image-button-response","384","411316","0.0-13.0-1.108","185","Low_HMMActual","","","","","","null","","","","Images/WhiteBeadChoice.png","","null"
"image-button-response","385","411832","0.0-13.0-2.108","185","Low_HMMActual","","","","","","null","","","","Images/WhiteBeadChoiceWrong.png","","null"
"image-button-response","386","412509","0.0-13.0-0.109","185","Low_HMMActual","","","","","","675.5099999718368","","","","Images/NewTrialBC.png","","0"
"image-button-response","387","412824","0.0-13.0-1.109","185","Low_HMMActual","","","","","","null","","","","Images/BlackBeadChoice.png","","null"
"image-button-response","388","413341","0.0-13.0-2.109","185","Low_HMMActual","","","","","","null","","","","Images/BlackBeadChoiceWrong.png","","null"
"image-button-response","389","413903","0.0-13.0-0.110","185","Low_HMMActual","","","","","","558.7850000010803","","","","Images/NewTrialWC.png","","2"
"image-button-response","390","414204","0.0-13.0-1.110","185","Low_HMMActual","","","","","","null","","","","Images/WhiteBeadChoice.png","","null"
"image-button-response","391","414706","0.0-13.0-2.110","185","Low_HMMActual","","","","","","null","","","","Images/WhiteBeadChoiceWrong.png","","null"
"image-button-response","392","415665","0.0-13.0-0.111","185","Low_HMMActual","","","","","","952.6249999762513","","","","Images/NewTrialBC.png","","0"
"image-button-response","393","415977","0.0-13.0-1.111","185","Low_HMMActual","","","","","","null","","","","Images/BlackBeadChoice.png","","null"
"image-button-response","394","416479","0.0-13.0-2.111","185","Low_HMMActual","","","","","","null","","","","Images/BlackBeadChoiceCorrect.png","","null"
"image-button-response","395","416763","0.0-13.0-0.112","185","Low_HMMActual","","","","","","281.62499994505197","","","","Images/NewTrialBC.png","","0"
"image-button-response","396","417067","0.0-13.0-1.112","185","Low_HMMActual","","","","","","null","","","","Images/BlackBeadChoice.png","","null"
"image-button-response","397","417571","0.0-13.0-2.112","185","Low_HMMActual","","","","","","null","","","","Images/BlackBeadChoiceCorrect.png","","null"
"image-button-response","398","417916","0.0-13.0-0.113","185","Low_HMMActual","","","","","","342.3400000319816","","","","Images/NewTrialBC.png","","0"
"image-button-response","399","418231","0.0-13.0-1.113","185","Low_HMMActual","","","","","","null","","","","Images/BlackBeadChoice.png","","null"
"image-button-response","400","418736","0.0-13.0-2.113","185","Low_HMMActual","","","","","","null","","","","Images/BlackBeadChoiceCorrect.png","","null"
"image-button-response","401","418935","0.0-13.0-0.114","185","Low_HMMActual","","","","","","193.1650000042282","","","","Images/NewTrialBC.png","","0"
"image-button-response","402","419242","0.0-13.0-1.114","185","Low_HMMActual","","","","","","null","","","","Images/BlackBeadChoice.png","","null"
"image-button-response","403","419758","0.0-13.0-2.114","185","Low_HMMActual","","","","","","null","","","","Images/BlackBeadChoiceCorrect.png","","null"
"image-button-response","404","419953","0.0-13.0-0.115","185","Low_HMMActual","","","","","","193.59000003896654","","","","Images/NewTrialBC.png","","0"
"image-button-response","405","420257","0.0-13.0-1.115","185","Low_HMMActual","","","","","","null","","","","Images/BlackBeadChoice.png","","null"
"image-button-response","406","420772","0.0-13.0-2.115","185","Low_HMMActual","","","","","","null","","","","Images/BlackBeadChoiceWrong.png","","null"
"image-button-response","407","422635","0.0-13.0-0.116","185","Low_HMMActual","","","","","","1859.760000021197","","","","Images/NewTrialWC.png","","3"
"image-button-response","408","422946","0.0-13.0-1.116","185","Low_HMMActual","","","","","","null","","","","Images/WhiteBeadChoice.png","","null"
"image-button-response","409","423447","0.0-13.0-2.116","185","Low_HMMActual","","","","","","null","","","","Images/WhiteBeadChoiceCorrect.png","","null"
"image-button-response","410","423893","0.0-13.0-0.117","185","Low_HMMActual","","","","","","439.85999998403713","","","","Images/NewTrialWC.png","","2"
"image-button-response","411","424197","0.0-13.0-1.117","185","Low_HMMActual","","","","","","null","","","","Images/WhiteBeadChoice.png","","null"
"image-button-response","412","424712","0.0-13.0-2.117","185","Low_HMMActual","","","","","","null","","","","Images/WhiteBeadChoiceWrong.png","","null"
"image-button-response","413","425441","0.0-13.0-0.118","185","Low_HMMActual","","","","","","727.6549999951385","","","","Images/NewTrialBC.png","","0"
"image-button-response","414","425758","0.0-13.0-1.118","185","Low_HMMActual","","","","","","null","","","","Images/BlackBeadChoice.png","","null"
"image-button-response","415","426272","0.0-13.0-2.118","185","Low_HMMActual","","","","","","null","","","","Images/BlackBeadChoiceCorrect.png","","null"
"image-button-response","416","426564","0.0-13.0-0.119","185","Low_HMMActual","","","","","","290.5400000163354","","","","Images/NewTrialBC.png","","0"
"image-button-response","417","426867","0.0-13.0-1.119","185","Low_HMMActual","","","","","","null","","","","Images/BlackBeadChoice.png","","null"
"image-button-response","418","427371","0.0-13.0-2.119","185","Low_HMMActual","","","","","","null","","","","Images/BlackBeadChoiceCorrect.png","","null"
"image-button-response","419","427583","0.0-13.0-0.120","185","Low_HMMActual","","","","","","210.75000002747402","","","","Images/NewTrialBC.png","","0"
"image-button-response","420","427889","0.0-13.0-1.120","185","Low_HMMActual","","","","","","null","","","","Images/BlackBeadChoice.png","","null"
"image-button-response","421","428398","0.0-13.0-2.120","185","Low_HMMActual","","","","","","null","","","","Images/BlackBeadChoiceCorrect.png","","null"
"image-button-response","422","428536","0.0-13.0-0.121","185","Low_HMMActual","","","","","","136.3300000084564","","","","Images/NewTrialBC.png","","0"
"image-button-response","423","428853","0.0-13.0-1.121","185","Low_HMMActual","","","","","","null","","","","Images/BlackBeadChoice.png","","null"
"image-button-response","424","429354","0.0-13.0-2.121","185","Low_HMMActual","","","","","","null","","","","Images/BlackBeadChoiceWrong.png","","null"
"image-button-response","425","429789","0.0-13.0-0.122","185","Low_HMMActual","","","","","","434.0049999882467","","","","Images/NewTrialWC.png","","2"
"image-button-response","426","430096","0.0-13.0-1.122","185","Low_HMMActual","","","","","","null","","","","Images/WhiteBeadChoice.png","","null"
"image-button-response","427","430599","0.0-13.0-2.122","185","Low_HMMActual","","","","","","null","","","","Images/WhiteBeadChoiceWrong.png","","null"
"image-button-response","428","431057","0.0-13.0-0.123","185","Low_HMMActual","","","","","","457.05500000622123","","","","Images/NewTrialBC.png","","1"
"image-button-response","429","431359","0.0-13.0-1.123","185","Low_HMMActual","","","","","","null","","","","Images/BlackBeadChoice.png","","null"
"image-button-response","430","431860","0.0-13.0-2.123","185","Low_HMMActual","","","","","","null","","","","Images/BlackBeadChoiceCorrect.png","","null"
"image-button-response","431","432092","0.0-13.0-0.124","185","Low_HMMActual","","","","","","230.0000000395812","","","","Images/NewTrialBC.png","","0"
"image-button-response","432","432398","0.0-13.0-1.124","185","Low_HMMActual","","","","","","null","","","","Images/BlackBeadChoice.png","","null"
"image-button-response","433","432904","0.0-13.0-2.124","185","Low_HMMActual","","","","","","null","","","","Images/BlackBeadChoiceCorrect.png","","null"
"image-button-response","434","433080","0.0-13.0-0.125","185","Low_HMMActual","","","","","","172.83500003395602","","","","Images/NewTrialBC.png","","0"
"image-button-response","435","433397","0.0-13.0-1.125","185","Low_HMMActual","","","","","","null","","","","Images/BlackBeadChoice.png","","null"
"image-button-response","436","433897","0.0-13.0-2.125","185","Low_HMMActual","","","","","","null","","","","Images/BlackBeadChoiceWrong.png","","null"
"image-button-response","437","434253","0.0-13.0-0.126","185","Low_HMMActual","","","","","","354.51999999349937","","","","Images/NewTrialWC.png","","2"
"image-button-response","438","434558","0.0-13.0-1.126","185","Low_HMMActual","","","","","","null","","","","Images/WhiteBeadChoice.png","","null"
"image-button-response","439","435059","0.0-13.0-2.126","185","Low_HMMActual","","","","","","null","","","","Images/WhiteBeadChoiceWrong.png","","null"
"image-button-response","440","435606","0.0-13.0-0.127","185","Low_HMMActual","","","","","","545.1200000243261","","","","Images/NewTrialBC.png","","0"
"image-button-response","441","435907","0.0-13.0-1.127","185","Low_HMMActual","","","","","","null","","","","Images/BlackBeadChoice.png","","null"
"image-button-response","442","436410","0.0-13.0-2.127","185","Low_HMMActual","","","","","","null","","","","Images/BlackBeadChoiceCorrect.png","","null"
"image-button-response","443","436779","0.0-13.0-0.128","185","Low_HMMActual","","","","","","366.6999999550171","","","","Images/NewTrialBC.png","","0"
"image-button-response","444","437089","0.0-13.0-1.128","185","Low_HMMActual","","","","","","null","","","","Images/BlackBeadChoice.png","","null"
"image-button-response","445","437600","0.0-13.0-2.128","185","Low_HMMActual","","","","","","null","","","","Images/BlackBeadChoiceWrong.png","","null"
"image-button-response","446","437863","0.0-13.0-0.129","185","Low_HMMActual","","","","","","261.30000001285225","","","","Images/NewTrialWC.png","","2"
"image-button-response","447","438165","0.0-13.0-1.129","185","Low_HMMActual","","","","","","null","","","","Images/WhiteBeadChoice.png","","null"
"image-button-response","448","438666","0.0-13.0-2.129","185","Low_HMMActual","","","","","","null","","","","Images/WhiteBeadChoiceWrong.png","","null"
"image-button-response","449","439032","0.0-13.0-0.130","185","Low_HMMActual","","","","","","363.4099999908358","","","","Images/NewTrialBC.png","","0"
"image-button-response","450","439333","0.0-13.0-1.130","185","Low_HMMActual","","","","","","null","","","","Images/BlackBeadChoice.png","","null"
"image-button-response","451","439837","0.0-13.0-2.130","185","Low_HMMActual","","","","","","null","","","","Images/BlackBeadChoiceWrong.png","","null"
"image-button-response","452","440375","0.0-13.0-0.131","185","Low_HMMActual","","","","","","536.2749999621883","","","","Images/NewTrialWC.png","","2"
"image-button-response","453","440677","0.0-13.0-1.131","185","Low_HMMActual","","","","","","null","","","","Images/WhiteBeadChoice.png","","null"
"image-button-response","454","441178","0.0-13.0-2.131","185","Low_HMMActual","","","","","","null","","","","Images/WhiteBeadChoiceWrong.png","","null"
"image-button-response","455","441324","0.0-13.0-0.132","185","Low_HMMActual","","","","","","144.47500003734604","","","","Images/NewTrialBC.png","","3"
"image-button-response","456","441627","0.0-13.0-1.132","185","Low_HMMActual","","","","","","null","","","","Images/WhiteBeadChoice.png","","null"
"image-button-response","457","442129","0.0-13.0-2.132","185","Low_HMMActual","","","","","","null","","","","Images/WhiteBeadChoiceWrong.png","","null"
"image-button-response","458","442277","0.0-13.0-0.133","185","Low_HMMActual","","","","","","146.184999961406","","","","Images/NewTrialBC.png","","3"
"image-button-response","459","442581","0.0-13.0-1.133","185","Low_HMMActual","","","","","","null","","","","Images/WhiteBeadChoice.png","","null"
"image-button-response","460","443083","0.0-13.0-2.133","185","Low_HMMActual","","","","","","null","","","","Images/WhiteBeadChoiceCorrect.png","","null"
"image-button-response","461","443969","0.0-13.0-0.134","185","Low_HMMActual","","","","","","885.115000011865","","","","Images/NewTrialWC.png","","2"
"image-button-response","462","444279","0.0-13.0-1.134","185","Low_HMMActual","","","","","","null","","","","Images/WhiteBeadChoice.png","","null"
"image-button-response","463","444782","0.0-13.0-2.134","185","Low_HMMActual","","","","","","null","","","","Images/WhiteBeadChoiceWrong.png","","null"
"image-button-response","464","445008","0.0-13.0-0.135","185","Low_HMMActual","","","","","","225.05000000819564","","","","Images/NewTrialBC.png","","0"
"image-button-response","465","445324","0.0-13.0-1.135","185","Low_HMMActual","","","","","","null","","","","Images/BlackBeadChoice.png","","null"
"image-button-response","466","445829","0.0-13.0-2.135","185","Low_HMMActual","","","","","","null","","","","Images/BlackBeadChoiceCorrect.png","","null"
"image-button-response","467","445906","0.0-13.0-0.136","185","Low_HMMActual","","","","","","75.59500000206754","","","","Images/NewTrialBC.png","","0"
"image-button-response","468","446222","0.0-13.0-1.136","185","Low_HMMActual","","","","","","null","","","","Images/BlackBeadChoice.png","","null"
"image-button-response","469","446735","0.0-13.0-2.136","185","Low_HMMActual","","","","","","446.8749999650754","","","","Images/BlackBeadChoiceCorrect.png","","0"
"image-button-response","470","447309","0.0-13.0-0.137","185","Low_HMMActual","","","","","","572.6049999939278","","","","Images/NewTrialBC.png","","0"
"image-button-response","471","447614","0.0-13.0-1.137","185","Low_HMMActual","","","","","","null","","","","Images/BlackBeadChoice.png","","null"
"image-button-response","472","448118","0.0-13.0-2.137","185","Low_HMMActual","","","","","","null","","","","Images/BlackBeadChoiceCorrect.png","","null"
"image-button-response","473","448393","0.0-13.0-0.138","185","Low_HMMActual","","","","","","274.04499996919185","","","","Images/NewTrialBC.png","","0"
"image-button-response","474","448697","0.0-13.0-1.138","185","Low_HMMActual","","","","","","null","","","","Images/BlackBeadChoice.png","","null"
"image-button-response","475","449200","0.0-13.0-2.138","185","Low_HMMActual","","","","","","null","","","","Images/BlackBeadChoiceWrong.png","","null"
"image-button-response","476","449592","0.0-13.0-0.139","185","Low_HMMActual","","","","","","390.4000000329688","","","","Images/NewTrialWC.png","","2"
"image-button-response","477","449905","0.0-13.0-1.139","185","Low_HMMActual","","","","","","null","","","","Images/WhiteBeadChoice.png","","null"
"image-button-response","478","450405","0.0-13.0-2.139","185","Low_HMMActual","","","","","","null","","","","Images/WhiteBeadChoiceWrong.png","","null"
"image-button-response","479","450615","0.0-13.0-0.140","185","Low_HMMActual","","","","","","207.64999999664724","","","","Images/NewTrialBC.png","","0"
"image-button-response","480","450917","0.0-13.0-1.140","185","Low_HMMActual","","","","","","null","","","","Images/BlackBeadChoice.png","","null"
"image-button-response","481","451418","0.0-13.0-2.140","185","Low_HMMActual","","","","","","null","","","","Images/BlackBeadChoiceWrong.png","","null"
"image-button-response","482","451648","0.0-13.0-0.141","185","Low_HMMActual","","","","","","228.31000003498048","","","","Images/NewTrialWC.png","","2"
"image-button-response","483","451960","0.0-13.0-1.141","185","Low_HMMActual","","","","","","null","","","","Images/WhiteBeadChoice.png","","null"
"image-button-response","484","452462","0.0-13.0-2.141","185","Low_HMMActual","","","","","","null","","","","Images/WhiteBeadChoiceWrong.png","","null"
"image-button-response","485","452777","0.0-13.0-0.142","185","Low_HMMActual","","","","","","313.39999998454005","","","","Images/NewTrialBC.png","","0"
"image-button-response","486","453088","0.0-13.0-1.142","185","Low_HMMActual","","","","","","null","","","","Images/BlackBeadChoice.png","","null"
"image-button-response","487","453590","0.0-13.0-2.142","185","Low_HMMActual","","","","","","null","","","","Images/BlackBeadChoiceWrong.png","","null"
"image-button-response","488","453885","0.0-13.0-0.143","185","Low_HMMActual","","","","","","293.41500002192333","","","","Images/NewTrialWC.png","","2"
"image-button-response","489","454187","0.0-13.0-1.143","185","Low_HMMActual","","","","","","null","","","","Images/WhiteBeadChoice.png","","null"
"image-button-response","490","454689","0.0-13.0-2.143","185","Low_HMMActual","","","","","","null","","","","Images/WhiteBeadChoiceWrong.png","","null"
"image-button-response","491","455283","0.0-13.0-0.144","185","Low_HMMActual","","","","","","592.8599999751896","","","","Images/NewTrialBC.png","","0"
"image-button-response","492","455587","0.0-13.0-1.144","185","Low_HMMActual","","","","","","null","","","","Images/BlackBeadChoice.png","","null"
"image-button-response","493","456088","0.0-13.0-2.144","185","Low_HMMActual","","","","","","null","","","","Images/BlackBeadChoiceCorrect.png","","null"
"image-button-response","494","456407","0.0-13.0-0.145","185","Low_HMMActual","","","","","","316.94500002777204","","","","Images/NewTrialBC.png","","0"
"image-button-response","495","456723","0.0-13.0-1.145","185","Low_HMMActual","","","","","","null","","","","Images/BlackBeadChoice.png","","null"
"image-button-response","496","457226","0.0-13.0-2.145","185","Low_HMMActual","","","","","","null","","","","Images/BlackBeadChoiceWrong.png","","null"
"image-button-response","497","458484","0.0-13.0-0.146","185","Low_HMMActual","","","","","","1256.1149999964982","","","","Images/NewTrialWC.png","","2"
"image-button-response","498","458791","0.0-13.0-1.146","185","Low_HMMActual","","","","","","null","","","","Images/WhiteBeadChoice.png","","null"
"image-button-response","499","459293","0.0-13.0-2.146","185","Low_HMMActual","","","","","","null","","","","Images/WhiteBeadChoiceCorrect.png","","null"
"image-button-response","500","460276","0.0-13.0-0.147","185","Low_HMMActual","","","","","","980.9549999772571","","","","Images/NewTrialWC.png","","3"
"image-button-response","501","460578","0.0-13.0-1.147","185","Low_HMMActual","","","","","","null","","","","Images/WhiteBeadChoice.png","","null"
"image-button-response","502","461081","0.0-13.0-2.147","185","Low_HMMActual","","","","","","null","","","","Images/WhiteBeadChoiceCorrect.png","","null"
"image-button-response","503","461964","0.0-13.0-0.148","185","Low_HMMActual","","","","","","881.1550000100397","","","","Images/NewTrialWC.png","","3"
"image-button-response","504","462279","0.0-13.0-1.148","185","Low_HMMActual","","","","","","null","","","","Images/WhiteBeadChoice.png","","null"
"image-button-response","505","462788","0.0-13.0-2.148","185","Low_HMMActual","","","","","","null","","","","Images/WhiteBeadChoiceCorrect.png","","null"
"image-button-response","506","463132","0.0-13.0-0.149","185","Low_HMMActual","","","","","","338.1400000071153","","","","Images/NewTrialWC.png","","2"
"image-button-response","507","463437","0.0-13.0-1.149","185","Low_HMMActual","","","","","","null","","","","Images/WhiteBeadChoice.png","","null"
"image-button-response","508","463939","0.0-13.0-2.149","185","Low_HMMActual","","","","","","null","","","","Images/WhiteBeadChoiceCorrect.png","","null"
"image-button-response","509","464600","0.0-13.0-0.150","185","Low_HMMActual","","","","","","659.8600000143051","","","","Images/NewTrialWC.png","","2"
"image-button-response","510","464918","0.0-13.0-1.150","185","Low_HMMActual","","","","","","null","","","","Images/WhiteBeadChoice.png","","null"
"image-button-response","511","465424","0.0-13.0-2.150","185","Low_HMMActual","","","","","","null","","","","Images/WhiteBeadChoiceCorrect.png","","null"
"image-button-response","512","466308","0.0-13.0-0.151","185","Low_HMMActual","","","","","","880.3199999965727","","","","Images/NewTrialWC.png","","2"
"image-button-response","513","466620","0.0-13.0-1.151","185","Low_HMMActual","","","","","","null","","","","Images/WhiteBeadChoice.png","","null"
"image-button-response","514","467136","0.0-13.0-2.151","185","Low_HMMActual","","","","","","null","","","","Images/WhiteBeadChoiceCorrect.png","","null"
"image-button-response","515","467551","0.0-13.0-0.152","185","Low_HMMActual","","","","","","412.8550000023097","","","","Images/NewTrialWC.png","","2"
"image-button-response","516","467856","0.0-13.0-1.152","185","Low_HMMActual","","","","","","null","","","","Images/WhiteBeadChoice.png","","null"
"image-button-response","517","468358","0.0-13.0-2.152","185","Low_HMMActual","","","","","","null","","","","Images/WhiteBeadChoiceCorrect.png","","null"
"image-button-response","518","469204","0.0-13.0-0.153","185","Low_HMMActual","","","","","","843.1049999780953","","","","Images/NewTrialWC.png","","2"
"image-button-response","519","469506","0.0-13.0-1.153","185","Low_HMMActual","","","","","","null","","","","Images/WhiteBeadChoice.png","","null"
"image-button-response","520","470024","0.0-13.0-2.153","185","Low_HMMActual","","","","","","null","","","","Images/WhiteBeadChoiceCorrect.png","","null"
"image-button-response","521","470272","0.0-13.0-0.154","185","Low_HMMActual","","","","","","246.81499996222556","","","","Images/NewTrialWC.png","","2"
"image-button-response","522","470575","0.0-13.0-1.154","185","Low_HMMActual","","","","","","null","","","","Images/WhiteBeadChoice.png","","null"
"image-button-response","523","471083","0.0-13.0-2.154","185","Low_HMMActual","","","","","","null","","","","Images/WhiteBeadChoiceCorrect.png","","null"
"image-button-response","524","471899","0.0-13.0-0.155","185","Low_HMMActual","","","","","","814.1750000067987","","","","Images/NewTrialWC.png","","2"
"image-button-response","525","472209","0.0-13.0-1.155","185","Low_HMMActual","","","","","","null","","","","Images/WhiteBeadChoice.png","","null"
"image-button-response","526","472710","0.0-13.0-2.155","185","Low_HMMActual","","","","","","null","","","","Images/WhiteBeadChoiceWrong.png","","null"
"image-button-response","527","472938","0.0-13.0-0.156","185","Low_HMMActual","","","","","","226.66000004392117","","","","Images/NewTrialBC.png","","1"
"image-button-response","528","473241","0.0-13.0-1.156","185","Low_HMMActual","","","","","","null","","","","Images/BlackBeadChoice.png","","null"
"image-button-response","529","473743","0.0-13.0-2.156","185","Low_HMMActual","","","","","","null","","","","Images/BlackBeadChoiceWrong.png","","null"
"image-button-response","530","474302","0.0-13.0-0.157","185","Low_HMMActual","","","","","","556.8349999957718","","","","Images/NewTrialWC.png","","0"
"image-button-response","531","474608","0.0-13.0-1.157","185","Low_HMMActual","","","","","","null","","","","Images/BlackBeadChoice.png","","null"
"image-button-response","532","475114","0.0-13.0-2.157","185","Low_HMMActual","","","","","","null","","","","Images/BlackBeadChoiceWrong.png","","null"
"image-button-response","533","475794","0.0-13.0-0.158","185","Low_HMMActual","","","","","","678.0750000034459","","","","Images/NewTrialWC.png","","1"
"image-button-response","534","476104","0.0-13.0-1.158","185","Low_HMMActual","","","","","","null","","","","Images/BlackBeadChoice.png","","null"
"image-button-response","535","476606","0.0-13.0-2.158","185","Low_HMMActual","","","","","","null","","","","Images/BlackBeadChoiceWrong.png","","null"
"image-button-response","536","477317","0.0-13.0-0.159","185","Low_HMMActual","","","","","","709.4099999521859","","","","Images/NewTrialWC.png","","2"
"image-button-response","537","477628","0.0-13.0-1.159","185","Low_HMMActual","","","","","","null","","","","Images/WhiteBeadChoice.png","","null"
"image-button-response","538","478134","0.0-13.0-2.159","185","Low_HMMActual","","","","","","null","","","","Images/WhiteBeadChoiceCorrect.png","","null"
"image-button-response","539","478290","0.0-13.0-0.160","185","Low_HMMActual","","","","","","154.0800000075251","","","","Images/NewTrialWC.png","","3"
"image-button-response","540","478607","0.0-13.0-1.160","185","Low_HMMActual","","","","","","null","","","","Images/WhiteBeadChoice.png","","null"
"image-button-response","541","479114","0.0-13.0-2.160","185","Low_HMMActual","","","","","","null","","","","Images/WhiteBeadChoiceCorrect.png","","null"
"image-button-response","542","479424","0.0-13.0-0.161","185","Low_HMMActual","","","","","","308.0349999945611","","","","Images/NewTrialWC.png","","2"
"image-button-response","543","479730","0.0-13.0-1.161","185","Low_HMMActual","","","","","","null","","","","Images/WhiteBeadChoice.png","","null"
"image-button-response","544","480232","0.0-13.0-2.161","185","Low_HMMActual","","","","","","null","","","","Images/WhiteBeadChoiceCorrect.png","","null"
"image-button-response","545","480402","0.0-13.0-0.162","185","Low_HMMActual","","","","","","168.35500003071502","","","","Images/NewTrialWC.png","","2"
"image-button-response","546","480715","0.0-13.0-1.162","185","Low_HMMActual","","","","","","null","","","","Images/WhiteBeadChoice.png","","null"
"image-button-response","547","481217","0.0-13.0-2.162","185","Low_HMMActual","","","","","","null","","","","Images/WhiteBeadChoiceWrong.png","","null"
"image-button-response","548","481735","0.0-13.0-0.163","185","Low_HMMActual","","","","","","516.9350000214763","","","","Images/NewTrialBC.png","","0"
"image-button-response","549","482042","0.0-13.0-1.163","185","Low_HMMActual","","","","","","null","","","","Images/BlackBeadChoice.png","","null"
"image-button-response","550","482545","0.0-13.0-2.163","185","Low_HMMActual","","","","","","null","","","","Images/BlackBeadChoiceCorrect.png","","null"
"image-button-response","551","482734","0.0-13.0-0.164","185","Low_HMMActual","","","","","","182.52500001108274","","","","Images/NewTrialBC.png","","0"
"image-button-response","552","483049","0.0-13.0-1.164","185","Low_HMMActual","","","","","","null","","","","Images/BlackBeadChoice.png","","null"
"image-button-response","553","483553","0.0-13.0-2.164","185","Low_HMMActual","","","","","","null","","","","Images/BlackBeadChoiceWrong.png","","null"
"image-button-response","554","484197","0.0-13.0-0.165","185","Low_HMMActual","","","","","","642.6349999965169","","","","Images/NewTrialWC.png","","0"
"image-button-response","555","484511","0.0-13.0-1.165","185","Low_HMMActual","","","","","","null","","","","Images/BlackBeadChoice.png","","null"
"image-button-response","556","485017","0.0-13.0-2.165","185","Low_HMMActual","","","","","","null","","","","Images/BlackBeadChoiceCorrect.png","","null"
"image-button-response","557","485331","0.0-13.0-0.166","185","Low_HMMActual","","","","","","313.1649999995716","","","","Images/NewTrialBC.png","","0"
"image-button-response","558","485642","0.0-13.0-1.166","185","Low_HMMActual","","","","","","null","","","","Images/BlackBeadChoice.png","","null"
"image-button-response","559","486144","0.0-13.0-2.166","185","Low_HMMActual","","","","","","null","","","","Images/BlackBeadChoiceWrong.png","","null"
"image-button-response","560","487048","0.0-13.0-0.167","185","Low_HMMActual","","","","","","902.669999981299","","","","Images/NewTrialWC.png","","3"
"image-button-response","561","487360","0.0-13.0-1.167","185","Low_HMMActual","","","","","","null","","","","Images/WhiteBeadChoice.png","","null"
"image-button-response","562","487862","0.0-13.0-2.167","185","Low_HMMActual","","","","","","null","","","","Images/WhiteBeadChoiceCorrect.png","","null"
"image-button-response","563","488381","0.0-13.0-0.168","185","Low_HMMActual","","","","","","517.7249999833293","","","","Images/NewTrialWC.png","","3"
"image-button-response","564","488692","0.0-13.0-1.168","185","Low_HMMActual","","","","","","null","","","","Images/WhiteBeadChoice.png","","null"
"image-button-response","565","489210","0.0-13.0-2.168","185","Low_HMMActual","","","","","","null","","","","Images/WhiteBeadChoiceCorrect.png","","null"
"image-button-response","566","489515","0.0-13.0-0.169","185","Low_HMMActual","","","","","","302.91500000748783","","","","Images/NewTrialWC.png","","2"
"image-button-response","567","489828","0.0-13.0-1.169","185","Low_HMMActual","","","","","","null","","","","Images/WhiteBeadChoice.png","","null"
"image-button-response","568","490335","0.0-13.0-2.169","185","Low_HMMActual","","","","","","null","","","","Images/WhiteBeadChoiceCorrect.png","","null"
"image-button-response","569","490848","0.0-13.0-0.170","185","Low_HMMActual","","","","","","510.76000003376976","","","","Images/NewTrialWC.png","","2"
"image-button-response","570","491150","0.0-13.0-1.170","185","Low_HMMActual","","","","","","null","","","","Images/WhiteBeadChoice.png","","null"
"image-button-response","571","491652","0.0-13.0-2.170","185","Low_HMMActual","","","","","","null","","","","Images/WhiteBeadChoiceCorrect.png","","null"
"image-button-response","572","492231","0.0-13.0-0.171","185","Low_HMMActual","","","","","","576.7599999671802","","","","Images/NewTrialWC.png","","2"
"image-button-response","573","492535","0.0-13.0-1.171","185","Low_HMMActual","","","","","","null","","","","Images/WhiteBeadChoice.png","","null"
"image-button-response","574","493039","0.0-13.0-2.171","185","Low_HMMActual","","","","","","null","","","","Images/WhiteBeadChoiceCorrect.png","","null"
"image-button-response","575","493224","0.0-13.0-0.172","185","Low_HMMActual","","","","","","182.90499999420717","","","","Images/NewTrialWC.png","","2"
"image-button-response","576","493529","0.0-13.0-1.172","185","Low_HMMActual","","","","","","null","","","","Images/WhiteBeadChoice.png","","null"
"image-button-response","577","494042","0.0-13.0-2.172","185","Low_HMMActual","","","","","","null","","","","Images/WhiteBeadChoiceCorrect.png","","null"
"image-button-response","578","494312","0.0-13.0-0.173","185","Low_HMMActual","","","","","","268.57499999459833","","","","Images/NewTrialWC.png","","2"
"image-button-response","579","494628","0.0-13.0-1.173","185","Low_HMMActual","","","","","","null","","","","Images/WhiteBeadChoice.png","","null"
"image-button-response","580","495133","0.0-13.0-2.173","185","Low_HMMActual","","","","","","null","","","","Images/WhiteBeadChoiceCorrect.png","","null"
"image-button-response","581","495480","0.0-13.0-0.174","185","Low_HMMActual","","","","","","345.1300000306219","","","","Images/NewTrialWC.png","","2"
"image-button-response","582","495785","0.0-13.0-1.174","185","Low_HMMActual","","","","","","null","","","","Images/WhiteBeadChoice.png","","null"
"image-button-response","583","496288","0.0-13.0-2.174","185","Low_HMMActual","","","","","","null","","","","Images/WhiteBeadChoiceCorrect.png","","null"
"image-button-response","584","496559","0.0-13.0-0.175","185","Low_HMMActual","","","","","","268.9300000201911","","","","Images/NewTrialWC.png","","2"
"image-button-response","585","496875","0.0-13.0-1.175","185","Low_HMMActual","","","","","","null","","","","Images/WhiteBeadChoice.png","","null"
"image-button-response","586","497383","0.0-13.0-2.175","185","Low_HMMActual","","","","","","null","","","","Images/WhiteBeadChoiceCorrect.png","","null"
"image-button-response","587","497656","0.0-13.0-0.176","185","Low_HMMActual","","","","","","271.70000004116446","","","","Images/NewTrialWC.png","","2"
"image-button-response","588","497967","0.0-13.0-1.176","185","Low_HMMActual","","","","","","null","","","","Images/WhiteBeadChoice.png","","null"
"image-button-response","589","498471","0.0-13.0-2.176","185","Low_HMMActual","","","","","","null","","","","Images/WhiteBeadChoiceWrong.png","","null"
"image-button-response","590","498894","0.0-13.0-0.177","185","Low_HMMActual","","","","","","422.23500000545755","","","","Images/NewTrialBC.png","","0"
"image-button-response","591","499201","0.0-13.0-1.177","185","Low_HMMActual","","","","","","null","","","","Images/BlackBeadChoice.png","","null"
"image-button-response","592","499716","0.0-13.0-2.177","185","Low_HMMActual","","","","","","null","","","","Images/BlackBeadChoiceCorrect.png","","null"
"image-button-response","593","499844","0.0-13.0-0.178","185","Low_HMMActual","","","","","","126.29500002367422","","","","Images/NewTrialBC.png","","0"
"image-button-response","594","500156","0.0-13.0-1.178","185","Low_HMMActual","","","","","","null","","","","Images/BlackBeadChoice.png","","null"
"image-button-response","595","500659","0.0-13.0-2.178","185","Low_HMMActual","","","","","","null","","","","Images/BlackBeadChoiceWrong.png","","null"
"image-button-response","596","501072","0.0-13.0-0.179","185","Low_HMMActual","","","","","","410.56500002741814","","","","Images/NewTrialWC.png","","2"
"image-button-response","597","501383","0.0-13.0-1.179","185","Low_HMMActual","","","","","","null","","","","Images/WhiteBeadChoice.png","","null"
"image-button-response","598","501884","0.0-13.0-2.179","185","Low_HMMActual","","","","","","null","","","","Images/WhiteBeadChoiceCorrect.png","","null"
"image-button-response","599","502525","0.0-13.0-0.180","185","Low_HMMActual","","","","","","639.0300000202842","","","","Images/NewTrialWC.png","","3"
"image-button-response","600","502843","0.0-13.0-1.180","185","Low_HMMActual","","","","","","null","","","","Images/WhiteBeadChoice.png","","null"
"image-button-response","601","503344","0.0-13.0-2.180","185","Low_HMMActual","","","","","","null","","","","Images/WhiteBeadChoiceCorrect.png","","null"
"image-button-response","602","503678","0.0-13.0-0.181","185","Low_HMMActual","","","","","","332.605000003241","","","","Images/NewTrialWC.png","","2"
"image-button-response","603","503994","0.0-13.0-1.181","185","Low_HMMActual","","","","","","null","","","","Images/WhiteBeadChoice.png","","null"
"image-button-response","604","504504","0.0-13.0-2.181","185","Low_HMMActual","","","","","","null","","","","Images/WhiteBeadChoiceCorrect.png","","null"
"image-button-response","605","504841","0.0-13.0-0.182","185","Low_HMMActual","","","","","","334.5749999862164","","","","Images/NewTrialWC.png","","0"
"image-button-response","606","505154","0.0-13.0-1.182","185","Low_HMMActual","","","","","","null","","","","Images/BlackBeadChoice.png","","null"
"image-button-response","607","505655","0.0-13.0-2.182","185","Low_HMMActual","","","","","","null","","","","Images/BlackBeadChoiceWrong.png","","null"
"image-button-response","608","506883","0.0-13.0-0.183","185","Low_HMMActual","","","","","","1225.6100000231527","","","","Images/NewTrialWC.png","","1"
"image-button-response","609","507192","0.0-13.0-1.183","185","Low_HMMActual","","","","","","null","","","","Images/BlackBeadChoice.png","","null"
"image-button-response","610","507696","0.0-13.0-2.183","185","Low_HMMActual","","","","","","null","","","","Images/BlackBeadChoiceCorrect.png","","null"
"image-button-response","611","508146","0.0-13.0-0.184","185","Low_HMMActual","","","","","","449.9199999845587","","","","Images/NewTrialBC.png","","0"
"image-button-response","612","508460","0.0-13.0-1.184","185","Low_HMMActual","","","","","","null","","","","Images/BlackBeadChoice.png","","null"
"image-button-response","613","508964","0.0-13.0-2.184","185","Low_HMMActual","","","","","","null","","","","Images/BlackBeadChoiceWrong.png","","null"
"image-button-response","614","509495","0.0-13.0-0.185","185","Low_HMMActual","","","","","","529.6049999888055","","","","Images/NewTrialWC.png","","1"
"image-button-response","615","509802","0.0-13.0-1.185","185","Low_HMMActual","","","","","","null","","","","Images/BlackBeadChoice.png","","null"
"image-button-response","616","510304","0.0-13.0-2.185","185","Low_HMMActual","","","","","","null","","","","Images/BlackBeadChoiceWrong.png","","null"
"image-button-response","617","510788","0.0-13.0-0.186","185","Low_HMMActual","","","","","","481.17000004276633","","","","Images/NewTrialWC.png","","2"
"image-button-response","618","511091","0.0-13.0-1.186","185","Low_HMMActual","","","","","","null","","","","Images/WhiteBeadChoice.png","","null"
"image-button-response","619","511593","0.0-13.0-2.186","185","Low_HMMActual","","","","","","null","","","","Images/WhiteBeadChoiceWrong.png","","null"
"image-button-response","620","512006","0.0-13.0-0.187","185","Low_HMMActual","","","","","","410.9900000039488","","","","Images/NewTrialBC.png","","0"
"image-button-response","621","512322","0.0-13.0-1.187","185","Low_HMMActual","","","","","","null","","","","Images/BlackBeadChoice.png","","null"
"image-button-response","622","512824","0.0-13.0-2.187","185","Low_HMMActual","","","","","","null","","","","Images/BlackBeadChoiceWrong.png","","null"
"image-button-response","623","513214","0.0-13.0-0.188","185","Low_HMMActual","","","","","","389.2450000275858","","","","Images/NewTrialWC.png","","2"
"image-button-response","624","513525","0.0-13.0-1.188","185","Low_HMMActual","","","","","","null","","","","Images/WhiteBeadChoice.png","","null"
"image-button-response","625","514026","0.0-13.0-2.188","185","Low_HMMActual","","","","","","null","","","","Images/WhiteBeadChoiceCorrect.png","","null"
"image-button-response","626","514298","0.0-13.0-0.189","185","Low_HMMActual","","","","","","269.99500003876165","","","","Images/NewTrialWC.png","","2"
"image-button-response","627","514612","0.0-13.0-1.189","185","Low_HMMActual","","","","","","null","","","","Images/WhiteBeadChoice.png","","null"
"image-button-response","628","515122","0.0-13.0-2.189","185","Low_HMMActual","","","","","","null","","","","Images/WhiteBeadChoiceCorrect.png","","null"
"image-button-response","629","515516","0.0-13.0-0.190","185","Low_HMMActual","","","","","","391.83999999659136","","","","Images/NewTrialWC.png","","2"
"image-button-response","630","515818","0.0-13.0-1.190","185","Low_HMMActual","","","","","","null","","","","Images/WhiteBeadChoice.png","","null"
"image-button-response","631","516331","0.0-13.0-2.190","185","Low_HMMActual","","","","","","null","","","","Images/WhiteBeadChoiceCorrect.png","","null"
"image-button-response","632","518227","0.0-13.0-0.191","185","Low_HMMActual","","","","","","1893.5250000213273","","","","Images/NewTrialWC.png","","2"
"image-button-response","633","518533","0.0-13.0-1.191","185","Low_HMMActual","","","","","","null","","","","Images/WhiteBeadChoice.png","","null"
"image-button-response","634","519046","0.0-13.0-2.191","185","Low_HMMActual","","","","","","null","","","","Images/WhiteBeadChoiceCorrect.png","","null"
"image-button-response","635","519496","0.0-13.0-0.192","185","Low_HMMActual","","","","","","447.4449999979697","","","","Images/NewTrialWC.png","","0"
"image-button-response","636","519810","0.0-13.0-1.192","185","Low_HMMActual","","","","","","null","","","","Images/BlackBeadChoice.png","","null"
"image-button-response","637","520312","0.0-13.0-2.192","185","Low_HMMActual","","","","","","null","","","","Images/BlackBeadChoiceWrong.png","","null"
"image-button-response","638","520928","0.0-13.0-0.193","185","Low_HMMActual","","","","","","614.1150000039488","","","","Images/NewTrialWC.png","","2"
"image-button-response","639","521230","0.0-13.0-1.193","185","Low_HMMActual","","","","","","null","","","","Images/WhiteBeadChoice.png","","null"
"image-button-response","640","521731","0.0-13.0-2.193","185","Low_HMMActual","","","","","","null","","","","Images/WhiteBeadChoiceCorrect.png","","null"
"image-button-response","641","522037","0.0-13.0-0.194","185","Low_HMMActual","","","","","","304.0999999502674","","","","Images/NewTrialWC.png","","2"
"image-button-response","642","522341","0.0-13.0-1.194","185","Low_HMMActual","","","","","","null","","","","Images/WhiteBeadChoice.png","","null"
"image-button-response","643","522844","0.0-13.0-2.194","185","Low_HMMActual","","","","","","null","","","","Images/WhiteBeadChoiceCorrect.png","","null"
"image-button-response","644","525452","0.0-13.0-0.195","185","Low_HMMActual","","","","","","2606.904999993276","","","","Images/NewTrialWC.png","","2"
"image-button-response","645","525758","0.0-13.0-1.195","185","Low_HMMActual","","","","","","null","","","","Images/WhiteBeadChoice.png","","null"
"image-button-response","646","526264","0.0-13.0-2.195","185","Low_HMMActual","","","","","","null","","","","Images/WhiteBeadChoiceCorrect.png","","null"
"image-button-response","647","526486","0.0-13.0-0.196","185","Low_HMMActual","","","","","","220.13499995227903","","","","Images/NewTrialWC.png","","2"
"image-button-response","648","526788","0.0-13.0-1.196","185","Low_HMMActual","","","","","","null","","","","Images/WhiteBeadChoice.png","","null"
"image-button-response","649","527294","0.0-13.0-2.196","185","Low_HMMActual","","","","","","null","","","","Images/WhiteBeadChoiceCorrect.png","","null"
"image-button-response","650","528069","0.0-13.0-0.197","185","Low_HMMActual","","","","","","773.215000052005","","","","Images/NewTrialWC.png","","0"
"image-button-response","651","528376","0.0-13.0-1.197","185","Low_HMMActual","","","","","","null","","","","Images/BlackBeadChoice.png","","null"
"image-button-response","652","528877","0.0-13.0-2.197","185","Low_HMMActual","","","","","","null","","","","Images/BlackBeadChoiceWrong.png","","null"
"image-button-response","653","529302","0.0-13.0-0.198","185","Low_HMMActual","","","","","","422.57499997504056","","","","Images/NewTrialWC.png","","2"
