"trial_type","trial_index","time_elapsed","internal_node_id","Script_Picker","Block_Type","success","timeout","failed_images","failed_audio","failed_video","rt","url","responses","question_order","stimulus","key_press","response"
"pavlovia","0","2","0.0-0.0","42","High_HMMActual","","","","","","","","","","","",""
"preload","1","3","0.0-1.0","42","High_HMMActual","true","false","[]","[]","[]","","","","","","",""
"external-html","2","19877","0.0-2.0-0.0","42","High_HMMActual","","","","","","19741.284999998243","consent.html","","","","",""
"survey-multi-choice","3","53744","0.0-2.0-1.0","42","High_HMMActual","","","","","","33865.584999999555","","{""Q0"":""Male"",""Q1"":""White""}","[0,1]","","",""
"survey-text","4","56125","0.0-2.0-2.0","42","High_HMMActual","","","","","","2377.054999999018","","{""Q0"":""19""}","","","",""
"survey-text","5","62092","0.0-2.0-3.0","42","High_HMMActual","","","","","","5852.100000000064","","{""Q0"":""60204c263941fb63d9d794bc""}","","","",""
"image-keyboard-response","6","82700","0.0-3.0-0.0","42","High_HMMActual","","","","","","20501.72500000008","","","","tutorial/tutorial1.png"," ",""
"image-keyboard-response","7","90866","0.0-3.0-0.1","42","High_HMMActual","","","","","","8165.630000001329","","","","tutorial/tutorial2.png"," ",""
"image-keyboard-response","8","94536","0.0-3.0-0.2","42","High_HMMActual","","","","","","3669.210000000021","","","","tutorial/tutorial3.png"," ",""
"image-keyboard-response","9","97346","0.0-3.0-0.3","42","High_HMMActual","","","","","","2809.1000000003987","","","","tutorial/tutorial4.png"," ",""
"image-keyboard-response","10","99989","0.0-3.0-0.4","42","High_HMMActual","","","","","","2643.019999999524","","","","tutorial/tutorial5.png"," ",""
"image-keyboard-response","11","116410","0.0-3.0-0.5","42","High_HMMActual","","","","","","16419.88500000116","","","","tutorial/tutorial6.png"," ",""
"image-keyboard-response","12","132228","0.0-3.0-0.6","42","High_HMMActual","","","","","","15817.429999999134","","","","tutorial/tutorial7.png"," ",""
"image-keyboard-response","13","158383","0.0-3.0-0.7","42","High_HMMActual","","","","","","26154.870000000315","","","","tutorial/tutorial8.png"," ",""
"image-keyboard-response","14","166507","0.0-3.0-0.8","42","High_HMMActual","","","","","","8123.63999999981","","","","tutorial/tutorial9.png"," ",""
"image-keyboard-response","15","178247","0.0-3.0-0.9","42","High_HMMActual","","","","","","11739.500000001484","","","","tutorial/tutorial10.png"," ",""
"image-keyboard-response","16","182379","0.0-3.0-0.10","42","High_HMMActual","","","","","","4131.505000001169","","","","tutorial/tutorial11.png"," ",""
"image-keyboard-response","17","184222","0.0-3.0-0.11","42","High_HMMActual","","","","","","1842.9200000009441","","","","tutorial/tutorial12.png"," ",""
"image-keyboard-response","18","193499","0.0-3.0-0.12","42","High_HMMActual","","","","","","9276.975000000675","","","","tutorial/tutorial13.png"," ",""
"image-keyboard-response","19","207773","0.0-3.0-0.13","42","High_HMMActual","","","","","","14273.585000000836","","","","tutorial/tutorial14.png"," ",""
"image-keyboard-response","20","212129","0.0-3.0-0.14","42","High_HMMActual","","","","","","4355.685000000434","","","","tutorial/tutorial15.png"," ",""
"image-keyboard-response","21","219018","0.0-4.0","42","High_HMMActual","","","","","","6888.500000000931","","","","tutorial/tutorial16.png","arrowup",""
"image-keyboard-response","22","225938","0.0-5.0","42","High_HMMActual","","","","","","4756.540000000328","","","","tutorial/tutorial17.png","arrowright",""
"image-keyboard-response","23","240302","0.0-6.0","42","High_HMMActual","","","","","","13160.960000001069","","","","tutorial/tutorial18.png","arrowright",""
"image-keyboard-response","24","256013","0.0-7.0","42","High_HMMActual","","","","","","12830.979999998817","","","","tutorial/tutorial19.png"," ",""
"html-keyboard-response","25","263195","0.0-8.0","42","High_HMMActual","","","","","","7181.12500000096","","","","<div class=""container"" style=""height:800px;width:800px;display:flex;flex-direction:column;justify-content:center;align-items:center;text-align:center;font-weight:normal;font-family:Arial;font-size:20px""><p>Loading episode&hellip;</p><div>"," ",""
"image-button-response","26","269668","0.0-9.0-0.0","42","High_HMMActual","","","","","","6471.630000000005","","","","Images/NoChoice.png","","0"
"image-button-response","27","269982","0.0-9.0-1.0","42","High_HMMActual","","","","","","null","","","","Images/BlackBeadChoice.png","","null"
"image-button-response","28","270487","0.0-9.0-2.0","42","High_HMMActual","","","","","","null","","","","Images/BlackBeadChoiceWrong.png","","null"
"image-button-response","29","277322","0.0-9.0-0.1","42","High_HMMActual","","","","","","6834.520000000368","","","","Images/NewTrialWC.png","","0"
"image-button-response","30","277625","0.0-9.0-1.1","42","High_HMMActual","","","","","","null","","","","Images/BlackBeadChoice.png","","null"
"image-button-response","31","278126","0.0-9.0-2.1","42","High_HMMActual","","","","","","null","","","","Images/BlackBeadChoiceCorrect.png","","null"
"image-button-response","32","281738","0.0-9.0-0.2","42","High_HMMActual","","","","","","3611.625000001397","","","","Images/NewTrialBC.png","","2"
"image-button-response","33","282040","0.0-9.0-1.2","42","High_HMMActual","","","","","","null","","","","Images/WhiteBeadChoice.png","","null"
"image-button-response","34","282552","0.0-9.0-2.2","42","High_HMMActual","","","","","","null","","","","Images/WhiteBeadChoiceCorrect.png","","null"
"image-button-response","35","285819","0.0-9.0-0.3","42","High_HMMActual","","","","","","3265.305000000808","","","","Images/NewTrialWC.png","","0"
"image-button-response","36","286130","0.0-9.0-1.3","42","High_HMMActual","","","","","","null","","","","Images/BlackBeadChoice.png","","null"
"image-button-response","37","286633","0.0-9.0-2.3","42","High_HMMActual","","","","","","null","","","","Images/BlackBeadChoiceCorrect.png","","null"
"image-button-response","38","289581","0.0-9.0-0.4","42","High_HMMActual","","","","","","2945.2750000000815","","","","Images/NewTrialBC.png","","3"
"image-button-response","39","289883","0.0-9.0-1.4","42","High_HMMActual","","","","","","null","","","","Images/WhiteBeadChoice.png","","null"
"image-button-response","40","290385","0.0-9.0-2.4","42","High_HMMActual","","","","","","null","","","","Images/WhiteBeadChoiceCorrect.png","","null"
"image-button-response","41","299093","0.0-9.0-0.5","42","High_HMMActual","","","","","","8706.859999998414","","","","Images/NewTrialWC.png","","0"
"image-button-response","42","299396","0.0-9.0-1.5","42","High_HMMActual","","","","","","null","","","","Images/BlackBeadChoice.png","","null"
"image-button-response","43","299898","0.0-9.0-2.5","42","High_HMMActual","","","","","","null","","","","Images/BlackBeadChoiceCorrect.png","","null"
"image-button-response","44","301920","0.0-9.0-0.6","42","High_HMMActual","","","","","","2019.9599999996135","","","","Images/NewTrialBC.png","","2"
"image-button-response","45","302227","0.0-9.0-1.6","42","High_HMMActual","","","","","","null","","","","Images/WhiteBeadChoice.png","","null"
"image-button-response","46","302736","0.0-9.0-2.6","42","High_HMMActual","","","","","","null","","","","Images/WhiteBeadChoiceWrong.png","","null"
"image-button-response","47","306764","0.0-9.0-0.7","42","High_HMMActual","","","","","","4026.4950000000536","","","","Images/NewTrialBC.png","","0"
"image-button-response","48","307066","0.0-9.0-1.7","42","High_HMMActual","","","","","","null","","","","Images/BlackBeadChoice.png","","null"
"image-button-response","49","307571","0.0-9.0-2.7","42","High_HMMActual","","","","","","null","","","","Images/BlackBeadChoiceCorrect.png","","null"
"image-button-response","50","310140","0.0-9.0-0.8","42","High_HMMActual","","","","","","2566.510000000533","","","","Images/NewTrialBC.png","","2"
"image-button-response","51","310442","0.0-9.0-1.8","42","High_HMMActual","","","","","","null","","","","Images/WhiteBeadChoice.png","","null"
"image-button-response","52","310945","0.0-9.0-2.8","42","High_HMMActual","","","","","","null","","","","Images/WhiteBeadChoiceCorrect.png","","null"
"image-button-response","53","315253","0.0-9.0-0.9","42","High_HMMActual","","","","","","4306.739999999991","","","","Images/NewTrialWC.png","","0"
"image-button-response","54","315556","0.0-9.0-1.9","42","High_HMMActual","","","","","","null","","","","Images/BlackBeadChoice.png","","null"
"image-button-response","55","316069","0.0-9.0-2.9","42","High_HMMActual","","","","","","null","","","","Images/BlackBeadChoiceCorrect.png","","null"
"html-keyboard-response","56","341881","0.0-10.0","42","High_HMMActual","","","","","","25811.649999999674","","","",""," ",""
"image-keyboard-response","57","343799","0.0-11.0","42","High_HMMActual","","","","","","1916.9350000011036","","","","tutorial/tutorial20.png"," ",""
"html-keyboard-response","58","351785","0.0-12.0","42","High_HMMActual","","","","","","7985.9099999994505","","","","<div class=""container"" style=""height:800px;width:800px;display:flex;flex-direction:column;justify-content:center;align-items:center;text-align:center;font-weight:normal;font-family:Arial;font-size:20px""><p>Loading episode&hellip;</p><div>"," ",""
"image-button-response","59","355116","0.0-13.0-0.0","42","High_HMMActual","","","","","","3330.1250000004075","","","","Images/NoChoice.png","","2"
"image-button-response","60","355417","0.0-13.0-1.0","42","High_HMMActual","","","","","","null","","","","Images/WhiteBeadChoice.png","","null"
"image-button-response","61","355926","0.0-13.0-2.0","42","High_HMMActual","","","","","","null","","","","Images/WhiteBeadChoiceCorrect.png","","null"
"image-button-response","62","357551","0.0-13.0-0.1","42","High_HMMActual","","","","","","1623.2299999992247","","","","Images/NewTrialWC.png","","0"
"image-button-response","63","357852","0.0-13.0-1.1","42","High_HMMActual","","","","","","null","","","","Images/BlackBeadChoice.png","","null"
"image-button-response","64","358355","0.0-13.0-2.1","42","High_HMMActual","","","","","","null","","","","Images/BlackBeadChoiceCorrect.png","","null"
"image-button-response","65","359477","0.0-13.0-0.2","42","High_HMMActual","","","","","","1120.0050000007031","","","","Images/NewTrialBC.png","","2"
"image-button-response","66","359780","0.0-13.0-1.2","42","High_HMMActual","","","","","","null","","","","Images/WhiteBeadChoice.png","","null"
"image-button-response","67","360282","0.0-13.0-2.2","42","High_HMMActual","","","","","","null","","","","Images/WhiteBeadChoiceCorrect.png","","null"
"image-button-response","68","361475","0.0-13.0-0.3","42","High_HMMActual","","","","","","1190.8000000002794","","","","Images/NewTrialWC.png","","0"
"image-button-response","69","361777","0.0-13.0-1.3","42","High_HMMActual","","","","","","null","","","","Images/BlackBeadChoice.png","","null"
"image-button-response","70","362280","0.0-13.0-2.3","42","High_HMMActual","","","","","","null","","","","Images/BlackBeadChoiceCorrect.png","","null"
"image-button-response","71","366334","0.0-13.0-0.4","42","High_HMMActual","","","","","","4052.6549999995623","","","","Images/NewTrialBC.png","","3"
"image-button-response","72","366640","0.0-13.0-1.4","42","High_HMMActual","","","","","","null","","","","Images/WhiteBeadChoice.png","","null"
"image-button-response","73","367148","0.0-13.0-2.4","42","High_HMMActual","","","","","","null","","","","Images/WhiteBeadChoiceCorrect.png","","null"
"image-button-response","74","369537","0.0-13.0-0.5","42","High_HMMActual","","","","","","2387.020000000135","","","","Images/NewTrialWC.png","","1"
"image-button-response","75","369848","0.0-13.0-1.5","42","High_HMMActual","","","","","","null","","","","Images/BlackBeadChoice.png","","null"
"image-button-response","76","370351","0.0-13.0-2.5","42","High_HMMActual","","","","","","null","","","","Images/BlackBeadChoiceCorrect.png","","null"
"image-button-response","77","371178","0.0-13.0-0.6","42","High_HMMActual","","","","","","825.9199999993434","","","","Images/NewTrialBC.png","","2"
"image-button-response","78","371481","0.0-13.0-1.6","42","High_HMMActual","","","","","","null","","","","Images/WhiteBeadChoice.png","","null"
"image-button-response","79","371982","0.0-13.0-2.6","42","High_HMMActual","","","","","","null","","","","Images/WhiteBeadChoiceWrong.png","","null"
"image-button-response","80","373464","0.0-13.0-0.7","42","High_HMMActual","","","","","","1480.6150000003981","","","","Images/NewTrialBC.png","","0"
"image-button-response","81","373766","0.0-13.0-1.7","42","High_HMMActual","","","","","","null","","","","Images/BlackBeadChoice.png","","null"
"image-button-response","82","374268","0.0-13.0-2.7","42","High_HMMActual","","","","","","null","","","","Images/BlackBeadChoiceCorrect.png","","null"
"image-button-response","83","375986","0.0-13.0-0.8","42","High_HMMActual","","","","","","1716.1849999992992","","","","Images/NewTrialBC.png","","2"
"image-button-response","84","376295","0.0-13.0-1.8","42","High_HMMActual","","","","","","null","","","","Images/WhiteBeadChoice.png","","null"
"image-button-response","85","376796","0.0-13.0-2.8","42","High_HMMActual","","","","","","null","","","","Images/WhiteBeadChoiceCorrect.png","","null"
"image-button-response","86","378842","0.0-13.0-0.9","42","High_HMMActual","","","","","","2045.0799999998999","","","","Images/NewTrialWC.png","","0"
"image-button-response","87","379143","0.0-13.0-1.9","42","High_HMMActual","","","","","","null","","","","Images/BlackBeadChoice.png","","null"
"image-button-response","88","379646","0.0-13.0-2.9","42","High_HMMActual","","","","","","null","","","","Images/BlackBeadChoiceCorrect.png","","null"
"image-button-response","89","382320","0.0-13.0-0.10","42","High_HMMActual","","","","","","2672.6699999999255","","","","Images/NewTrialBC.png","","1"
"image-button-response","90","382622","0.0-13.0-1.10","42","High_HMMActual","","","","","","null","","","","Images/BlackBeadChoice.png","","null"
"image-button-response","91","383133","0.0-13.0-2.10","42","High_HMMActual","","","","","","null","","","","Images/BlackBeadChoiceWrong.png","","null"
"image-button-response","92","384297","0.0-13.0-0.11","42","High_HMMActual","","","","","","1161.9300000002258","","","","Images/NewTrialWC.png","","0"
"image-button-response","93","384600","0.0-13.0-1.11","42","High_HMMActual","","","","","","null","","","","Images/BlackBeadChoice.png","","null"
"image-button-response","94","385103","0.0-13.0-2.11","42","High_HMMActual","","","","","","null","","","","Images/BlackBeadChoiceCorrect.png","","null"
"image-button-response","95","386181","0.0-13.0-0.12","42","High_HMMActual","","","","","","1077.0400000001537","","","","Images/NewTrialBC.png","","2"
"image-button-response","96","386484","0.0-13.0-1.12","42","High_HMMActual","","","","","","null","","","","Images/WhiteBeadChoice.png","","null"
"image-button-response","97","386992","0.0-13.0-2.12","42","High_HMMActual","","","","","","null","","","","Images/WhiteBeadChoiceCorrect.png","","null"
"image-button-response","98","388111","0.0-13.0-0.13","42","High_HMMActual","","","","","","1117.7100000004866","","","","Images/NewTrialWC.png","","0"
"image-button-response","99","388414","0.0-13.0-1.13","42","High_HMMActual","","","","","","null","","","","Images/BlackBeadChoice.png","","null"
"image-button-response","100","388924","0.0-13.0-2.13","42","High_HMMActual","","","","","","null","","","","Images/BlackBeadChoiceCorrect.png","","null"
"image-button-response","101","390471","0.0-13.0-0.14","42","High_HMMActual","","","","","","1545.3049999996438","","","","Images/NewTrialBC.png","","2"
"image-button-response","102","390773","0.0-13.0-1.14","42","High_HMMActual","","","","","","null","","","","Images/WhiteBeadChoice.png","","null"
"image-button-response","103","391275","0.0-13.0-2.14","42","High_HMMActual","","","","","","null","","","","Images/WhiteBeadChoiceCorrect.png","","null"
"image-button-response","104","392777","0.0-13.0-0.15","42","High_HMMActual","","","","","","1500.2199999998556","","","","Images/NewTrialWC.png","","0"
"image-button-response","105","393087","0.0-13.0-1.15","42","High_HMMActual","","","","","","null","","","","Images/BlackBeadChoice.png","","null"
"image-button-response","106","393590","0.0-13.0-2.15","42","High_HMMActual","","","","","","null","","","","Images/BlackBeadChoiceCorrect.png","","null"
"image-button-response","107","394646","0.0-13.0-0.16","42","High_HMMActual","","","","","","1055.539999999397","","","","Images/NewTrialBC.png","","3"
"image-button-response","108","394948","0.0-13.0-1.16","42","High_HMMActual","","","","","","null","","","","Images/WhiteBeadChoice.png","","null"
"image-button-response","109","395452","0.0-13.0-2.16","42","High_HMMActual","","","","","","null","","","","Images/WhiteBeadChoiceCorrect.png","","null"
"image-button-response","110","399780","0.0-13.0-0.17","42","High_HMMActual","","","","","","4326.650000000896","","","","Images/NewTrialWC.png","","3"
"image-button-response","111","400085","0.0-13.0-1.17","42","High_HMMActual","","","","","","null","","","","Images/WhiteBeadChoice.png","","null"
"image-button-response","112","400596","0.0-13.0-2.17","42","High_HMMActual","","","","","","null","","","","Images/WhiteBeadChoiceWrong.png","","null"
"image-button-response","113","401616","0.0-13.0-0.18","42","High_HMMActual","","","","","","1018.6350000003586","","","","Images/NewTrialBC.png","","2"
"image-button-response","114","401928","0.0-13.0-1.18","42","High_HMMActual","","","","","","null","","","","Images/WhiteBeadChoice.png","","null"
"image-button-response","115","402431","0.0-13.0-2.18","42","High_HMMActual","","","","","","null","","","","Images/WhiteBeadChoiceCorrect.png","","null"
"image-button-response","116","403284","0.0-13.0-0.19","42","High_HMMActual","","","","","","850.6799999995856","","","","Images/NewTrialWC.png","","0"
"image-button-response","117","403586","0.0-13.0-1.19","42","High_HMMActual","","","","","","null","","","","Images/BlackBeadChoice.png","","null"
"image-button-response","118","404087","0.0-13.0-2.19","42","High_HMMActual","","","","","","null","","","","Images/BlackBeadChoiceWrong.png","","null"
"image-button-response","119","406856","0.0-13.0-0.20","42","High_HMMActual","","","","","","2767.50999999966","","","","Images/NewTrialWC.png","","0"
"image-button-response","120","407160","0.0-13.0-1.20","42","High_HMMActual","","","","","","null","","","","Images/BlackBeadChoice.png","","null"
"image-button-response","121","407662","0.0-13.0-2.20","42","High_HMMActual","","","","","","null","","","","Images/BlackBeadChoiceWrong.png","","null"
"image-button-response","122","409184","0.0-13.0-0.21","42","High_HMMActual","","","","","","1519.4400000000023","","","","Images/NewTrialWC.png","","0"
"image-button-response","123","409485","0.0-13.0-1.21","42","High_HMMActual","","","","","","null","","","","Images/BlackBeadChoice.png","","null"
"image-button-response","124","409987","0.0-13.0-2.21","42","High_HMMActual","","","","","","null","","","","Images/BlackBeadChoiceCorrect.png","","null"
"image-button-response","125","410894","0.0-13.0-0.22","42","High_HMMActual","","","","","","905.3400000011316","","","","Images/NewTrialBC.png","","2"
"image-button-response","126","411197","0.0-13.0-1.22","42","High_HMMActual","","","","","","null","","","","Images/WhiteBeadChoice.png","","null"
"image-button-response","127","411700","0.0-13.0-2.22","42","High_HMMActual","","","","","","null","","","","Images/WhiteBeadChoiceCorrect.png","","null"
"image-button-response","128","415529","0.0-13.0-0.23","42","High_HMMActual","","","","","","3827.6449999993783","","","","Images/NewTrialWC.png","","0"
"image-button-response","129","415835","0.0-13.0-1.23","42","High_HMMActual","","","","","","null","","","","Images/BlackBeadChoice.png","","null"
"image-button-response","130","416342","0.0-13.0-2.23","42","High_HMMActual","","","","","","null","","","","Images/BlackBeadChoiceWrong.png","","null"
"image-button-response","131","422405","0.0-13.0-0.24","42","High_HMMActual","","","","","","6061.025000000896","","","","Images/NewTrialWC.png","","0"
"image-button-response","132","422707","0.0-13.0-1.24","42","High_HMMActual","","","","","","null","","","","Images/BlackBeadChoice.png","","null"
"image-button-response","133","423210","0.0-13.0-2.24","42","High_HMMActual","","","","","","null","","","","Images/BlackBeadChoiceWrong.png","","null"
"image-button-response","134","425212","0.0-13.0-0.25","42","High_HMMActual","","","","","","1999.8750000013388","","","","Images/NewTrialWC.png","","1"
"image-button-response","135","425515","0.0-13.0-1.25","42","High_HMMActual","","","","","","null","","","","Images/BlackBeadChoice.png","","null"
"image-button-response","136","426020","0.0-13.0-2.25","42","High_HMMActual","","","","","","null","","","","Images/BlackBeadChoiceCorrect.png","","null"
"image-button-response","137","428030","0.0-13.0-0.26","42","High_HMMActual","","","","","","2009.6350000003586","","","","Images/NewTrialBC.png","","2"
"image-button-response","138","428332","0.0-13.0-1.26","42","High_HMMActual","","","","","","null","","","","Images/WhiteBeadChoice.png","","null"
"image-button-response","139","428837","0.0-13.0-2.26","42","High_HMMActual","","","","","","null","","","","Images/WhiteBeadChoiceCorrect.png","","null"
"image-button-response","140","432375","0.0-13.0-0.27","42","High_HMMActual","","","","","","3536.2750000003725","","","","Images/NewTrialWC.png","","0"
"image-button-response","141","432677","0.0-13.0-1.27","42","High_HMMActual","","","","","","null","","","","Images/BlackBeadChoice.png","","null"
"image-button-response","142","433180","0.0-13.0-2.27","42","High_HMMActual","","","","","","null","","","","Images/BlackBeadChoiceCorrect.png","","null"
"image-button-response","143","435219","0.0-13.0-0.28","42","High_HMMActual","","","","","","2037.3450000006123","","","","Images/NewTrialBC.png","","2"
"image-button-response","144","435521","0.0-13.0-1.28","42","High_HMMActual","","","","","","null","","","","Images/WhiteBeadChoice.png","","null"
"image-button-response","145","436030","0.0-13.0-2.28","42","High_HMMActual","","","","","","null","","","","Images/WhiteBeadChoiceCorrect.png","","null"
"image-button-response","146","438569","0.0-13.0-0.29","42","High_HMMActual","","","","","","2537.5599999988335","","","","Images/NewTrialWC.png","","0"
"image-button-response","147","438882","0.0-13.0-1.29","42","High_HMMActual","","","","","","null","","","","Images/BlackBeadChoice.png","","null"
"image-button-response","148","439389","0.0-13.0-2.29","42","High_HMMActual","","","","","","null","","","","Images/BlackBeadChoiceCorrect.png","","null"
"image-button-response","149","441226","0.0-13.0-0.30","42","High_HMMActual","","","","","","1835.6349999994854","","","","Images/NewTrialBC.png","","2"
"image-button-response","150","441528","0.0-13.0-1.30","42","High_HMMActual","","","","","","null","","","","Images/WhiteBeadChoice.png","","null"
"image-button-response","151","442031","0.0-13.0-2.30","42","High_HMMActual","","","","","","null","","","","Images/WhiteBeadChoiceWrong.png","","null"
"image-button-response","152","443610","0.0-13.0-0.31","42","High_HMMActual","","","","","","1577.4249999995227","","","","Images/NewTrialBC.png","","0"
"image-button-response","153","443912","0.0-13.0-1.31","42","High_HMMActual","","","","","","null","","","","Images/BlackBeadChoice.png","","null"
"image-button-response","154","444415","0.0-13.0-2.31","42","High_HMMActual","","","","","","null","","","","Images/BlackBeadChoiceWrong.png","","null"
"image-button-response","155","446937","0.0-13.0-0.32","42","High_HMMActual","","","","","","2520.9599999998463","","","","Images/NewTrialWC.png","","2"
"image-button-response","156","447238","0.0-13.0-1.32","42","High_HMMActual","","","","","","null","","","","Images/WhiteBeadChoice.png","","null"
"image-button-response","157","447740","0.0-13.0-2.32","42","High_HMMActual","","","","","","null","","","","Images/WhiteBeadChoiceCorrect.png","","null"
"image-button-response","158","450553","0.0-13.0-0.33","42","High_HMMActual","","","","","","2811.3099999991246","","","","Images/NewTrialWC.png","","3"
"image-button-response","159","450856","0.0-13.0-1.33","42","High_HMMActual","","","","","","null","","","","Images/WhiteBeadChoice.png","","null"
"image-button-response","160","451365","0.0-13.0-2.33","42","High_HMMActual","","","","","","null","","","","Images/WhiteBeadChoiceWrong.png","","null"
"image-button-response","161","452096","0.0-13.0-0.34","42","High_HMMActual","","","","","","728.9049999999697","","","","Images/NewTrialBC.png","","2"
"image-button-response","162","452399","0.0-13.0-1.34","42","High_HMMActual","","","","","","null","","","","Images/WhiteBeadChoice.png","","null"
"image-button-response","163","452901","0.0-13.0-2.34","42","High_HMMActual","","","","","","null","","","","Images/WhiteBeadChoiceCorrect.png","","null"
"image-button-response","164","453691","0.0-13.0-0.35","42","High_HMMActual","","","","","","788.0399999994552","","","","Images/NewTrialWC.png","","0"
"image-button-response","165","453992","0.0-13.0-1.35","42","High_HMMActual","","","","","","null","","","","Images/BlackBeadChoice.png","","null"
"image-button-response","166","454503","0.0-13.0-2.35","42","High_HMMActual","","","","","","null","","","","Images/BlackBeadChoiceCorrect.png","","null"
"image-button-response","167","456009","0.0-13.0-0.36","42","High_HMMActual","","","","","","1503.634999999078","","","","Images/NewTrialBC.png","","2"
"image-button-response","168","456312","0.0-13.0-1.36","42","High_HMMActual","","","","","","null","","","","Images/WhiteBeadChoice.png","","null"
"image-button-response","169","456815","0.0-13.0-2.36","42","High_HMMActual","","","","","","null","","","","Images/WhiteBeadChoiceWrong.png","","null"
"image-button-response","170","457819","0.0-13.0-0.37","42","High_HMMActual","","","","","","1002.3199999995995","","","","Images/NewTrialBC.png","","0"
"image-button-response","171","458121","0.0-13.0-1.37","42","High_HMMActual","","","","","","null","","","","Images/BlackBeadChoice.png","","null"
"image-button-response","172","458623","0.0-13.0-2.37","42","High_HMMActual","","","","","","null","","","","Images/BlackBeadChoiceCorrect.png","","null"
"image-button-response","173","459799","0.0-13.0-0.38","42","High_HMMActual","","","","","","1174.6500000008382","","","","Images/NewTrialBC.png","","2"
"image-button-response","174","460108","0.0-13.0-1.38","42","High_HMMActual","","","","","","null","","","","Images/WhiteBeadChoice.png","","null"
"image-button-response","175","460610","0.0-13.0-2.38","42","High_HMMActual","","","","","","null","","","","Images/WhiteBeadChoiceCorrect.png","","null"
"image-button-response","176","462888","0.0-13.0-0.39","42","High_HMMActual","","","","","","2275.405000000377","","","","Images/NewTrialWC.png","","3"
"image-button-response","177","463203","0.0-13.0-1.39","42","High_HMMActual","","","","","","null","","","","Images/WhiteBeadChoice.png","","null"
"image-button-response","178","463706","0.0-13.0-2.39","42","High_HMMActual","","","","","","null","","","","Images/WhiteBeadChoiceWrong.png","","null"
"image-button-response","179","464350","0.0-13.0-0.40","42","High_HMMActual","","","","","","641.8199999989592","","","","Images/NewTrialBC.png","","2"
"image-button-response","180","464653","0.0-13.0-1.40","42","High_HMMActual","","","","","","null","","","","Images/WhiteBeadChoice.png","","null"
"image-button-response","181","465156","0.0-13.0-2.40","42","High_HMMActual","","","","","","null","","","","Images/WhiteBeadChoiceCorrect.png","","null"
"image-button-response","182","466417","0.0-13.0-0.41","42","High_HMMActual","","","","","","1258.9200000002165","","","","Images/NewTrialWC.png","","3"
"image-button-response","183","466718","0.0-13.0-1.41","42","High_HMMActual","","","","","","null","","","","Images/WhiteBeadChoice.png","","null"
"image-button-response","184","467220","0.0-13.0-2.41","42","High_HMMActual","","","","","","null","","","","Images/WhiteBeadChoiceCorrect.png","","null"
"image-button-response","185","470070","0.0-13.0-0.42","42","High_HMMActual","","","","","","2848.7050000003655","","","","Images/NewTrialWC.png","","2"
"image-button-response","186","470378","0.0-13.0-1.42","42","High_HMMActual","","","","","","null","","","","Images/WhiteBeadChoice.png","","null"
"image-button-response","187","470880","0.0-13.0-2.42","42","High_HMMActual","","","","","","null","","","","Images/WhiteBeadChoiceWrong.png","","null"
"image-button-response","188","472139","0.0-13.0-0.43","42","High_HMMActual","","","","","","1257.879999999248","","","","Images/NewTrialBC.png","","0"
"image-button-response","189","472442","0.0-13.0-1.43","42","High_HMMActual","","","","","","null","","","","Images/BlackBeadChoice.png","","null"
"image-button-response","190","472952","0.0-13.0-2.43","42","High_HMMActual","","","","","","null","","","","Images/BlackBeadChoiceWrong.png","","null"
"image-button-response","191","474396","0.0-13.0-0.44","42","High_HMMActual","","","","","","1443.0049999991897","","","","Images/NewTrialWC.png","","2"
"image-button-response","192","474699","0.0-13.0-1.44","42","High_HMMActual","","","","","","null","","","","Images/WhiteBeadChoice.png","","null"
"image-button-response","193","475214","0.0-13.0-2.44","42","High_HMMActual","","","","","","null","","","","Images/WhiteBeadChoiceCorrect.png","","null"
"image-button-response","194","476506","0.0-13.0-0.45","42","High_HMMActual","","","","","","1290.2549999998882","","","","Images/NewTrialWC.png","","0"
"image-button-response","195","476809","0.0-13.0-1.45","42","High_HMMActual","","","","","","null","","","","Images/BlackBeadChoice.png","","null"
"image-button-response","196","477325","0.0-13.0-2.45","42","High_HMMActual","","","","","","null","","","","Images/BlackBeadChoiceWrong.png","","null"
"image-button-response","197","478523","0.0-13.0-0.46","42","High_HMMActual","","","","","","1195.9800000003888","","","","Images/NewTrialWC.png","","2"
"image-button-response","198","478826","0.0-13.0-1.46","42","High_HMMActual","","","","","","null","","","","Images/WhiteBeadChoice.png","","null"
"image-button-response","199","479328","0.0-13.0-2.46","42","High_HMMActual","","","","","","null","","","","Images/WhiteBeadChoiceWrong.png","","null"
"image-button-response","200","483232","0.0-13.0-0.47","42","High_HMMActual","","","","","","3902.3199999992503","","","","Images/NewTrialBC.png","","0"
"image-button-response","201","483534","0.0-13.0-1.47","42","High_HMMActual","","","","","","null","","","","Images/BlackBeadChoice.png","","null"
"image-button-response","202","484038","0.0-13.0-2.47","42","High_HMMActual","","","","","","null","","","","Images/BlackBeadChoiceCorrect.png","","null"
"image-button-response","203","485336","0.0-13.0-0.48","42","High_HMMActual","","","","","","1296.4199999987613","","","","Images/NewTrialBC.png","","2"
"image-button-response","204","485638","0.0-13.0-1.48","42","High_HMMActual","","","","","","null","","","","Images/WhiteBeadChoice.png","","null"
"image-button-response","205","486155","0.0-13.0-2.48","42","High_HMMActual","","","","","","null","","","","Images/WhiteBeadChoiceWrong.png","","null"
"image-button-response","206","487766","0.0-13.0-0.49","42","High_HMMActual","","","","","","1609.0299999996205","","","","Images/NewTrialBC.png","","0"
"image-button-response","207","488067","0.0-13.0-1.49","42","High_HMMActual","","","","","","null","","","","Images/BlackBeadChoice.png","","null"
"image-button-response","208","488569","0.0-13.0-2.49","42","High_HMMActual","","","","","","null","","","","Images/BlackBeadChoiceWrong.png","","null"
"image-button-response","209","494199","0.0-13.0-0.50","42","High_HMMActual","","","","","","5629.189999999653","","","","Images/NewTrialWC.png","","2"
"image-button-response","210","494503","0.0-13.0-1.50","42","High_HMMActual","","","","","","null","","","","Images/WhiteBeadChoice.png","","null"
"image-button-response","211","495005","0.0-13.0-2.50","42","High_HMMActual","","","","","","null","","","","Images/WhiteBeadChoiceWrong.png","","null"
"image-button-response","212","499868","0.0-13.0-0.51","42","High_HMMActual","","","","","","4861.064999999187","","","","Images/NewTrialBC.png","","0"
"image-button-response","213","500178","0.0-13.0-1.51","42","High_HMMActual","","","","","","null","","","","Images/BlackBeadChoice.png","","null"
"image-button-response","214","500681","0.0-13.0-2.51","42","High_HMMActual","","","","","","null","","","","Images/BlackBeadChoiceWrong.png","","null"
"image-button-response","215","502856","0.0-13.0-0.52","42","High_HMMActual","","","","","","2172.590000000142","","","","Images/NewTrialWC.png","","0"
"image-button-response","216","503157","0.0-13.0-1.52","42","High_HMMActual","","","","","","null","","","","Images/BlackBeadChoice.png","","null"
"image-button-response","217","503660","0.0-13.0-2.52","42","High_HMMActual","","","","","","null","","","","Images/BlackBeadChoiceWrong.png","","null"
"image-button-response","218","505078","0.0-13.0-0.53","42","High_HMMActual","","","","","","1416.005000000936","","","","Images/NewTrialWC.png","","0"
"image-button-response","219","505381","0.0-13.0-1.53","42","High_HMMActual","","","","","","null","","","","Images/BlackBeadChoice.png","","null"
"image-button-response","220","505884","0.0-13.0-2.53","42","High_HMMActual","","","","","","null","","","","Images/BlackBeadChoiceWrong.png","","null"
"image-button-response","221","507296","0.0-13.0-0.54","42","High_HMMActual","","","","","","1410.7449999992386","","","","Images/NewTrialWC.png","","0"
"image-button-response","222","507599","0.0-13.0-1.54","42","High_HMMActual","","","","","","null","","","","Images/BlackBeadChoice.png","","null"
"image-button-response","223","508101","0.0-13.0-2.54","42","High_HMMActual","","","","","","null","","","","Images/BlackBeadChoiceCorrect.png","","null"
"image-button-response","224","509346","0.0-13.0-0.55","42","High_HMMActual","","","","","","1243.4549999997835","","","","Images/NewTrialBC.png","","2"
"image-button-response","225","509649","0.0-13.0-1.55","42","High_HMMActual","","","","","","null","","","","Images/WhiteBeadChoice.png","","null"
"image-button-response","226","510151","0.0-13.0-2.55","42","High_HMMActual","","","","","","null","","","","Images/WhiteBeadChoiceCorrect.png","","null"
"image-button-response","227","511331","0.0-13.0-0.56","42","High_HMMActual","","","","","","1178.7850000000326","","","","Images/NewTrialWC.png","","3"
"image-button-response","228","511633","0.0-13.0-1.56","42","High_HMMActual","","","","","","null","","","","Images/WhiteBeadChoice.png","","null"
"image-button-response","229","512135","0.0-13.0-2.56","42","High_HMMActual","","","","","","null","","","","Images/WhiteBeadChoiceWrong.png","","null"
"image-button-response","230","512780","0.0-13.0-0.57","42","High_HMMActual","","","","","","642.480000000447","","","","Images/NewTrialBC.png","","2"
"image-button-response","231","513093","0.0-13.0-1.57","42","High_HMMActual","","","","","","null","","","","Images/WhiteBeadChoice.png","","null"
"image-button-response","232","513602","0.0-13.0-2.57","42","High_HMMActual","","","","","","null","","","","Images/WhiteBeadChoiceCorrect.png","","null"
"image-button-response","233","515826","0.0-13.0-0.58","42","High_HMMActual","","","","","","2221.8900000007125","","","","Images/NewTrialWC.png","","1"
"image-button-response","234","516128","0.0-13.0-1.58","42","High_HMMActual","","","","","","null","","","","Images/BlackBeadChoice.png","","null"
"image-button-response","235","516640","0.0-13.0-2.58","42","High_HMMActual","","","","","","null","","","","Images/BlackBeadChoiceWrong.png","","null"
"image-button-response","236","519318","0.0-13.0-0.59","42","High_HMMActual","","","","","","2676.559999999823","","","","Images/NewTrialWC.png","","0"
"image-button-response","237","519622","0.0-13.0-1.59","42","High_HMMActual","","","","","","null","","","","Images/BlackBeadChoice.png","","null"
"image-button-response","238","520129","0.0-13.0-2.59","42","High_HMMActual","","","","","","null","","","","Images/BlackBeadChoiceWrong.png","","null"
"image-button-response","239","521061","0.0-13.0-0.60","42","High_HMMActual","","","","","","930.6799999994691","","","","Images/NewTrialWC.png","","0"
"image-button-response","240","521363","0.0-13.0-1.60","42","High_HMMActual","","","","","","null","","","","Images/BlackBeadChoice.png","","null"
"image-button-response","241","521873","0.0-13.0-2.60","42","High_HMMActual","","","","","","null","","","","Images/BlackBeadChoiceCorrect.png","","null"
"image-button-response","242","523904","0.0-13.0-0.61","42","High_HMMActual","","","","","","2029.0650000006426","","","","Images/NewTrialBC.png","","2"
"image-button-response","243","524209","0.0-13.0-1.61","42","High_HMMActual","","","","","","null","","","","Images/WhiteBeadChoice.png","","null"
"image-button-response","244","524711","0.0-13.0-2.61","42","High_HMMActual","","","","","","null","","","","Images/WhiteBeadChoiceCorrect.png","","null"
"image-button-response","245","526093","0.0-13.0-0.62","42","High_HMMActual","","","","","","1380.1050000002142","","","","Images/NewTrialWC.png","","0"
"image-button-response","246","526405","0.0-13.0-1.62","42","High_HMMActual","","","","","","null","","","","Images/BlackBeadChoice.png","","null"
"image-button-response","247","526907","0.0-13.0-2.62","42","High_HMMActual","","","","","","null","","","","Images/BlackBeadChoiceWrong.png","","null"
"image-button-response","248","528331","0.0-13.0-0.63","42","High_HMMActual","","","","","","1422.2850000004983","","","","Images/NewTrialWC.png","","2"
"image-button-response","249","528634","0.0-13.0-1.63","42","High_HMMActual","","","","","","null","","","","Images/WhiteBeadChoice.png","","null"
"image-button-response","250","529137","0.0-13.0-2.63","42","High_HMMActual","","","","","","null","","","","Images/WhiteBeadChoiceWrong.png","","null"
"image-button-response","251","530161","0.0-13.0-0.64","42","High_HMMActual","","","","","","1023.6700000005076","","","","Images/NewTrialBC.png","","0"
"image-button-response","252","530463","0.0-13.0-1.64","42","High_HMMActual","","","","","","null","","","","Images/BlackBeadChoice.png","","null"
"image-button-response","253","530965","0.0-13.0-2.64","42","High_HMMActual","","","","","","null","","","","Images/BlackBeadChoiceCorrect.png","","null"
"image-button-response","254","532253","0.0-13.0-0.65","42","High_HMMActual","","","","","","1287.0750000001863","","","","Images/NewTrialBC.png","","2"
"image-button-response","255","532569","0.0-13.0-1.65","42","High_HMMActual","","","","","","null","","","","Images/WhiteBeadChoice.png","","null"
"image-button-response","256","533070","0.0-13.0-2.65","42","High_HMMActual","","","","","","null","","","","Images/WhiteBeadChoiceCorrect.png","","null"
"image-button-response","257","535029","0.0-13.0-0.66","42","High_HMMActual","","","","","","1956.930000000284","","","","Images/NewTrialWC.png","","0"
"image-button-response","258","535332","0.0-13.0-1.66","42","High_HMMActual","","","","","","null","","","","Images/BlackBeadChoice.png","","null"
"image-button-response","259","535836","0.0-13.0-2.66","42","High_HMMActual","","","","","","null","","","","Images/BlackBeadChoiceCorrect.png","","null"
"image-button-response","260","538350","0.0-13.0-0.67","42","High_HMMActual","","","","","","2513.2349999984726","","","","Images/NewTrialBC.png","","1"
"image-button-response","261","538653","0.0-13.0-1.67","42","High_HMMActual","","","","","","null","","","","Images/BlackBeadChoice.png","","null"
"image-button-response","262","539153","0.0-13.0-2.67","42","High_HMMActual","","","","","","null","","","","Images/BlackBeadChoiceWrong.png","","null"
"image-button-response","263","541930","0.0-13.0-0.68","42","High_HMMActual","","","","","","2775.0300000007264","","","","Images/NewTrialWC.png","","3"
"image-button-response","264","542243","0.0-13.0-1.68","42","High_HMMActual","","","","","","null","","","","Images/WhiteBeadChoice.png","","null"
"image-button-response","265","542746","0.0-13.0-2.68","42","High_HMMActual","","","","","","null","","","","Images/WhiteBeadChoiceWrong.png","","null"
"image-button-response","266","543693","0.0-13.0-0.69","42","High_HMMActual","","","","","","945.0849999993807","","","","Images/NewTrialBC.png","","2"
"image-button-response","267","543995","0.0-13.0-1.69","42","High_HMMActual","","","","","","null","","","","Images/WhiteBeadChoice.png","","null"
"image-button-response","268","544507","0.0-13.0-2.69","42","High_HMMActual","","","","","","null","","","","Images/WhiteBeadChoiceCorrect.png","","null"
"image-button-response","269","545288","0.0-13.0-0.70","42","High_HMMActual","","","","","","780.1200000012759","","","","Images/NewTrialWC.png","","0"
"image-button-response","270","545590","0.0-13.0-1.70","42","High_HMMActual","","","","","","null","","","","Images/BlackBeadChoice.png","","null"
"image-button-response","271","546092","0.0-13.0-2.70","42","High_HMMActual","","","","","","null","","","","Images/BlackBeadChoiceCorrect.png","","null"
"image-button-response","272","546848","0.0-13.0-0.71","42","High_HMMActual","","","","","","753.9699999997392","","","","Images/NewTrialBC.png","","2"
"image-button-response","273","547151","0.0-13.0-1.71","42","High_HMMActual","","","","","","null","","","","Images/WhiteBeadChoice.png","","null"
"image-button-response","274","547654","0.0-13.0-2.71","42","High_HMMActual","","","","","","null","","","","Images/WhiteBeadChoiceCorrect.png","","null"
"image-button-response","275","548165","0.0-13.0-0.72","42","High_HMMActual","","","","","","510.26499999896623","","","","Images/NewTrialWC.png","","0"
"image-button-response","276","548466","0.0-13.0-1.72","42","High_HMMActual","","","","","","null","","","","Images/BlackBeadChoice.png","","null"
"image-button-response","277","548968","0.0-13.0-2.72","42","High_HMMActual","","","","","","null","","","","Images/BlackBeadChoiceCorrect.png","","null"
"image-button-response","278","549701","0.0-13.0-0.73","42","High_HMMActual","","","","","","731.3400000003166","","","","Images/NewTrialBC.png","","2"
"image-button-response","279","550009","0.0-13.0-1.73","42","High_HMMActual","","","","","","null","","","","Images/WhiteBeadChoice.png","","null"
"image-button-response","280","550512","0.0-13.0-2.73","42","High_HMMActual","","","","","","null","","","","Images/WhiteBeadChoiceCorrect.png","","null"
"image-button-response","281","551018","0.0-13.0-0.74","42","High_HMMActual","","","","","","503.3849999998929","","","","Images/NewTrialWC.png","","0"
"image-button-response","282","551320","0.0-13.0-1.74","42","High_HMMActual","","","","","","null","","","","Images/BlackBeadChoice.png","","null"
"image-button-response","283","551827","0.0-13.0-2.74","42","High_HMMActual","","","","","","null","","","","Images/BlackBeadChoiceCorrect.png","","null"
"image-button-response","284","553174","0.0-13.0-0.75","42","High_HMMActual","","","","","","1345.9899999997579","","","","Images/NewTrialBC.png","","1"
"image-button-response","285","553478","0.0-13.0-1.75","42","High_HMMActual","","","","","","null","","","","Images/BlackBeadChoice.png","","null"
"image-button-response","286","553980","0.0-13.0-2.75","42","High_HMMActual","","","","","","null","","","","Images/BlackBeadChoiceCorrect.png","","null"
"image-button-response","287","555968","0.0-13.0-0.76","42","High_HMMActual","","","","","","1986.240000000107","","","","Images/NewTrialBC.png","","3"
"image-button-response","288","556285","0.0-13.0-1.76","42","High_HMMActual","","","","","","null","","","","Images/WhiteBeadChoice.png","","null"
"image-button-response","289","556794","0.0-13.0-2.76","42","High_HMMActual","","","","","","null","","","","Images/WhiteBeadChoiceWrong.png","","null"
"image-button-response","290","557768","0.0-13.0-0.77","42","High_HMMActual","","","","","","972.4549999991432","","","","Images/NewTrialBC.png","","2"
"image-button-response","291","558082","0.0-13.0-1.77","42","High_HMMActual","","","","","","null","","","","Images/WhiteBeadChoice.png","","null"
"image-button-response","292","558585","0.0-13.0-2.77","42","High_HMMActual","","","","","","null","","","","Images/WhiteBeadChoiceCorrect.png","","null"
"image-button-response","293","560966","0.0-13.0-0.78","42","High_HMMActual","","","","","","2378.7600000014063","","","","Images/NewTrialWC.png","","0"
"image-button-response","294","561268","0.0-13.0-1.78","42","High_HMMActual","","","","","","null","","","","Images/BlackBeadChoice.png","","null"
"image-button-response","295","561771","0.0-13.0-2.78","42","High_HMMActual","","","","","","null","","","","Images/BlackBeadChoiceCorrect.png","","null"
"image-button-response","296","562736","0.0-13.0-0.79","42","High_HMMActual","","","","","","962.9850000001024","","","","Images/NewTrialBC.png","","2"
"image-button-response","297","563038","0.0-13.0-1.79","42","High_HMMActual","","","","","","null","","","","Images/WhiteBeadChoice.png","","null"
"image-button-response","298","563555","0.0-13.0-2.79","42","High_HMMActual","","","","","","null","","","","Images/WhiteBeadChoiceWrong.png","","null"
"image-button-response","299","565064","0.0-13.0-0.80","42","High_HMMActual","","","","","","1507.344999999972","","","","Images/NewTrialBC.png","","0"
"image-button-response","300","565365","0.0-13.0-1.80","42","High_HMMActual","","","","","","null","","","","Images/BlackBeadChoice.png","","null"
"image-button-response","301","565866","0.0-13.0-2.80","42","High_HMMActual","","","","","","null","","","","Images/BlackBeadChoiceCorrect.png","","null"
"image-button-response","302","566795","0.0-13.0-0.81","42","High_HMMActual","","","","","","926.6149999984773","","","","Images/NewTrialBC.png","","2"
"image-button-response","303","567101","0.0-13.0-1.81","42","High_HMMActual","","","","","","null","","","","Images/WhiteBeadChoice.png","","null"
"image-button-response","304","567604","0.0-13.0-2.81","42","High_HMMActual","","","","","","null","","","","Images/WhiteBeadChoiceCorrect.png","","null"
"image-button-response","305","568713","0.0-13.0-0.82","42","High_HMMActual","","","","","","1108.0949999995064","","","","Images/NewTrialWC.png","","0"
"image-button-response","306","569020","0.0-13.0-1.82","42","High_HMMActual","","","","","","null","","","","Images/BlackBeadChoice.png","","null"
"image-button-response","307","569523","0.0-13.0-2.82","42","High_HMMActual","","","","","","null","","","","Images/BlackBeadChoiceWrong.png","","null"
"image-button-response","308","570398","0.0-13.0-0.83","42","High_HMMActual","","","","","","874.149999999674","","","","Images/NewTrialWC.png","","2"
"image-button-response","309","570701","0.0-13.0-1.83","42","High_HMMActual","","","","","","null","","","","Images/WhiteBeadChoice.png","","null"
"image-button-response","310","571203","0.0-13.0-2.83","42","High_HMMActual","","","","","","null","","","","Images/WhiteBeadChoiceCorrect.png","","null"
"image-button-response","311","571792","0.0-13.0-0.84","42","High_HMMActual","","","","","","587.0249999989755","","","","Images/NewTrialWC.png","","0"
"image-button-response","312","572095","0.0-13.0-1.84","42","High_HMMActual","","","","","","null","","","","Images/BlackBeadChoice.png","","null"
"image-button-response","313","572598","0.0-13.0-2.84","42","High_HMMActual","","","","","","null","","","","Images/BlackBeadChoiceCorrect.png","","null"
"image-button-response","314","573081","0.0-13.0-0.85","42","High_HMMActual","","","","","","480.8100000008708","","","","Images/NewTrialBC.png","","2"
"image-button-response","315","573384","0.0-13.0-1.85","42","High_HMMActual","","","","","","null","","","","Images/WhiteBeadChoice.png","","null"
"image-button-response","316","573886","0.0-13.0-2.85","42","High_HMMActual","","","","","","null","","","","Images/WhiteBeadChoiceCorrect.png","","null"
"image-button-response","317","575512","0.0-13.0-0.86","42","High_HMMActual","","","","","","1625.2749999985099","","","","Images/NewTrialWC.png","","3"
"image-button-response","318","575814","0.0-13.0-1.86","42","High_HMMActual","","","","","","null","","","","Images/WhiteBeadChoice.png","","null"
"image-button-response","319","576315","0.0-13.0-2.86","42","High_HMMActual","","","","","","null","","","","Images/WhiteBeadChoiceWrong.png","","null"
"image-button-response","320","577351","0.0-13.0-0.87","42","High_HMMActual","","","","","","1033.9149999999208","","","","Images/NewTrialBC.png","","1"
"image-button-response","321","577654","0.0-13.0-1.87","42","High_HMMActual","","","","","","null","","","","Images/BlackBeadChoice.png","","null"
"image-button-response","322","578157","0.0-13.0-2.87","42","High_HMMActual","","","","","","null","","","","Images/BlackBeadChoiceCorrect.png","","null"
"image-button-response","323","578812","0.0-13.0-0.88","42","High_HMMActual","","","","","","653.6850000011036","","","","Images/NewTrialBC.png","","0"
"image-button-response","324","579113","0.0-13.0-1.88","42","High_HMMActual","","","","","","null","","","","Images/BlackBeadChoice.png","","null"
"image-button-response","325","579615","0.0-13.0-2.88","42","High_HMMActual","","","","","","null","","","","Images/BlackBeadChoiceCorrect.png","","null"
"image-button-response","326","580183","0.0-13.0-0.89","42","High_HMMActual","","","","","","566.5800000005402","","","","Images/NewTrialBC.png","","2"
"image-button-response","327","580487","0.0-13.0-1.89","42","High_HMMActual","","","","","","null","","","","Images/WhiteBeadChoice.png","","null"
"image-button-response","328","580988","0.0-13.0-2.89","42","High_HMMActual","","","","","","null","","","","Images/WhiteBeadChoiceWrong.png","","null"
"image-button-response","329","582215","0.0-13.0-0.90","42","High_HMMActual","","","","","","1225.3049999999348","","","","Images/NewTrialBC.png","","0"
"image-button-response","330","582520","0.0-13.0-1.90","42","High_HMMActual","","","","","","null","","","","Images/BlackBeadChoice.png","","null"
"image-button-response","331","583021","0.0-13.0-2.90","42","High_HMMActual","","","","","","null","","","","Images/BlackBeadChoiceWrong.png","","null"
"image-button-response","332","583852","0.0-13.0-0.91","42","High_HMMActual","","","","","","829.9200000001583","","","","Images/NewTrialWC.png","","2"
"image-button-response","333","584157","0.0-13.0-1.91","42","High_HMMActual","","","","","","null","","","","Images/WhiteBeadChoice.png","","null"
"image-button-response","334","584660","0.0-13.0-2.91","42","High_HMMActual","","","","","","null","","","","Images/WhiteBeadChoiceWrong.png","","null"
"image-button-response","335","585457","0.0-13.0-0.92","42","High_HMMActual","","","","","","795.8550000003306","","","","Images/NewTrialBC.png","","0"
"image-button-response","336","585760","0.0-13.0-1.92","42","High_HMMActual","","","","","","null","","","","Images/BlackBeadChoice.png","","null"
"image-button-response","337","586277","0.0-13.0-2.92","42","High_HMMActual","","","","","","null","","","","Images/BlackBeadChoiceWrong.png","","null"
"image-button-response","338","587499","0.0-13.0-0.93","42","High_HMMActual","","","","","","1220.5150000008289","","","","Images/NewTrialWC.png","","2"
"image-button-response","339","587802","0.0-13.0-1.93","42","High_HMMActual","","","","","","null","","","","Images/WhiteBeadChoice.png","","null"
"image-button-response","340","588315","0.0-13.0-2.93","42","High_HMMActual","","","","","","null","","","","Images/WhiteBeadChoiceCorrect.png","","null"
"image-button-response","341","589056","0.0-13.0-0.94","42","High_HMMActual","","","","","","739.1150000003399","","","","Images/NewTrialWC.png","","0"
"image-button-response","342","589359","0.0-13.0-1.94","42","High_HMMActual","","","","","","null","","","","Images/BlackBeadChoice.png","","null"
"image-button-response","343","589871","0.0-13.0-2.94","42","High_HMMActual","","","","","","null","","","","Images/BlackBeadChoiceWrong.png","","null"
"image-button-response","344","591019","0.0-13.0-0.95","42","High_HMMActual","","","","","","1146.039999999688","","","","Images/NewTrialWC.png","","2"
"image-button-response","345","591333","0.0-13.0-1.95","42","High_HMMActual","","","","","","null","","","","Images/WhiteBeadChoice.png","","null"
"image-button-response","346","591835","0.0-13.0-2.95","42","High_HMMActual","","","","","","null","","","","Images/WhiteBeadChoiceCorrect.png","","null"
"image-button-response","347","592521","0.0-13.0-0.96","42","High_HMMActual","","","","","","684.1899999999441","","","","Images/NewTrialWC.png","","0"
"image-button-response","348","592822","0.0-13.0-1.96","42","High_HMMActual","","","","","","null","","","","Images/BlackBeadChoice.png","","null"
"image-button-response","349","593335","0.0-13.0-2.96","42","High_HMMActual","","","","","","null","","","","Images/BlackBeadChoiceWrong.png","","null"
"image-button-response","350","593980","0.0-13.0-0.97","42","High_HMMActual","","","","","","643.1349999984959","","","","Images/NewTrialWC.png","","2"
"image-button-response","351","594291","0.0-13.0-1.97","42","High_HMMActual","","","","","","null","","","","Images/WhiteBeadChoice.png","","null"
"image-button-response","352","594792","0.0-13.0-2.97","42","High_HMMActual","","","","","","null","","","","Images/WhiteBeadChoiceWrong.png","","null"
"image-button-response","353","595454","0.0-13.0-0.98","42","High_HMMActual","","","","","","660.0500000003958","","","","Images/NewTrialBC.png","","0"
"image-button-response","354","595756","0.0-13.0-1.98","42","High_HMMActual","","","","","","null","","","","Images/BlackBeadChoice.png","","null"
"image-button-response","355","596273","0.0-13.0-2.98","42","High_HMMActual","","","","","","null","","","","Images/BlackBeadChoiceWrong.png","","null"
"image-button-response","356","597341","0.0-13.0-0.99","42","High_HMMActual","","","","","","1065.8000000003958","","","","Images/NewTrialWC.png","","2"
"image-button-response","357","597643","0.0-13.0-1.99","42","High_HMMActual","","","","","","null","","","","Images/WhiteBeadChoice.png","","null"
"image-button-response","358","598148","0.0-13.0-2.99","42","High_HMMActual","","","","","","null","","","","Images/WhiteBeadChoiceWrong.png","","null"
"image-button-response","359","599179","0.0-13.0-0.100","42","High_HMMActual","","","","","","1029.0549999990035","","","","Images/NewTrialBC.png","","0"
"image-button-response","360","599482","0.0-13.0-1.100","42","High_HMMActual","","","","","","null","","","","Images/BlackBeadChoice.png","","null"
"image-button-response","361","599987","0.0-13.0-2.100","42","High_HMMActual","","","","","","null","","","","Images/BlackBeadChoiceWrong.png","","null"
"image-button-response","362","600674","0.0-13.0-0.101","42","High_HMMActual","","","","","","685.9499999991385","","","","Images/NewTrialWC.png","","0"
"image-button-response","363","600978","0.0-13.0-1.101","42","High_HMMActual","","","","","","null","","","","Images/BlackBeadChoice.png","","null"
"image-button-response","364","601480","0.0-13.0-2.101","42","High_HMMActual","","","","","","null","","","","Images/BlackBeadChoiceCorrect.png","","null"
"image-button-response","365","601998","0.0-13.0-0.102","42","High_HMMActual","","","","","","516.5899999992689","","","","Images/NewTrialBC.png","","2"
"image-button-response","366","602308","0.0-13.0-1.102","42","High_HMMActual","","","","","","null","","","","Images/WhiteBeadChoice.png","","null"
"image-button-response","367","602810","0.0-13.0-2.102","42","High_HMMActual","","","","","","null","","","","Images/WhiteBeadChoiceCorrect.png","","null"
"image-button-response","368","603926","0.0-13.0-0.103","42","High_HMMActual","","","","","","1114.6300000000047","","","","Images/NewTrialWC.png","","0"
"image-button-response","369","604230","0.0-13.0-1.103","42","High_HMMActual","","","","","","null","","","","Images/BlackBeadChoice.png","","null"
"image-button-response","370","604732","0.0-13.0-2.103","42","High_HMMActual","","","","","","null","","","","Images/BlackBeadChoiceCorrect.png","","null"
"image-button-response","371","605428","0.0-13.0-0.104","42","High_HMMActual","","","","","","695.3850000008242","","","","Images/NewTrialBC.png","","2"
"image-button-response","372","605729","0.0-13.0-1.104","42","High_HMMActual","","","","","","null","","","","Images/WhiteBeadChoice.png","","null"
"image-button-response","373","606235","0.0-13.0-2.104","42","High_HMMActual","","","","","","null","","","","Images/WhiteBeadChoiceCorrect.png","","null"
"image-button-response","374","607758","0.0-13.0-0.105","42","High_HMMActual","","","","","","1520.9799999992829","","","","Images/NewTrialWC.png","","0"
"image-button-response","375","608060","0.0-13.0-1.105","42","High_HMMActual","","","","","","null","","","","Images/BlackBeadChoice.png","","null"
"image-button-response","376","608569","0.0-13.0-2.105","42","High_HMMActual","","","","","","null","","","","Images/BlackBeadChoiceCorrect.png","","null"
"image-button-response","377","610699","0.0-13.0-0.106","42","High_HMMActual","","","","","","2128.829999999609","","","","Images/NewTrialBC.png","","2"
"image-button-response","378","611001","0.0-13.0-1.106","42","High_HMMActual","","","","","","null","","","","Images/WhiteBeadChoice.png","","null"
"image-button-response","379","611504","0.0-13.0-2.106","42","High_HMMActual","","","","","","null","","","","Images/WhiteBeadChoiceCorrect.png","","null"
"image-button-response","380","611985","0.0-13.0-0.107","42","High_HMMActual","","","","","","479.17000000050757","","","","Images/NewTrialWC.png","","0"
"image-button-response","381","612287","0.0-13.0-1.107","42","High_HMMActual","","","","","","null","","","","Images/BlackBeadChoice.png","","null"
"image-button-response","382","612791","0.0-13.0-2.107","42","High_HMMActual","","","","","","null","","","","Images/BlackBeadChoiceCorrect.png","","null"
"image-button-response","383","619256","0.0-13.0-0.108","42","High_HMMActual","","","","","","6463.605000000796","","","","Images/NewTrialBC.png","","2"
"image-button-response","384","619566","0.0-13.0-1.108","42","High_HMMActual","","","","","","null","","","","Images/WhiteBeadChoice.png","","null"
"image-button-response","385","620068","0.0-13.0-2.108","42","High_HMMActual","","","","","","null","","","","Images/WhiteBeadChoiceCorrect.png","","null"
"image-button-response","386","620507","0.0-13.0-0.109","42","High_HMMActual","","","","","","437.11000000080094","","","","Images/NewTrialWC.png","","0"
"image-button-response","387","620810","0.0-13.0-1.109","42","High_HMMActual","","","","","","null","","","","Images/BlackBeadChoice.png","","null"
"image-button-response","388","621311","0.0-13.0-2.109","42","High_HMMActual","","","","","","null","","","","Images/BlackBeadChoiceWrong.png","","null"
"image-button-response","389","622072","0.0-13.0-0.110","42","High_HMMActual","","","","","","759.0799999998417","","","","Images/NewTrialWC.png","","2"
"image-button-response","390","622381","0.0-13.0-1.110","42","High_HMMActual","","","","","","null","","","","Images/WhiteBeadChoice.png","","null"
"image-button-response","391","622884","0.0-13.0-2.110","42","High_HMMActual","","","","","","null","","","","Images/WhiteBeadChoiceCorrect.png","","null"
"image-button-response","392","623815","0.0-13.0-0.111","42","High_HMMActual","","","","","","929.1349999984959","","","","Images/NewTrialWC.png","","0"
"image-button-response","393","624117","0.0-13.0-1.111","42","High_HMMActual","","","","","","null","","","","Images/BlackBeadChoice.png","","null"
"image-button-response","394","624619","0.0-13.0-2.111","42","High_HMMActual","","","","","","null","","","","Images/BlackBeadChoiceCorrect.png","","null"
"image-button-response","395","625818","0.0-13.0-0.112","42","High_HMMActual","","","","","","1198.6050000013784","","","","Images/NewTrialBC.png","","1"
"image-button-response","396","626120","0.0-13.0-1.112","42","High_HMMActual","","","","","","null","","","","Images/BlackBeadChoice.png","","null"
"image-button-response","397","626622","0.0-13.0-2.112","42","High_HMMActual","","","","","","null","","","","Images/BlackBeadChoiceWrong.png","","null"
"image-button-response","398","627206","0.0-13.0-0.113","42","High_HMMActual","","","","","","582.6550000001444","","","","Images/NewTrialWC.png","","1"
"image-button-response","399","627509","0.0-13.0-1.113","42","High_HMMActual","","","","","","null","","","","Images/BlackBeadChoice.png","","null"
"image-button-response","400","628013","0.0-13.0-2.113","42","High_HMMActual","","","","","","null","","","","Images/BlackBeadChoiceCorrect.png","","null"
"image-button-response","401","629864","0.0-13.0-0.114","42","High_HMMActual","","","","","","1849.3900000011781","","","","Images/NewTrialBC.png","","2"
"image-button-response","402","630165","0.0-13.0-1.114","42","High_HMMActual","","","","","","null","","","","Images/WhiteBeadChoice.png","","null"
"image-button-response","403","630667","0.0-13.0-2.114","42","High_HMMActual","","","","","","null","","","","Images/WhiteBeadChoiceWrong.png","","null"
"image-button-response","404","631826","0.0-13.0-0.115","42","High_HMMActual","","","","","","1157.2600000000093","","","","Images/NewTrialBC.png","","2"
"image-button-response","405","632129","0.0-13.0-1.115","42","High_HMMActual","","","","","","null","","","","Images/WhiteBeadChoice.png","","null"
"image-button-response","406","632632","0.0-13.0-2.115","42","High_HMMActual","","","","","","null","","","","Images/WhiteBeadChoiceWrong.png","","null"
"image-button-response","407","633713","0.0-13.0-0.116","42","High_HMMActual","","","","","","1080","","","","Images/NewTrialBC.png","","2"
"image-button-response","408","634016","0.0-13.0-1.116","42","High_HMMActual","","","","","","null","","","","Images/WhiteBeadChoice.png","","null"
"image-button-response","409","634517","0.0-13.0-2.116","42","High_HMMActual","","","","","","null","","","","Images/WhiteBeadChoiceCorrect.png","","null"
"image-button-response","410","635000","0.0-13.0-0.117","42","High_HMMActual","","","","","","480.6000000007916","","","","Images/NewTrialWC.png","","0"
"image-button-response","411","635303","0.0-13.0-1.117","42","High_HMMActual","","","","","","null","","","","Images/BlackBeadChoice.png","","null"
"image-button-response","412","635806","0.0-13.0-2.117","42","High_HMMActual","","","","","","null","","","","Images/BlackBeadChoiceCorrect.png","","null"
"image-button-response","413","636617","0.0-13.0-0.118","42","High_HMMActual","","","","","","809.9949999996461","","","","Images/NewTrialBC.png","","2"
"image-button-response","414","636919","0.0-13.0-1.118","42","High_HMMActual","","","","","","null","","","","Images/WhiteBeadChoice.png","","null"
"image-button-response","415","637422","0.0-13.0-2.118","42","High_HMMActual","","","","","","null","","","","Images/WhiteBeadChoiceWrong.png","","null"
"image-button-response","416","638080","0.0-13.0-0.119","42","High_HMMActual","","","","","","656.9749999998603","","","","Images/NewTrialBC.png","","0"
"image-button-response","417","638383","0.0-13.0-1.119","42","High_HMMActual","","","","","","null","","","","Images/BlackBeadChoice.png","","null"
"image-button-response","418","638886","0.0-13.0-2.119","42","High_HMMActual","","","","","","null","","","","Images/BlackBeadChoiceWrong.png","","null"
"image-button-response","419","639496","0.0-13.0-0.120","42","High_HMMActual","","","","","","609.46999999939","","","","Images/NewTrialWC.png","","2"
"image-button-response","420","639798","0.0-13.0-1.120","42","High_HMMActual","","","","","","null","","","","Images/WhiteBeadChoice.png","","null"
"image-button-response","421","640300","0.0-13.0-2.120","42","High_HMMActual","","","","","","null","","","","Images/WhiteBeadChoiceCorrect.png","","null"
"image-button-response","422","640919","0.0-13.0-0.121","42","High_HMMActual","","","","","","617.3750000016298","","","","Images/NewTrialWC.png","","0"
"image-button-response","423","641220","0.0-13.0-1.121","42","High_HMMActual","","","","","","null","","","","Images/BlackBeadChoice.png","","null"
"image-button-response","424","641723","0.0-13.0-2.121","42","High_HMMActual","","","","","","null","","","","Images/BlackBeadChoiceCorrect.png","","null"
"image-button-response","425","642268","0.0-13.0-0.122","42","High_HMMActual","","","","","","544.0099999996601","","","","Images/NewTrialBC.png","","2"
"image-button-response","426","642581","0.0-13.0-1.122","42","High_HMMActual","","","","","","null","","","","Images/WhiteBeadChoice.png","","null"
"image-button-response","427","643084","0.0-13.0-2.122","42","High_HMMActual","","","","","","null","","","","Images/WhiteBeadChoiceCorrect.png","","null"
"image-button-response","428","644090","0.0-13.0-0.123","42","High_HMMActual","","","","","","1005.1449999992037","","","","Images/NewTrialWC.png","","0"
"image-button-response","429","644400","0.0-13.0-1.123","42","High_HMMActual","","","","","","null","","","","Images/BlackBeadChoice.png","","null"
"image-button-response","430","644902","0.0-13.0-2.123","42","High_HMMActual","","","","","","null","","","","Images/BlackBeadChoiceCorrect.png","","null"
"image-button-response","431","645368","0.0-13.0-0.124","42","High_HMMActual","","","","","","464.2350000012666","","","","Images/NewTrialBC.png","","2"
"image-button-response","432","645670","0.0-13.0-1.124","42","High_HMMActual","","","","","","null","","","","Images/WhiteBeadChoice.png","","null"
"image-button-response","433","646172","0.0-13.0-2.124","42","High_HMMActual","","","","","","null","","","","Images/WhiteBeadChoiceCorrect.png","","null"
"image-button-response","434","646704","0.0-13.0-0.125","42","High_HMMActual","","","","","","530.0499999993481","","","","Images/NewTrialWC.png","","0"
"image-button-response","435","647007","0.0-13.0-1.125","42","High_HMMActual","","","","","","null","","","","Images/BlackBeadChoice.png","","null"
"image-button-response","436","647520","0.0-13.0-2.125","42","High_HMMActual","","","","","","null","","","","Images/BlackBeadChoiceCorrect.png","","null"
"image-button-response","437","648077","0.0-13.0-0.126","42","High_HMMActual","","","","","","556.1299999989569","","","","Images/NewTrialBC.png","","2"
"image-button-response","438","648379","0.0-13.0-1.126","42","High_HMMActual","","","","","","null","","","","Images/WhiteBeadChoice.png","","null"
"image-button-response","439","648881","0.0-13.0-2.126","42","High_HMMActual","","","","","","null","","","","Images/WhiteBeadChoiceWrong.png","","null"
"image-button-response","440","649466","0.0-13.0-0.127","42","High_HMMActual","","","","","","582.800000000163","","","","Images/NewTrialBC.png","","0"
"image-button-response","441","649768","0.0-13.0-1.127","42","High_HMMActual","","","","","","null","","","","Images/BlackBeadChoice.png","","null"
"image-button-response","442","650279","0.0-13.0-2.127","42","High_HMMActual","","","","","","null","","","","Images/BlackBeadChoiceCorrect.png","","null"
"image-button-response","443","651404","0.0-13.0-0.128","42","High_HMMActual","","","","","","1123.5249999989755","","","","Images/NewTrialBC.png","","2"
"image-button-response","444","651707","0.0-13.0-1.128","42","High_HMMActual","","","","","","null","","","","Images/WhiteBeadChoice.png","","null"
"image-button-response","445","652210","0.0-13.0-2.128","42","High_HMMActual","","","","","","null","","","","Images/WhiteBeadChoiceCorrect.png","","null"
"image-button-response","446","652478","0.0-13.0-0.129","42","High_HMMActual","","","","","","267.1599999994505","","","","Images/NewTrialWC.png","","0"
"image-button-response","447","652782","0.0-13.0-1.129","42","High_HMMActual","","","","","","null","","","","Images/BlackBeadChoice.png","","null"
"image-button-response","448","653284","0.0-13.0-2.129","42","High_HMMActual","","","","","","null","","","","Images/BlackBeadChoiceWrong.png","","null"
"image-button-response","449","653882","0.0-13.0-0.130","42","High_HMMActual","","","","","","596.5550000000512","","","","Images/NewTrialWC.png","","2"
"image-button-response","450","654184","0.0-13.0-1.130","42","High_HMMActual","","","","","","null","","","","Images/WhiteBeadChoice.png","","null"
"image-button-response","451","654686","0.0-13.0-2.130","42","High_HMMActual","","","","","","null","","","","Images/WhiteBeadChoiceCorrect.png","","null"
"image-button-response","452","655203","0.0-13.0-0.131","42","High_HMMActual","","","","","","515.0350000003818","","","","Images/NewTrialWC.png","","0"
"image-button-response","453","655504","0.0-13.0-1.131","42","High_HMMActual","","","","","","null","","","","Images/BlackBeadChoice.png","","null"
"image-button-response","454","656007","0.0-13.0-2.131","42","High_HMMActual","","","","","","null","","","","Images/BlackBeadChoiceCorrect.png","","null"
"image-button-response","455","657478","0.0-13.0-0.132","42","High_HMMActual","","","","","","1469.759999999893","","","","Images/NewTrialBC.png","","2"
"image-button-response","456","657781","0.0-13.0-1.132","42","High_HMMActual","","","","","","null","","","","Images/WhiteBeadChoice.png","","null"
"image-button-response","457","658282","0.0-13.0-2.132","42","High_HMMActual","","","","","","null","","","","Images/WhiteBeadChoiceCorrect.png","","null"
"image-button-response","458","659396","0.0-13.0-0.133","42","High_HMMActual","","","","","","1111.265000001411","","","","Images/NewTrialWC.png","","3"
"image-button-response","459","659699","0.0-13.0-1.133","42","High_HMMActual","","","","","","null","","","","Images/WhiteBeadChoice.png","","null"
"image-button-response","460","660202","0.0-13.0-2.133","42","High_HMMActual","","","","","","null","","","","Images/WhiteBeadChoiceWrong.png","","null"
"image-button-response","461","661455","0.0-13.0-0.134","42","High_HMMActual","","","","","","1250.6149999990594","","","","Images/NewTrialBC.png","","2"
"image-button-response","462","661757","0.0-13.0-1.134","42","High_HMMActual","","","","","","null","","","","Images/WhiteBeadChoice.png","","null"
"image-button-response","463","662262","0.0-13.0-2.134","42","High_HMMActual","","","","","","null","","","","Images/WhiteBeadChoiceCorrect.png","","null"
"image-button-response","464","663920","0.0-13.0-0.135","42","High_HMMActual","","","","","","1655.9150000012014","","","","Images/NewTrialWC.png","","0"
"image-button-response","465","664222","0.0-13.0-1.135","42","High_HMMActual","","","","","","null","","","","Images/BlackBeadChoice.png","","null"
"image-button-response","466","664724","0.0-13.0-2.135","42","High_HMMActual","","","","","","null","","","","Images/BlackBeadChoiceWrong.png","","null"
"image-button-response","467","668535","0.0-13.0-0.136","42","High_HMMActual","","","","","","3809.124999999767","","","","Images/NewTrialWC.png","","2"
"image-button-response","468","668836","0.0-13.0-1.136","42","High_HMMActual","","","","","","null","","","","Images/WhiteBeadChoice.png","","null"
"image-button-response","469","669338","0.0-13.0-2.136","42","High_HMMActual","","","","","","null","","","","Images/WhiteBeadChoiceCorrect.png","","null"
"image-button-response","470","669817","0.0-13.0-0.137","42","High_HMMActual","","","","","","477.1550000004936","","","","Images/NewTrialWC.png","","0"
"image-button-response","471","670120","0.0-13.0-1.137","42","High_HMMActual","","","","","","null","","","","Images/BlackBeadChoice.png","","null"
"image-button-response","472","670620","0.0-13.0-2.137","42","High_HMMActual","","","","","","null","","","","Images/BlackBeadChoiceCorrect.png","","null"
"image-button-response","473","671349","0.0-13.0-0.138","42","High_HMMActual","","","","","","727.6000000002095","","","","Images/NewTrialBC.png","","2"
"image-button-response","474","671662","0.0-13.0-1.138","42","High_HMMActual","","","","","","null","","","","Images/WhiteBeadChoice.png","","null"
"image-button-response","475","672165","0.0-13.0-2.138","42","High_HMMActual","","","","","","null","","","","Images/WhiteBeadChoiceCorrect.png","","null"
"image-button-response","476","672451","0.0-13.0-0.139","42","High_HMMActual","","","","","","283.21000000135973","","","","Images/NewTrialWC.png","","0"
"image-button-response","477","672765","0.0-13.0-1.139","42","High_HMMActual","","","","","","null","","","","Images/BlackBeadChoice.png","","null"
"image-button-response","478","673267","0.0-13.0-2.139","42","High_HMMActual","","","","","","null","","","","Images/BlackBeadChoiceCorrect.png","","null"
"image-button-response","479","673689","0.0-13.0-0.140","42","High_HMMActual","","","","","","420.0600000004051","","","","Images/NewTrialBC.png","","2"
"image-button-response","480","673991","0.0-13.0-1.140","42","High_HMMActual","","","","","","null","","","","Images/WhiteBeadChoice.png","","null"
"image-button-response","481","674493","0.0-13.0-2.140","42","High_HMMActual","","","","","","null","","","","Images/WhiteBeadChoiceCorrect.png","","null"
"image-button-response","482","675434","0.0-13.0-0.141","42","High_HMMActual","","","","","","940.0500000009779","","","","Images/NewTrialWC.png","","0"
"image-button-response","483","675737","0.0-13.0-1.141","42","High_HMMActual","","","","","","null","","","","Images/BlackBeadChoice.png","","null"
"image-button-response","484","676238","0.0-13.0-2.141","42","High_HMMActual","","","","","","null","","","","Images/BlackBeadChoiceCorrect.png","","null"
"image-button-response","485","677182","0.0-13.0-0.142","42","High_HMMActual","","","","","","941.4749999996275","","","","Images/NewTrialBC.png","","2"
"image-button-response","486","677485","0.0-13.0-1.142","42","High_HMMActual","","","","","","null","","","","Images/WhiteBeadChoice.png","","null"
"image-button-response","487","677986","0.0-13.0-2.142","42","High_HMMActual","","","","","","null","","","","Images/WhiteBeadChoiceWrong.png","","null"
"image-button-response","488","678541","0.0-13.0-0.143","42","High_HMMActual","","","","","","553.7899999999208","","","","Images/NewTrialBC.png","","0"
"image-button-response","489","678844","0.0-13.0-1.143","42","High_HMMActual","","","","","","null","","","","Images/BlackBeadChoice.png","","null"
"image-button-response","490","679346","0.0-13.0-2.143","42","High_HMMActual","","","","","","null","","","","Images/BlackBeadChoiceWrong.png","","null"
"image-button-response","491","679908","0.0-13.0-0.144","42","High_HMMActual","","","","","","561.3349999984493","","","","Images/NewTrialWC.png","","2"
"image-button-response","492","680209","0.0-13.0-1.144","42","High_HMMActual","","","","","","null","","","","Images/WhiteBeadChoice.png","","null"
"image-button-response","493","680711","0.0-13.0-2.144","42","High_HMMActual","","","","","","null","","","","Images/WhiteBeadChoiceCorrect.png","","null"
"image-button-response","494","681781","0.0-13.0-0.145","42","High_HMMActual","","","","","","1067.8100000004051","","","","Images/NewTrialWC.png","","0"
"image-button-response","495","682083","0.0-13.0-1.145","42","High_HMMActual","","","","","","null","","","","Images/BlackBeadChoice.png","","null"
"image-button-response","496","682585","0.0-13.0-2.145","42","High_HMMActual","","","","","","null","","","","Images/BlackBeadChoiceCorrect.png","","null"
"image-button-response","497","683320","0.0-13.0-0.146","42","High_HMMActual","","","","","","732.565000000177","","","","Images/NewTrialBC.png","","2"
"image-button-response","498","683629","0.0-13.0-1.146","42","High_HMMActual","","","","","","null","","","","Images/WhiteBeadChoice.png","","null"
"image-button-response","499","684130","0.0-13.0-2.146","42","High_HMMActual","","","","","","null","","","","Images/WhiteBeadChoiceWrong.png","","null"
"image-button-response","500","684761","0.0-13.0-0.147","42","High_HMMActual","","","","","","629.3850000002421","","","","Images/NewTrialBC.png","","0"
"image-button-response","501","685063","0.0-13.0-1.147","42","High_HMMActual","","","","","","null","","","","Images/BlackBeadChoice.png","","null"
"image-button-response","502","685566","0.0-13.0-2.147","42","High_HMMActual","","","","","","null","","","","Images/BlackBeadChoiceCorrect.png","","null"
"image-button-response","503","686212","0.0-13.0-0.148","42","High_HMMActual","","","","","","643.7999999998137","","","","Images/NewTrialBC.png","","2"
"image-button-response","504","686514","0.0-13.0-1.148","42","High_HMMActual","","","","","","null","","","","Images/WhiteBeadChoice.png","","null"
"image-button-response","505","687017","0.0-13.0-2.148","42","High_HMMActual","","","","","","null","","","","Images/WhiteBeadChoiceCorrect.png","","null"
"image-button-response","506","687539","0.0-13.0-0.149","42","High_HMMActual","","","","","","520.6799999995856","","","","Images/NewTrialWC.png","","0"
"image-button-response","507","687842","0.0-13.0-1.149","42","High_HMMActual","","","","","","null","","","","Images/BlackBeadChoice.png","","null"
"image-button-response","508","688345","0.0-13.0-2.149","42","High_HMMActual","","","","","","null","","","","Images/BlackBeadChoiceCorrect.png","","null"
"image-button-response","509","689022","0.0-13.0-0.150","42","High_HMMActual","","","","","","675.3800000005867","","","","Images/NewTrialBC.png","","2"
"image-button-response","510","689324","0.0-13.0-1.150","42","High_HMMActual","","","","","","null","","","","Images/WhiteBeadChoice.png","","null"
"image-button-response","511","689827","0.0-13.0-2.150","42","High_HMMActual","","","","","","null","","","","Images/WhiteBeadChoiceCorrect.png","","null"
"image-button-response","512","690898","0.0-13.0-0.151","42","High_HMMActual","","","","","","1068.454999998794","","","","Images/NewTrialWC.png","","0"
"image-button-response","513","691199","0.0-13.0-1.151","42","High_HMMActual","","","","","","null","","","","Images/BlackBeadChoice.png","","null"
"image-button-response","514","691700","0.0-13.0-2.151","42","High_HMMActual","","","","","","null","","","","Images/BlackBeadChoiceCorrect.png","","null"
"image-button-response","515","692368","0.0-13.0-0.152","42","High_HMMActual","","","","","","665.1299999994226","","","","Images/NewTrialBC.png","","2"
"image-button-response","516","692678","0.0-13.0-1.152","42","High_HMMActual","","","","","","null","","","","Images/WhiteBeadChoice.png","","null"
"image-button-response","517","693181","0.0-13.0-2.152","42","High_HMMActual","","","","","","null","","","","Images/WhiteBeadChoiceCorrect.png","","null"
"image-button-response","518","695206","0.0-13.0-0.153","42","High_HMMActual","","","","","","2023.6550000008428","","","","Images/NewTrialWC.png","","0"
"image-button-response","519","695509","0.0-13.0-1.153","42","High_HMMActual","","","","","","null","","","","Images/BlackBeadChoice.png","","null"
"image-button-response","520","696011","0.0-13.0-2.153","42","High_HMMActual","","","","","","null","","","","Images/BlackBeadChoiceCorrect.png","","null"
"image-button-response","521","696648","0.0-13.0-0.154","42","High_HMMActual","","","","","","634.5250000013039","","","","Images/NewTrialBC.png","","2"
"image-button-response","522","696950","0.0-13.0-1.154","42","High_HMMActual","","","","","","null","","","","Images/WhiteBeadChoice.png","","null"
"image-button-response","523","697453","0.0-13.0-2.154","42","High_HMMActual","","","","","","null","","","","Images/WhiteBeadChoiceCorrect.png","","null"
"image-button-response","524","698321","0.0-13.0-0.155","42","High_HMMActual","","","","","","866.6850000008708","","","","Images/NewTrialWC.png","","0"
"image-button-response","525","698624","0.0-13.0-1.155","42","High_HMMActual","","","","","","null","","","","Images/BlackBeadChoice.png","","null"
"image-button-response","526","699126","0.0-13.0-2.155","42","High_HMMActual","","","","","","null","","","","Images/BlackBeadChoiceWrong.png","","null"
"image-button-response","527","699889","0.0-13.0-0.156","42","High_HMMActual","","","","","","760.7649999990826","","","","Images/NewTrialWC.png","","2"
"image-button-response","528","700191","0.0-13.0-1.156","42","High_HMMActual","","","","","","null","","","","Images/WhiteBeadChoice.png","","null"
"image-button-response","529","700693","0.0-13.0-2.156","42","High_HMMActual","","","","","","null","","","","Images/WhiteBeadChoiceCorrect.png","","null"
"image-button-response","530","701099","0.0-13.0-0.157","42","High_HMMActual","","","","","","404.8300000013551","","","","Images/NewTrialWC.png","","0"
"image-button-response","531","701402","0.0-13.0-1.157","42","High_HMMActual","","","","","","null","","","","Images/BlackBeadChoice.png","","null"
"image-button-response","532","701905","0.0-13.0-2.157","42","High_HMMActual","","","","","","null","","","","Images/BlackBeadChoiceCorrect.png","","null"
"image-button-response","533","702799","0.0-13.0-0.158","42","High_HMMActual","","","","","","892.1050000007963","","","","Images/NewTrialBC.png","","1"
"image-button-response","534","703102","0.0-13.0-1.158","42","High_HMMActual","","","","","","null","","","","Images/BlackBeadChoice.png","","null"
"image-button-response","535","703605","0.0-13.0-2.158","42","High_HMMActual","","","","","","null","","","","Images/BlackBeadChoiceCorrect.png","","null"
"image-button-response","536","704133","0.0-13.0-0.159","42","High_HMMActual","","","","","","526.480000000447","","","","Images/NewTrialBC.png","","0"
"image-button-response","537","704440","0.0-13.0-1.159","42","High_HMMActual","","","","","","null","","","","Images/BlackBeadChoice.png","","null"
"image-button-response","538","704942","0.0-13.0-2.159","42","High_HMMActual","","","","","","null","","","","Images/BlackBeadChoiceWrong.png","","null"
"image-button-response","539","707050","0.0-13.0-0.160","42","High_HMMActual","","","","","","2106.750000000815","","","","Images/NewTrialWC.png","","2"
"image-button-response","540","707352","0.0-13.0-1.160","42","High_HMMActual","","","","","","null","","","","Images/WhiteBeadChoice.png","","null"
"image-button-response","541","707854","0.0-13.0-2.160","42","High_HMMActual","","","","","","null","","","","Images/WhiteBeadChoiceWrong.png","","null"
"image-button-response","542","708650","0.0-13.0-0.161","42","High_HMMActual","","","","","","791.7949999991106","","","","Images/NewTrialBC.png","","0"
"image-button-response","543","708952","0.0-13.0-1.161","42","High_HMMActual","","","","","","null","","","","Images/BlackBeadChoice.png","","null"
"image-button-response","544","709454","0.0-13.0-2.161","42","High_HMMActual","","","","","","null","","","","Images/BlackBeadChoiceWrong.png","","null"
"image-button-response","545","712007","0.0-13.0-0.162","42","High_HMMActual","","","","","","2551.744999998831","","","","Images/NewTrialWC.png","","0"
"image-button-response","546","712310","0.0-13.0-1.162","42","High_HMMActual","","","","","","null","","","","Images/BlackBeadChoice.png","","null"
"image-button-response","547","712811","0.0-13.0-2.162","42","High_HMMActual","","","","","","null","","","","Images/BlackBeadChoiceCorrect.png","","null"
"image-button-response","548","713289","0.0-13.0-0.163","42","High_HMMActual","","","","","","475.80999999993946","","","","Images/NewTrialBC.png","","2"
"image-button-response","549","713592","0.0-13.0-1.163","42","High_HMMActual","","","","","","null","","","","Images/WhiteBeadChoice.png","","null"
"image-button-response","550","714093","0.0-13.0-2.163","42","High_HMMActual","","","","","","null","","","","Images/WhiteBeadChoiceCorrect.png","","null"
"image-button-response","551","714633","0.0-13.0-0.164","42","High_HMMActual","","","","","","538.754999999539","","","","Images/NewTrialWC.png","","0"
"image-button-response","552","714936","0.0-13.0-1.164","42","High_HMMActual","","","","","","null","","","","Images/BlackBeadChoice.png","","null"
"image-button-response","553","715439","0.0-13.0-2.164","42","High_HMMActual","","","","","","null","","","","Images/BlackBeadChoiceCorrect.png","","null"
"image-button-response","554","716010","0.0-13.0-0.165","42","High_HMMActual","","","","","","569.7249999992782","","","","Images/NewTrialBC.png","","2"
"image-button-response","555","716313","0.0-13.0-1.165","42","High_HMMActual","","","","","","null","","","","Images/WhiteBeadChoice.png","","null"
"image-button-response","556","716815","0.0-13.0-2.165","42","High_HMMActual","","","","","","null","","","","Images/WhiteBeadChoiceCorrect.png","","null"
"image-button-response","557","717271","0.0-13.0-0.166","42","High_HMMActual","","","","","","454.3849999991944","","","","Images/NewTrialWC.png","","0"
"image-button-response","558","717572","0.0-13.0-1.166","42","High_HMMActual","","","","","","null","","","","Images/BlackBeadChoice.png","","null"
"image-button-response","559","718074","0.0-13.0-2.166","42","High_HMMActual","","","","","","null","","","","Images/BlackBeadChoiceCorrect.png","","null"
"image-button-response","560","718557","0.0-13.0-0.167","42","High_HMMActual","","","","","","481.35499999986496","","","","Images/NewTrialBC.png","","2"
"image-button-response","561","718858","0.0-13.0-1.167","42","High_HMMActual","","","","","","null","","","","Images/WhiteBeadChoice.png","","null"
"image-button-response","562","719361","0.0-13.0-2.167","42","High_HMMActual","","","","","","null","","","","Images/WhiteBeadChoiceCorrect.png","","null"
"image-button-response","563","720061","0.0-13.0-0.168","42","High_HMMActual","","","","","","698.2599999991944","","","","Images/NewTrialWC.png","","0"
"image-button-response","564","720373","0.0-13.0-1.168","42","High_HMMActual","","","","","","null","","","","Images/BlackBeadChoice.png","","null"
"image-button-response","565","720876","0.0-13.0-2.168","42","High_HMMActual","","","","","","null","","","","Images/BlackBeadChoiceCorrect.png","","null"
"image-button-response","566","721414","0.0-13.0-0.169","42","High_HMMActual","","","","","","536.0050000000047","","","","Images/NewTrialBC.png","","2"
"image-button-response","567","721717","0.0-13.0-1.169","42","High_HMMActual","","","","","","null","","","","Images/WhiteBeadChoice.png","","null"
"image-button-response","568","722220","0.0-13.0-2.169","42","High_HMMActual","","","","","","null","","","","Images/WhiteBeadChoiceCorrect.png","","null"
"image-button-response","569","723025","0.0-13.0-0.170","42","High_HMMActual","","","","","","803.89500000095","","","","Images/NewTrialWC.png","","3"
"image-button-response","570","723327","0.0-13.0-1.170","42","High_HMMActual","","","","","","null","","","","Images/WhiteBeadChoice.png","","null"
"image-button-response","571","723829","0.0-13.0-2.170","42","High_HMMActual","","","","","","null","","","","Images/WhiteBeadChoiceWrong.png","","null"
"image-button-response","572","724465","0.0-13.0-0.171","42","High_HMMActual","","","","","","633.7750000001397","","","","Images/NewTrialBC.png","","2"
"image-button-response","573","724766","0.0-13.0-1.171","42","High_HMMActual","","","","","","null","","","","Images/WhiteBeadChoice.png","","null"
"image-button-response","574","725269","0.0-13.0-2.171","42","High_HMMActual","","","","","","null","","","","Images/WhiteBeadChoiceCorrect.png","","null"
"image-button-response","575","726067","0.0-13.0-0.172","42","High_HMMActual","","","","","","795.7449999994133","","","","Images/NewTrialWC.png","","0"
"image-button-response","576","726369","0.0-13.0-1.172","42","High_HMMActual","","","","","","null","","","","Images/BlackBeadChoice.png","","null"
"image-button-response","577","726872","0.0-13.0-2.172","42","High_HMMActual","","","","","","null","","","","Images/BlackBeadChoiceCorrect.png","","null"
"image-button-response","578","727430","0.0-13.0-0.173","42","High_HMMActual","","","","","","556.0999999998603","","","","Images/NewTrialBC.png","","2"
"image-button-response","579","727733","0.0-13.0-1.173","42","High_HMMActual","","","","","","null","","","","Images/WhiteBeadChoice.png","","null"
"image-button-response","580","728236","0.0-13.0-2.173","42","High_HMMActual","","","","","","null","","","","Images/WhiteBeadChoiceCorrect.png","","null"
"image-button-response","581","728624","0.0-13.0-0.174","42","High_HMMActual","","","","","","386.7949999985285","","","","Images/NewTrialWC.png","","0"
"image-button-response","582","728927","0.0-13.0-1.174","42","High_HMMActual","","","","","","null","","","","Images/BlackBeadChoice.png","","null"
"image-button-response","583","729428","0.0-13.0-2.174","42","High_HMMActual","","","","","","null","","","","Images/BlackBeadChoiceCorrect.png","","null"
"image-button-response","584","729821","0.0-13.0-0.175","42","High_HMMActual","","","","","","392.41000000038184","","","","Images/NewTrialBC.png","","2"
"image-button-response","585","730123","0.0-13.0-1.175","42","High_HMMActual","","","","","","null","","","","Images/WhiteBeadChoice.png","","null"
"image-button-response","586","730626","0.0-13.0-2.175","42","High_HMMActual","","","","","","null","","","","Images/WhiteBeadChoiceCorrect.png","","null"
"image-button-response","587","731013","0.0-13.0-0.176","42","High_HMMActual","","","","","","384.5550000006333","","","","Images/NewTrialWC.png","","0"
"image-button-response","588","731315","0.0-13.0-1.176","42","High_HMMActual","","","","","","null","","","","Images/BlackBeadChoice.png","","null"
"image-button-response","589","731818","0.0-13.0-2.176","42","High_HMMActual","","","","","","null","","","","Images/BlackBeadChoiceCorrect.png","","null"
"image-button-response","590","732189","0.0-13.0-0.177","42","High_HMMActual","","","","","","368.96000000159256","","","","Images/NewTrialBC.png","","2"
"image-button-response","591","732494","0.0-13.0-1.177","42","High_HMMActual","","","","","","null","","","","Images/WhiteBeadChoice.png","","null"
"image-button-response","592","732994","0.0-13.0-2.177","42","High_HMMActual","","","","","","null","","","","Images/WhiteBeadChoiceWrong.png","","null"
"image-button-response","593","734015","0.0-13.0-0.178","42","High_HMMActual","","","","","","1019.5850000000792","","","","Images/NewTrialBC.png","","0"
"image-button-response","594","734318","0.0-13.0-1.178","42","High_HMMActual","","","","","","null","","","","Images/BlackBeadChoice.png","","null"
"image-button-response","595","734824","0.0-13.0-2.178","42","High_HMMActual","","","","","","null","","","","Images/BlackBeadChoiceCorrect.png","","null"
"image-button-response","596","735191","0.0-13.0-0.179","42","High_HMMActual","","","","","","365.06999999983236","","","","Images/NewTrialBC.png","","0"
"image-button-response","597","735494","0.0-13.0-1.179","42","High_HMMActual","","","","","","null","","","","Images/BlackBeadChoice.png","","null"
"image-button-response","598","735995","0.0-13.0-2.179","42","High_HMMActual","","","","","","null","","","","Images/BlackBeadChoiceWrong.png","","null"
"image-button-response","599","737005","0.0-13.0-0.180","42","High_HMMActual","","","","","","1008.480000000447","","","","Images/NewTrialWC.png","","0"
"image-button-response","600","737307","0.0-13.0-1.180","42","High_HMMActual","","","","","","null","","","","Images/BlackBeadChoice.png","","null"
"image-button-response","601","737810","0.0-13.0-2.180","42","High_HMMActual","","","","","","null","","","","Images/BlackBeadChoiceCorrect.png","","null"
"image-button-response","602","737995","0.0-13.0-0.181","42","High_HMMActual","","","","","","184.2149999992689","","","","Images/NewTrialBC.png","","2"
"image-button-response","603","738298","0.0-13.0-1.181","42","High_HMMActual","","","","","","null","","","","Images/WhiteBeadChoice.png","","null"
"image-button-response","604","738800","0.0-13.0-2.181","42","High_HMMActual","","","","","","null","","","","Images/WhiteBeadChoiceCorrect.png","","null"
"image-button-response","605","739293","0.0-13.0-0.182","42","High_HMMActual","","","","","","492.135000000475","","","","Images/NewTrialWC.png","","0"
"image-button-response","606","739603","0.0-13.0-1.182","42","High_HMMActual","","","","","","null","","","","Images/BlackBeadChoice.png","","null"
"image-button-response","607","740105","0.0-13.0-2.182","42","High_HMMActual","","","","","","null","","","","Images/BlackBeadChoiceWrong.png","","null"
"image-button-response","608","740638","0.0-13.0-0.183","42","High_HMMActual","","","","","","530.7250000005588","","","","Images/NewTrialWC.png","","2"
"image-button-response","609","740941","0.0-13.0-1.183","42","High_HMMActual","","","","","","null","","","","Images/WhiteBeadChoice.png","","null"
"image-button-response","610","741443","0.0-13.0-2.183","42","High_HMMActual","","","","","","null","","","","Images/WhiteBeadChoiceCorrect.png","","null"
"image-button-response","611","741711","0.0-13.0-0.184","42","High_HMMActual","","","","","","266.3850000008242","","","","Images/NewTrialWC.png","","0"
"image-button-response","612","742014","0.0-13.0-1.184","42","High_HMMActual","","","","","","null","","","","Images/BlackBeadChoice.png","","null"
"image-button-response","613","742516","0.0-13.0-2.184","42","High_HMMActual","","","","","","null","","","","Images/BlackBeadChoiceCorrect.png","","null"
"image-button-response","614","742963","0.0-13.0-0.185","42","High_HMMActual","","","","","","445.84000000031665","","","","Images/NewTrialBC.png","","2"
"image-button-response","615","743265","0.0-13.0-1.185","42","High_HMMActual","","","","","","null","","","","Images/WhiteBeadChoice.png","","null"
"image-button-response","616","743767","0.0-13.0-2.185","42","High_HMMActual","","","","","","null","","","","Images/WhiteBeadChoiceCorrect.png","","null"
"image-button-response","617","744608","0.0-13.0-0.186","42","High_HMMActual","","","","","","839.6150000008056","","","","Images/NewTrialWC.png","","0"
"image-button-response","618","744910","0.0-13.0-1.186","42","High_HMMActual","","","","","","null","","","","Images/BlackBeadChoice.png","","null"
"image-button-response","619","745412","0.0-13.0-2.186","42","High_HMMActual","","","","","","null","","","","Images/BlackBeadChoiceCorrect.png","","null"
"image-button-response","620","748153","0.0-13.0-0.187","42","High_HMMActual","","","","","","2738.900000000256","","","","Images/NewTrialBC.png","","2"
"image-button-response","621","748455","0.0-13.0-1.187","42","High_HMMActual","","","","","","null","","","","Images/WhiteBeadChoice.png","","null"
"image-button-response","622","748957","0.0-13.0-2.187","42","High_HMMActual","","","","","","null","","","","Images/WhiteBeadChoiceCorrect.png","","null"
"image-button-response","623","751191","0.0-13.0-0.188","42","High_HMMActual","","","","","","2232.855000000214","","","","Images/NewTrialWC.png","","0"
"image-button-response","624","751494","0.0-13.0-1.188","42","High_HMMActual","","","","","","null","","","","Images/BlackBeadChoice.png","","null"
"image-button-response","625","751997","0.0-13.0-2.188","42","High_HMMActual","","","","","","null","","","","Images/BlackBeadChoiceCorrect.png","","null"
"image-button-response","626","752802","0.0-13.0-0.189","42","High_HMMActual","","","","","","803.5049999997718","","","","Images/NewTrialBC.png","","2"
"image-button-response","627","753104","0.0-13.0-1.189","42","High_HMMActual","","","","","","null","","","","Images/WhiteBeadChoice.png","","null"
"image-button-response","628","753606","0.0-13.0-2.189","42","High_HMMActual","","","","","","null","","","","Images/WhiteBeadChoiceWrong.png","","null"
"image-button-response","629","755191","0.0-13.0-0.190","42","High_HMMActual","","","","","","1583.7700000010664","","","","Images/NewTrialBC.png","","0"
"image-button-response","630","755493","0.0-13.0-1.190","42","High_HMMActual","","","","","","null","","","","Images/BlackBeadChoice.png","","null"
"image-button-response","631","755994","0.0-13.0-2.190","42","High_HMMActual","","","","","","null","","","","Images/BlackBeadChoiceWrong.png","","null"
"image-button-response","632","756638","0.0-13.0-0.191","42","High_HMMActual","","","","","","640.605000000447","","","","Images/NewTrialWC.png","","0"
"image-button-response","633","756941","0.0-13.0-1.191","42","High_HMMActual","","","","","","null","","","","Images/BlackBeadChoice.png","","null"
"image-button-response","634","757443","0.0-13.0-2.191","42","High_HMMActual","","","","","","null","","","","Images/BlackBeadChoiceWrong.png","","null"
"image-button-response","635","757997","0.0-13.0-0.192","42","High_HMMActual","","","","","","552.1349999998929","","","","Images/NewTrialWC.png","","0"
"image-button-response","636","758299","0.0-13.0-1.192","42","High_HMMActual","","","","","","null","","","","Images/BlackBeadChoice.png","","null"
"image-button-response","637","758801","0.0-13.0-2.192","42","High_HMMActual","","","","","","null","","","","Images/BlackBeadChoiceCorrect.png","","null"
"image-button-response","638","759286","0.0-13.0-0.193","42","High_HMMActual","","","","","","483.15999999968335","","","","Images/NewTrialBC.png","","2"
"image-button-response","639","759587","0.0-13.0-1.193","42","High_HMMActual","","","","","","null","","","","Images/WhiteBeadChoice.png","","null"
"image-button-response","640","760088","0.0-13.0-2.193","42","High_HMMActual","","","","","","null","","","","Images/WhiteBeadChoiceCorrect.png","","null"
"image-button-response","641","760584","0.0-13.0-0.194","42","High_HMMActual","","","","","","493.71000000066124","","","","Images/NewTrialWC.png","","0"
"image-button-response","642","760891","0.0-13.0-1.194","42","High_HMMActual","","","","","","null","","","","Images/BlackBeadChoice.png","","null"
"image-button-response","643","761402","0.0-13.0-2.194","42","High_HMMActual","","","","","","null","","","","Images/BlackBeadChoiceCorrect.png","","null"
"image-button-response","644","762075","0.0-13.0-0.195","42","High_HMMActual","","","","","","671.8500000005588","","","","Images/NewTrialBC.png","","2"
"image-button-response","645","762378","0.0-13.0-1.195","42","High_HMMActual","","","","","","null","","","","Images/WhiteBeadChoice.png","","null"
"image-button-response","646","762881","0.0-13.0-2.195","42","High_HMMActual","","","","","","null","","","","Images/WhiteBeadChoiceWrong.png","","null"
"image-button-response","647","766376","0.0-13.0-0.196","42","High_HMMActual","","","","","","3493.884999999893","","","","Images/NewTrialBC.png","","3"
"image-button-response","648","766691","0.0-13.0-1.196","42","High_HMMActual","","","","","","null","","","","Images/WhiteBeadChoice.png","","null"
"image-button-response","649","767201","0.0-13.0-2.196","42","High_HMMActual","","","","","","null","","","","Images/WhiteBeadChoiceWrong.png","","null"
"image-button-response","650","768334","0.0-13.0-0.197","42","High_HMMActual","","","","","","1130.4450000006473","","","","Images/NewTrialBC.png","","2"
"image-button-response","651","768635","0.0-13.0-1.197","42","High_HMMActual","","","","","","null","","","","Images/WhiteBeadChoice.png","","null"
"image-button-response","652","769137","0.0-13.0-2.197","42","High_HMMActual","","","","","","null","","","","Images/WhiteBeadChoiceCorrect.png","","null"
"image-button-response","653","769478","0.0-13.0-0.198","42","High_HMMActual","","","","","","338.2750000000233","","","","Images/NewTrialWC.png","","0"
