"trial_type","trial_index","time_elapsed","internal_node_id","Script_Picker","Block_Type","success","timeout","failed_images","failed_audio","failed_video","rt","url","responses","question_order","stimulus","key_press","response"
"pavlovia","0","2","0.0-0.0","90","Low_HMMActual","","","","","","","","","","","",""
"preload","1","3","0.0-1.0","90","Low_HMMActual","true","false","[]","[]","[]","","","","","","",""
"external-html","2","9507","0.0-2.0-0.0","90","Low_HMMActual","","","","","","9427.760000000035","consent.html","","","","",""
"survey-multi-choice","3","16400","0.0-2.0-1.0","90","Low_HMMActual","","","","","","6890.355","","{""Q0"":""Female"",""Q1"":""White""}","[0,1]","","",""
"survey-text","4","18760","0.0-2.0-2.0","90","Low_HMMActual","","","","","","2356.5300000000207","","{""Q0"":""29""}","","","",""
"survey-text","5","25844","0.0-2.0-3.0","90","Low_HMMActual","","","","","","6981.734999999844","","{""Q0"":""5ea5a933ad0666598f6d3071""}","","","",""
"image-keyboard-response","6","38514","0.0-3.0-0.0","90","Low_HMMActual","","","","","","12564.609999999899","","","","tutorial/tutorial1.png"," ",""
"image-keyboard-response","7","44637","0.0-3.0-0.1","90","Low_HMMActual","","","","","","6122.975000000224","","","","tutorial/tutorial2.png"," ",""
"image-keyboard-response","8","47585","0.0-3.0-0.2","90","Low_HMMActual","","","","","","2946.844999999943","","","","tutorial/tutorial3.png"," ",""
"image-keyboard-response","9","49696","0.0-3.0-0.3","90","Low_HMMActual","","","","","","2109.805000000051","","","","tutorial/tutorial4.png"," ",""
"image-keyboard-response","10","51387","0.0-3.0-0.4","90","Low_HMMActual","","","","","","1689.8550000000832","","","","tutorial/tutorial5.png"," ",""
"image-keyboard-response","11","55922","0.0-3.0-0.5","90","Low_HMMActual","","","","","","4533.3300000002055","","","","tutorial/tutorial6.png"," ",""
"image-keyboard-response","12","60434","0.0-3.0-0.6","90","Low_HMMActual","","","","","","4510.06000000007","","","","tutorial/tutorial7.png"," ",""
"image-keyboard-response","13","70858","0.0-3.0-0.7","90","Low_HMMActual","","","","","","10423.055000000197","","","","tutorial/tutorial8.png"," ",""
"image-keyboard-response","14","74847","0.0-3.0-0.8","90","Low_HMMActual","","","","","","3987.230000000185","","","","tutorial/tutorial9.png"," ",""
"image-keyboard-response","15","82744","0.0-3.0-0.9","90","Low_HMMActual","","","","","","7896.365000000063","","","","tutorial/tutorial10.png"," ",""
"image-keyboard-response","16","85930","0.0-3.0-0.10","90","Low_HMMActual","","","","","","3183.905000000319","","","","tutorial/tutorial11.png"," ",""
"image-keyboard-response","17","89702","0.0-3.0-0.11","90","Low_HMMActual","","","","","","3770.8400000001275","","","","tutorial/tutorial12.png"," ",""
"image-keyboard-response","18","94777","0.0-3.0-0.12","90","Low_HMMActual","","","","","","5073.620000000112","","","","tutorial/tutorial13.png"," ",""
"image-keyboard-response","19","102607","0.0-3.0-0.13","90","Low_HMMActual","","","","","","7829.044999999955","","","","tutorial/tutorial14.png"," ",""
"image-keyboard-response","20","104330","0.0-3.0-0.14","90","Low_HMMActual","","","","","","1721.4650000000838","","","","tutorial/tutorial15.png"," ",""
"image-keyboard-response","21","111060","0.0-4.0","90","Low_HMMActual","","","","","","6729.820000000007","","","","tutorial/tutorial16.png","arrowup",""
"image-keyboard-response","22","120987","0.0-5.0","90","Low_HMMActual","","","","","","7981.995000000112","","","","tutorial/tutorial17.png","arrowright",""
"image-keyboard-response","23","128080","0.0-6.0","90","Low_HMMActual","","","","","","5261.944999999745","","","","tutorial/tutorial18.png","arrowleft",""
"image-keyboard-response","24","131953","0.0-7.0","90","Low_HMMActual","","","","","","2171.170000000071","","","","tutorial/tutorial19.png"," ",""
"html-keyboard-response","25","135971","0.0-8.0","90","Low_HMMActual","","","","","","4015.8300000002782","","","","<div class=""container"" style=""height:800px;width:800px;display:flex;flex-direction:column;justify-content:center;align-items:center;text-align:center;font-weight:normal;font-family:Arial;font-size:20px""><p>Loading episode&hellip;</p><div>"," ",""
"image-button-response","26","142117","0.0-9.0-0.0","90","Low_HMMActual","","","","","","6142.289999999775","","","","Images/NoChoice.png","","0"
"image-button-response","27","142423","0.0-9.0-1.0","90","Low_HMMActual","","","","","","null","","","","Images/BlackBeadChoice.png","","null"
"image-button-response","28","142928","0.0-9.0-2.0","90","Low_HMMActual","","","","","","null","","","","Images/BlackBeadChoiceCorrect.png","","null"
"image-button-response","29","152335","0.0-9.0-0.1","90","Low_HMMActual","","","","","","9404.640000000218","","","","Images/NewTrialBC.png","","2"
"image-button-response","30","152638","0.0-9.0-1.1","90","Low_HMMActual","","","","","","null","","","","Images/WhiteBeadChoice.png","","null"
"image-button-response","31","153142","0.0-9.0-2.1","90","Low_HMMActual","","","","","","null","","","","Images/WhiteBeadChoiceWrong.png","","null"
"image-button-response","32","154616","0.0-9.0-0.2","90","Low_HMMActual","","","","","","1469.7099999998463","","","","Images/NewTrialBC.png","","0"
"image-button-response","33","154921","0.0-9.0-1.2","90","Low_HMMActual","","","","","","null","","","","Images/BlackBeadChoice.png","","null"
"image-button-response","34","155426","0.0-9.0-2.2","90","Low_HMMActual","","","","","","null","","","","Images/BlackBeadChoiceCorrect.png","","null"
"image-button-response","35","156223","0.0-9.0-0.3","90","Low_HMMActual","","","","","","793.6350000000093","","","","Images/NewTrialBC.png","","0"
"image-button-response","36","156528","0.0-9.0-1.3","90","Low_HMMActual","","","","","","null","","","","Images/BlackBeadChoice.png","","null"
"image-button-response","37","157034","0.0-9.0-2.3","90","Low_HMMActual","","","","","","null","","","","Images/BlackBeadChoiceCorrect.png","","null"
"image-button-response","38","157681","0.0-9.0-0.4","90","Low_HMMActual","","","","","","644.9800000000396","","","","Images/NewTrialBC.png","","0"
"image-button-response","39","157985","0.0-9.0-1.4","90","Low_HMMActual","","","","","","null","","","","Images/BlackBeadChoice.png","","null"
"image-button-response","40","158489","0.0-9.0-2.4","90","Low_HMMActual","","","","","","null","","","","Images/BlackBeadChoiceCorrect.png","","null"
"image-button-response","41","159930","0.0-9.0-0.5","90","Low_HMMActual","","","","","","1436.7200000001467","","","","Images/NewTrialBC.png","","0"
"image-button-response","42","160234","0.0-9.0-1.5","90","Low_HMMActual","","","","","","null","","","","Images/BlackBeadChoice.png","","null"
"image-button-response","43","160737","0.0-9.0-2.5","90","Low_HMMActual","","","","","","null","","","","Images/BlackBeadChoiceCorrect.png","","null"
"image-button-response","44","161310","0.0-9.0-0.6","90","Low_HMMActual","","","","","","569.0799999997544","","","","Images/NewTrialBC.png","","0"
"image-button-response","45","161615","0.0-9.0-1.6","90","Low_HMMActual","","","","","","null","","","","Images/BlackBeadChoice.png","","null"
"image-button-response","46","162118","0.0-9.0-2.6","90","Low_HMMActual","","","","","","null","","","","Images/BlackBeadChoiceWrong.png","","null"
"image-button-response","47","165777","0.0-9.0-0.7","90","Low_HMMActual","","","","","","3650.1850000004342","","","","Images/NewTrialWC.png","","2"
"image-button-response","48","166083","0.0-9.0-1.7","90","Low_HMMActual","","","","","","null","","","","Images/WhiteBeadChoice.png","","null"
"image-button-response","49","166588","0.0-9.0-2.7","90","Low_HMMActual","","","","","","null","","","","Images/WhiteBeadChoiceWrong.png","","null"
"image-button-response","50","168491","0.0-9.0-0.8","90","Low_HMMActual","","","","","","1901.3999999997322","","","","Images/NewTrialBC.png","","2"
"image-button-response","51","168793","0.0-9.0-1.8","90","Low_HMMActual","","","","","","null","","","","Images/WhiteBeadChoice.png","","null"
"image-button-response","52","169298","0.0-9.0-2.8","90","Low_HMMActual","","","","","","null","","","","Images/WhiteBeadChoiceWrong.png","","null"
"image-button-response","53","171401","0.0-9.0-0.9","90","Low_HMMActual","","","","","","2099.3950000001932","","","","Images/NewTrialBC.png","","0"
"image-button-response","54","171704","0.0-9.0-1.9","90","Low_HMMActual","","","","","","null","","","","Images/BlackBeadChoice.png","","null"
"image-button-response","55","172207","0.0-9.0-2.9","90","Low_HMMActual","","","","","","null","","","","Images/BlackBeadChoiceCorrect.png","","null"
"html-keyboard-response","56","174366","0.0-10.0","90","Low_HMMActual","","","","","","2157.905000000028","","","",""," ",""
"image-keyboard-response","57","176013","0.0-11.0","90","Low_HMMActual","","","","","","1644.8800000002666","","","","tutorial/tutorial20.png"," ",""
"html-keyboard-response","58","190075","0.0-12.0","90","Low_HMMActual","","","","","","14059.690000000031","","","","<div class=""container"" style=""height:800px;width:800px;display:flex;flex-direction:column;justify-content:center;align-items:center;text-align:center;font-weight:normal;font-family:Arial;font-size:20px""><p>Loading episode&hellip;</p><div>"," ",""
"image-button-response","59","193916","0.0-13.0-0.0","90","Low_HMMActual","","","","","","3838.009999999951","","","","Images/NoChoice.png","","0"
"image-button-response","60","194217","0.0-13.0-1.0","90","Low_HMMActual","","","","","","null","","","","Images/BlackBeadChoice.png","","null"
"image-button-response","61","194722","0.0-13.0-2.0","90","Low_HMMActual","","","","","","null","","","","Images/BlackBeadChoiceCorrect.png","","null"
"image-button-response","62","196307","0.0-13.0-0.1","90","Low_HMMActual","","","","","","1580.8300000003364","","","","Images/NewTrialBC.png","","0"
"image-button-response","63","196612","0.0-13.0-1.1","90","Low_HMMActual","","","","","","null","","","","Images/BlackBeadChoice.png","","null"
"image-button-response","64","197115","0.0-13.0-2.1","90","Low_HMMActual","","","","","","null","","","","Images/BlackBeadChoiceCorrect.png","","null"
"image-button-response","65","199323","0.0-13.0-0.2","90","Low_HMMActual","","","","","","2203.5900000000547","","","","Images/NewTrialBC.png","","0"
"image-button-response","66","199627","0.0-13.0-1.2","90","Low_HMMActual","","","","","","null","","","","Images/BlackBeadChoice.png","","null"
"image-button-response","67","200131","0.0-13.0-2.2","90","Low_HMMActual","","","","","","null","","","","Images/BlackBeadChoiceCorrect.png","","null"
"image-button-response","68","200682","0.0-13.0-0.3","90","Low_HMMActual","","","","","","548.6799999998766","","","","Images/NewTrialBC.png","","0"
"image-button-response","69","200987","0.0-13.0-1.3","90","Low_HMMActual","","","","","","null","","","","Images/BlackBeadChoice.png","","null"
"image-button-response","70","201491","0.0-13.0-2.3","90","Low_HMMActual","","","","","","null","","","","Images/BlackBeadChoiceCorrect.png","","null"
"image-button-response","71","202135","0.0-13.0-0.4","90","Low_HMMActual","","","","","","640.859999999986","","","","Images/NewTrialBC.png","","0"
"image-button-response","72","202438","0.0-13.0-1.4","90","Low_HMMActual","","","","","","null","","","","Images/BlackBeadChoice.png","","null"
"image-button-response","73","202943","0.0-13.0-2.4","90","Low_HMMActual","","","","","","null","","","","Images/BlackBeadChoiceCorrect.png","","null"
"image-button-response","74","203827","0.0-13.0-0.5","90","Low_HMMActual","","","","","","880.4949999998789","","","","Images/NewTrialBC.png","","0"
"image-button-response","75","204129","0.0-13.0-1.5","90","Low_HMMActual","","","","","","null","","","","Images/BlackBeadChoice.png","","null"
"image-button-response","76","204632","0.0-13.0-2.5","90","Low_HMMActual","","","","","","null","","","","Images/BlackBeadChoiceCorrect.png","","null"
"image-button-response","77","205905","0.0-13.0-0.6","90","Low_HMMActual","","","","","","1268.6499999999942","","","","Images/NewTrialBC.png","","0"
"image-button-response","78","206208","0.0-13.0-1.6","90","Low_HMMActual","","","","","","null","","","","Images/BlackBeadChoice.png","","null"
"image-button-response","79","206710","0.0-13.0-2.6","90","Low_HMMActual","","","","","","null","","","","Images/BlackBeadChoiceWrong.png","","null"
"image-button-response","80","209399","0.0-13.0-0.7","90","Low_HMMActual","","","","","","2686.5149999998685","","","","Images/NewTrialWC.png","","3"
"image-button-response","81","209703","0.0-13.0-1.7","90","Low_HMMActual","","","","","","null","","","","Images/WhiteBeadChoice.png","","null"
"image-button-response","82","210206","0.0-13.0-2.7","90","Low_HMMActual","","","","","","null","","","","Images/WhiteBeadChoiceWrong.png","","null"
"image-button-response","83","211979","0.0-13.0-0.8","90","Low_HMMActual","","","","","","1771.085000000312","","","","Images/NewTrialBC.png","","0"
"image-button-response","84","212283","0.0-13.0-1.8","90","Low_HMMActual","","","","","","null","","","","Images/BlackBeadChoice.png","","null"
"image-button-response","85","212786","0.0-13.0-2.8","90","Low_HMMActual","","","","","","null","","","","Images/BlackBeadChoiceCorrect.png","","null"
"image-button-response","86","213601","0.0-13.0-0.9","90","Low_HMMActual","","","","","","810.730000000156","","","","Images/NewTrialBC.png","","0"
"image-button-response","87","213905","0.0-13.0-1.9","90","Low_HMMActual","","","","","","null","","","","Images/BlackBeadChoice.png","","null"
"image-button-response","88","214408","0.0-13.0-2.9","90","Low_HMMActual","","","","","","null","","","","Images/BlackBeadChoiceCorrect.png","","null"
"image-button-response","89","215043","0.0-13.0-0.10","90","Low_HMMActual","","","","","","632.8300000000163","","","","Images/NewTrialBC.png","","0"
"image-button-response","90","215348","0.0-13.0-1.10","90","Low_HMMActual","","","","","","null","","","","Images/BlackBeadChoice.png","","null"
"image-button-response","91","215852","0.0-13.0-2.10","90","Low_HMMActual","","","","","","null","","","","Images/BlackBeadChoiceWrong.png","","null"
"image-button-response","92","218018","0.0-13.0-0.11","90","Low_HMMActual","","","","","","2162.1199999999662","","","","Images/NewTrialWC.png","","2"
"image-button-response","93","218322","0.0-13.0-1.11","90","Low_HMMActual","","","","","","null","","","","Images/WhiteBeadChoice.png","","null"
"image-button-response","94","218824","0.0-13.0-2.11","90","Low_HMMActual","","","","","","null","","","","Images/WhiteBeadChoiceCorrect.png","","null"
"image-button-response","95","221283","0.0-13.0-0.12","90","Low_HMMActual","","","","","","2456.6350000000093","","","","Images/NewTrialWC.png","","2"
"image-button-response","96","221588","0.0-13.0-1.12","90","Low_HMMActual","","","","","","null","","","","Images/WhiteBeadChoice.png","","null"
"image-button-response","97","222093","0.0-13.0-2.12","90","Low_HMMActual","","","","","","null","","","","Images/WhiteBeadChoiceWrong.png","","null"
"image-button-response","98","223540","0.0-13.0-0.13","90","Low_HMMActual","","","","","","1442.3849999998347","","","","Images/NewTrialBC.png","","0"
"image-button-response","99","223844","0.0-13.0-1.13","90","Low_HMMActual","","","","","","null","","","","Images/BlackBeadChoice.png","","null"
"image-button-response","100","224349","0.0-13.0-2.13","90","Low_HMMActual","","","","","","null","","","","Images/BlackBeadChoiceCorrect.png","","null"
"image-button-response","101","224841","0.0-13.0-0.14","90","Low_HMMActual","","","","","","488.53000000008615","","","","Images/NewTrialBC.png","","0"
"image-button-response","102","225144","0.0-13.0-1.14","90","Low_HMMActual","","","","","","null","","","","Images/BlackBeadChoice.png","","null"
"image-button-response","103","225649","0.0-13.0-2.14","90","Low_HMMActual","","","","","","null","","","","Images/BlackBeadChoiceCorrect.png","","null"
"image-button-response","104","225856","0.0-13.0-0.15","90","Low_HMMActual","","","","","","204.009999999922","","","","Images/NewTrialBC.png","","0"
"image-button-response","105","226159","0.0-13.0-1.15","90","Low_HMMActual","","","","","","null","","","","Images/BlackBeadChoice.png","","null"
"image-button-response","106","226663","0.0-13.0-2.15","90","Low_HMMActual","","","","","","null","","","","Images/BlackBeadChoiceCorrect.png","","null"
"image-button-response","107","227239","0.0-13.0-0.16","90","Low_HMMActual","","","","","","563.6049999998359","","","","Images/NewTrialBC.png","","0"
"image-button-response","108","227542","0.0-13.0-1.16","90","Low_HMMActual","","","","","","null","","","","Images/BlackBeadChoice.png","","null"
"image-button-response","109","228047","0.0-13.0-2.16","90","Low_HMMActual","","","","","","null","","","","Images/BlackBeadChoiceCorrect.png","","null"
"image-button-response","110","228439","0.0-13.0-0.17","90","Low_HMMActual","","","","","","388.8900000001886","","","","Images/NewTrialBC.png","","0"
"image-button-response","111","228744","0.0-13.0-1.17","90","Low_HMMActual","","","","","","null","","","","Images/BlackBeadChoice.png","","null"
"image-button-response","112","229248","0.0-13.0-2.17","90","Low_HMMActual","","","","","","null","","","","Images/BlackBeadChoiceCorrect.png","","null"
"image-button-response","113","229683","0.0-13.0-0.18","90","Low_HMMActual","","","","","","431.4899999999325","","","","Images/NewTrialBC.png","","0"
"image-button-response","114","229986","0.0-13.0-1.18","90","Low_HMMActual","","","","","","null","","","","Images/BlackBeadChoice.png","","null"
"image-button-response","115","230487","0.0-13.0-2.18","90","Low_HMMActual","","","","","","null","","","","Images/BlackBeadChoiceWrong.png","","null"
"image-button-response","116","232314","0.0-13.0-0.19","90","Low_HMMActual","","","","","","1824.2399999999034","","","","Images/NewTrialWC.png","","2"
"image-button-response","117","232616","0.0-13.0-1.19","90","Low_HMMActual","","","","","","null","","","","Images/WhiteBeadChoice.png","","null"
"image-button-response","118","233119","0.0-13.0-2.19","90","Low_HMMActual","","","","","","null","","","","Images/WhiteBeadChoiceWrong.png","","null"
"image-button-response","119","233849","0.0-13.0-0.20","90","Low_HMMActual","","","","","","726.2099999998172","","","","Images/NewTrialBC.png","","0"
"image-button-response","120","234153","0.0-13.0-1.20","90","Low_HMMActual","","","","","","null","","","","Images/BlackBeadChoice.png","","null"
"image-button-response","121","234657","0.0-13.0-2.20","90","Low_HMMActual","","","","","","null","","","","Images/BlackBeadChoiceCorrect.png","","null"
"image-button-response","122","235614","0.0-13.0-0.21","90","Low_HMMActual","","","","","","952.4650000003166","","","","Images/NewTrialBC.png","","0"
"image-button-response","123","235917","0.0-13.0-1.21","90","Low_HMMActual","","","","","","null","","","","Images/BlackBeadChoice.png","","null"
"image-button-response","124","236422","0.0-13.0-2.21","90","Low_HMMActual","","","","","","null","","","","Images/BlackBeadChoiceCorrect.png","","null"
"image-button-response","125","236921","0.0-13.0-0.22","90","Low_HMMActual","","","","","","494.2850000002363","","","","Images/NewTrialBC.png","","0"
"image-button-response","126","237224","0.0-13.0-1.22","90","Low_HMMActual","","","","","","null","","","","Images/BlackBeadChoice.png","","null"
"image-button-response","127","237728","0.0-13.0-2.22","90","Low_HMMActual","","","","","","null","","","","Images/BlackBeadChoiceWrong.png","","null"
"image-button-response","128","239910","0.0-13.0-0.23","90","Low_HMMActual","","","","","","2172.70000000007","","","","Images/NewTrialWC.png","","2"
"image-button-response","129","240215","0.0-13.0-1.23","90","Low_HMMActual","","","","","","null","","","","Images/WhiteBeadChoice.png","","null"
"image-button-response","130","240718","0.0-13.0-2.23","90","Low_HMMActual","","","","","","null","","","","Images/WhiteBeadChoiceWrong.png","","null"
"image-button-response","131","241406","0.0-13.0-0.24","90","Low_HMMActual","","","","","","684.0349999997707","","","","Images/NewTrialBC.png","","0"
"image-button-response","132","241710","0.0-13.0-1.24","90","Low_HMMActual","","","","","","null","","","","Images/BlackBeadChoice.png","","null"
"image-button-response","133","242214","0.0-13.0-2.24","90","Low_HMMActual","","","","","","null","","","","Images/BlackBeadChoiceCorrect.png","","null"
"image-button-response","134","242563","0.0-13.0-0.25","90","Low_HMMActual","","","","","","345.2849999998871","","","","Images/NewTrialBC.png","","0"
"image-button-response","135","242866","0.0-13.0-1.25","90","Low_HMMActual","","","","","","null","","","","Images/BlackBeadChoice.png","","null"
"image-button-response","136","243371","0.0-13.0-2.25","90","Low_HMMActual","","","","","","null","","","","Images/BlackBeadChoiceCorrect.png","","null"
"image-button-response","137","243767","0.0-13.0-0.26","90","Low_HMMActual","","","","","","392.1150000001071","","","","Images/NewTrialBC.png","","0"
"image-button-response","138","244071","0.0-13.0-1.26","90","Low_HMMActual","","","","","","null","","","","Images/BlackBeadChoice.png","","null"
"image-button-response","139","244573","0.0-13.0-2.26","90","Low_HMMActual","","","","","","null","","","","Images/BlackBeadChoiceCorrect.png","","null"
"image-button-response","140","245099","0.0-13.0-0.27","90","Low_HMMActual","","","","","","524.2749999997613","","","","Images/NewTrialBC.png","","0"
"image-button-response","141","245404","0.0-13.0-1.27","90","Low_HMMActual","","","","","","null","","","","Images/BlackBeadChoice.png","","null"
"image-button-response","142","245908","0.0-13.0-2.27","90","Low_HMMActual","","","","","","null","","","","Images/BlackBeadChoiceWrong.png","","null"
"image-button-response","143","247840","0.0-13.0-0.28","90","Low_HMMActual","","","","","","1927.9049999999988","","","","Images/NewTrialWC.png","","2"
"image-button-response","144","248144","0.0-13.0-1.28","90","Low_HMMActual","","","","","","null","","","","Images/WhiteBeadChoice.png","","null"
"image-button-response","145","248647","0.0-13.0-2.28","90","Low_HMMActual","","","","","","null","","","","Images/WhiteBeadChoiceWrong.png","","null"
"image-button-response","146","249660","0.0-13.0-0.29","90","Low_HMMActual","","","","","","1008.0300000004063","","","","Images/NewTrialBC.png","","0"
"image-button-response","147","249965","0.0-13.0-1.29","90","Low_HMMActual","","","","","","null","","","","Images/BlackBeadChoice.png","","null"
"image-button-response","148","250469","0.0-13.0-2.29","90","Low_HMMActual","","","","","","null","","","","Images/BlackBeadChoiceCorrect.png","","null"
"image-button-response","149","250779","0.0-13.0-0.30","90","Low_HMMActual","","","","","","305.38999999998487","","","","Images/NewTrialBC.png","","0"
"image-button-response","150","251091","0.0-13.0-1.30","90","Low_HMMActual","","","","","","null","","","","Images/BlackBeadChoice.png","","null"
"image-button-response","151","251595","0.0-13.0-2.30","90","Low_HMMActual","","","","","","null","","","","Images/BlackBeadChoiceCorrect.png","","null"
"image-button-response","152","252159","0.0-13.0-0.31","90","Low_HMMActual","","","","","","558.649999999936","","","","Images/NewTrialBC.png","","0"
"image-button-response","153","252464","0.0-13.0-1.31","90","Low_HMMActual","","","","","","null","","","","Images/BlackBeadChoice.png","","null"
"image-button-response","154","252969","0.0-13.0-2.31","90","Low_HMMActual","","","","","","null","","","","Images/BlackBeadChoiceCorrect.png","","null"
"image-button-response","155","253288","0.0-13.0-0.32","90","Low_HMMActual","","","","","","315.16499999997905","","","","Images/NewTrialBC.png","","0"
"image-button-response","156","253591","0.0-13.0-1.32","90","Low_HMMActual","","","","","","null","","","","Images/BlackBeadChoice.png","","null"
"image-button-response","157","254095","0.0-13.0-2.32","90","Low_HMMActual","","","","","","null","","","","Images/BlackBeadChoiceCorrect.png","","null"
"image-button-response","158","254326","0.0-13.0-0.33","90","Low_HMMActual","","","","","","228.31500000029337","","","","Images/NewTrialBC.png","","0"
"image-button-response","159","254631","0.0-13.0-1.33","90","Low_HMMActual","","","","","","null","","","","Images/BlackBeadChoice.png","","null"
"image-button-response","160","255134","0.0-13.0-2.33","90","Low_HMMActual","","","","","","null","","","","Images/BlackBeadChoiceCorrect.png","","null"
"image-button-response","161","255490","0.0-13.0-0.34","90","Low_HMMActual","","","","","","352.0699999999197","","","","Images/NewTrialBC.png","","0"
"image-button-response","162","255793","0.0-13.0-1.34","90","Low_HMMActual","","","","","","null","","","","Images/BlackBeadChoice.png","","null"
"image-button-response","163","256298","0.0-13.0-2.34","90","Low_HMMActual","","","","","","null","","","","Images/BlackBeadChoiceCorrect.png","","null"
"image-button-response","164","257273","0.0-13.0-0.35","90","Low_HMMActual","","","","","","971.3750000000582","","","","Images/NewTrialBC.png","","0"
"image-button-response","165","257578","0.0-13.0-1.35","90","Low_HMMActual","","","","","","null","","","","Images/BlackBeadChoice.png","","null"
"image-button-response","166","258079","0.0-13.0-2.35","90","Low_HMMActual","","","","","","null","","","","Images/BlackBeadChoiceCorrect.png","","null"
"image-button-response","167","258605","0.0-13.0-0.36","90","Low_HMMActual","","","","","","521.6199999999662","","","","Images/NewTrialBC.png","","0"
"image-button-response","168","258910","0.0-13.0-1.36","90","Low_HMMActual","","","","","","null","","","","Images/BlackBeadChoice.png","","null"
"image-button-response","169","259413","0.0-13.0-2.36","90","Low_HMMActual","","","","","","null","","","","Images/BlackBeadChoiceCorrect.png","","null"
"image-button-response","170","259999","0.0-13.0-0.37","90","Low_HMMActual","","","","","","581.8200000003271","","","","Images/NewTrialBC.png","","0"
"image-button-response","171","260304","0.0-13.0-1.37","90","Low_HMMActual","","","","","","null","","","","Images/BlackBeadChoice.png","","null"
"image-button-response","172","260809","0.0-13.0-2.37","90","Low_HMMActual","","","","","","null","","","","Images/BlackBeadChoiceCorrect.png","","null"
"image-button-response","173","261130","0.0-13.0-0.38","90","Low_HMMActual","","","","","","319.6250000000873","","","","Images/NewTrialBC.png","","0"
"image-button-response","174","261434","0.0-13.0-1.38","90","Low_HMMActual","","","","","","null","","","","Images/BlackBeadChoice.png","","null"
"image-button-response","175","261939","0.0-13.0-2.38","90","Low_HMMActual","","","","","","null","","","","Images/BlackBeadChoiceCorrect.png","","null"
"image-button-response","176","262421","0.0-13.0-0.39","90","Low_HMMActual","","","","","","480.2049999998417","","","","Images/NewTrialBC.png","","0"
"image-button-response","177","262734","0.0-13.0-1.39","90","Low_HMMActual","","","","","","null","","","","Images/BlackBeadChoice.png","","null"
"image-button-response","178","263238","0.0-13.0-2.39","90","Low_HMMActual","","","","","","null","","","","Images/BlackBeadChoiceCorrect.png","","null"
"image-button-response","179","263560","0.0-13.0-0.40","90","Low_HMMActual","","","","","","318.32500000018626","","","","Images/NewTrialBC.png","","0"
"image-button-response","180","263866","0.0-13.0-1.40","90","Low_HMMActual","","","","","","null","","","","Images/BlackBeadChoice.png","","null"
"image-button-response","181","264371","0.0-13.0-2.40","90","Low_HMMActual","","","","","","null","","","","Images/BlackBeadChoiceCorrect.png","","null"
"image-button-response","182","264747","0.0-13.0-0.41","90","Low_HMMActual","","","","","","371.8900000003632","","","","Images/NewTrialBC.png","","0"
"image-button-response","183","265051","0.0-13.0-1.41","90","Low_HMMActual","","","","","","null","","","","Images/BlackBeadChoice.png","","null"
"image-button-response","184","265556","0.0-13.0-2.41","90","Low_HMMActual","","","","","","null","","","","Images/BlackBeadChoiceCorrect.png","","null"
"image-button-response","185","266044","0.0-13.0-0.42","90","Low_HMMActual","","","","","","484.0549999999348","","","","Images/NewTrialBC.png","","0"
"image-button-response","186","266347","0.0-13.0-1.42","90","Low_HMMActual","","","","","","null","","","","Images/BlackBeadChoice.png","","null"
"image-button-response","187","266852","0.0-13.0-2.42","90","Low_HMMActual","","","","","","null","","","","Images/BlackBeadChoiceCorrect.png","","null"
"image-button-response","188","267367","0.0-13.0-0.43","90","Low_HMMActual","","","","","","510.4750000000349","","","","Images/NewTrialBC.png","","0"
"image-button-response","189","267670","0.0-13.0-1.43","90","Low_HMMActual","","","","","","null","","","","Images/BlackBeadChoice.png","","null"
"image-button-response","190","268172","0.0-13.0-2.43","90","Low_HMMActual","","","","","","null","","","","Images/BlackBeadChoiceCorrect.png","","null"
"image-button-response","191","268354","0.0-13.0-0.44","90","Low_HMMActual","","","","","","178.18499999976484","","","","Images/NewTrialBC.png","","0"
"image-button-response","192","268656","0.0-13.0-1.44","90","Low_HMMActual","","","","","","null","","","","Images/BlackBeadChoice.png","","null"
"image-button-response","193","269160","0.0-13.0-2.44","90","Low_HMMActual","","","","","","null","","","","Images/BlackBeadChoiceWrong.png","","null"
"image-button-response","194","271254","0.0-13.0-0.45","90","Low_HMMActual","","","","","","2090.500000000233","","","","Images/NewTrialWC.png","","2"
"image-button-response","195","271559","0.0-13.0-1.45","90","Low_HMMActual","","","","","","null","","","","Images/WhiteBeadChoice.png","","null"
"image-button-response","196","272062","0.0-13.0-2.45","90","Low_HMMActual","","","","","","null","","","","Images/WhiteBeadChoiceWrong.png","","null"
"image-button-response","197","272555","0.0-13.0-0.46","90","Low_HMMActual","","","","","","489.535000000149","","","","Images/NewTrialBC.png","","0"
"image-button-response","198","272857","0.0-13.0-1.46","90","Low_HMMActual","","","","","","null","","","","Images/BlackBeadChoice.png","","null"
"image-button-response","199","273360","0.0-13.0-2.46","90","Low_HMMActual","","","","","","null","","","","Images/BlackBeadChoiceCorrect.png","","null"
"image-button-response","200","273614","0.0-13.0-0.47","90","Low_HMMActual","","","","","","251.464999999851","","","","Images/NewTrialBC.png","","0"
"image-button-response","201","273919","0.0-13.0-1.47","90","Low_HMMActual","","","","","","null","","","","Images/BlackBeadChoice.png","","null"
"image-button-response","202","274422","0.0-13.0-2.47","90","Low_HMMActual","","","","","","null","","","","Images/BlackBeadChoiceCorrect.png","","null"
"image-button-response","203","274592","0.0-13.0-0.48","90","Low_HMMActual","","","","","","166.71500000031665","","","","Images/NewTrialBC.png","","0"
"image-button-response","204","274894","0.0-13.0-1.48","90","Low_HMMActual","","","","","","null","","","","Images/BlackBeadChoice.png","","null"
"image-button-response","205","275399","0.0-13.0-2.48","90","Low_HMMActual","","","","","","null","","","","Images/BlackBeadChoiceCorrect.png","","null"
"image-button-response","206","275636","0.0-13.0-0.49","90","Low_HMMActual","","","","","","233.35000000044238","","","","Images/NewTrialBC.png","","0"
"image-button-response","207","275943","0.0-13.0-1.49","90","Low_HMMActual","","","","","","null","","","","Images/BlackBeadChoice.png","","null"
"image-button-response","208","276447","0.0-13.0-2.49","90","Low_HMMActual","","","","","","null","","","","Images/BlackBeadChoiceCorrect.png","","null"
"image-button-response","209","276616","0.0-13.0-0.50","90","Low_HMMActual","","","","","","165.38499999977648","","","","Images/NewTrialBC.png","","0"
"image-button-response","210","276930","0.0-13.0-1.50","90","Low_HMMActual","","","","","","null","","","","Images/BlackBeadChoice.png","","null"
"image-button-response","211","277434","0.0-13.0-2.50","90","Low_HMMActual","","","","","","null","","","","Images/BlackBeadChoiceCorrect.png","","null"
"image-button-response","212","278188","0.0-13.0-0.51","90","Low_HMMActual","","","","","","749.8350000000792","","","","Images/NewTrialBC.png","","0"
"image-button-response","213","278491","0.0-13.0-1.51","90","Low_HMMActual","","","","","","null","","","","Images/BlackBeadChoice.png","","null"
"image-button-response","214","278995","0.0-13.0-2.51","90","Low_HMMActual","","","","","","null","","","","Images/BlackBeadChoiceCorrect.png","","null"
"image-button-response","215","279375","0.0-13.0-0.52","90","Low_HMMActual","","","","","","376.6350000000675","","","","Images/NewTrialBC.png","","0"
"image-button-response","216","279676","0.0-13.0-1.52","90","Low_HMMActual","","","","","","null","","","","Images/BlackBeadChoice.png","","null"
"image-button-response","217","280178","0.0-13.0-2.52","90","Low_HMMActual","","","","","","null","","","","Images/BlackBeadChoiceCorrect.png","","null"
"image-button-response","218","280996","0.0-13.0-0.53","90","Low_HMMActual","","","","","","815.9099999997998","","","","Images/NewTrialBC.png","","0"
"image-button-response","219","281299","0.0-13.0-1.53","90","Low_HMMActual","","","","","","null","","","","Images/BlackBeadChoice.png","","null"
"image-button-response","220","281801","0.0-13.0-2.53","90","Low_HMMActual","","","","","","null","","","","Images/BlackBeadChoiceCorrect.png","","null"
"image-button-response","221","282135","0.0-13.0-0.54","90","Low_HMMActual","","","","","","329.8249999997788","","","","Images/NewTrialBC.png","","0"
"image-button-response","222","282438","0.0-13.0-1.54","90","Low_HMMActual","","","","","","null","","","","Images/BlackBeadChoice.png","","null"
"image-button-response","223","282940","0.0-13.0-2.54","90","Low_HMMActual","","","","","","null","","","","Images/BlackBeadChoiceWrong.png","","null"
"image-button-response","224","283343","0.0-13.0-0.55","90","Low_HMMActual","","","","","","399.95000000001164","","","","Images/NewTrialWC.png","","0"
"image-button-response","225","283645","0.0-13.0-1.55","90","Low_HMMActual","","","","","","null","","","","Images/BlackBeadChoice.png","","null"
"image-button-response","226","284150","0.0-13.0-2.55","90","Low_HMMActual","","","","","","null","","","","Images/BlackBeadChoiceCorrect.png","","null"
"image-button-response","227","284532","0.0-13.0-0.56","90","Low_HMMActual","","","","","","378.12499999970896","","","","Images/NewTrialBC.png","","0"
"image-button-response","228","284839","0.0-13.0-1.56","90","Low_HMMActual","","","","","","null","","","","Images/BlackBeadChoice.png","","null"
"image-button-response","229","285343","0.0-13.0-2.56","90","Low_HMMActual","","","","","","null","","","","Images/BlackBeadChoiceCorrect.png","","null"
"image-button-response","230","286193","0.0-13.0-0.57","90","Low_HMMActual","","","","","","846.9349999999977","","","","Images/NewTrialBC.png","","0"
"image-button-response","231","286496","0.0-13.0-1.57","90","Low_HMMActual","","","","","","null","","","","Images/BlackBeadChoice.png","","null"
"image-button-response","232","287001","0.0-13.0-2.57","90","Low_HMMActual","","","","","","null","","","","Images/BlackBeadChoiceCorrect.png","","null"
"image-button-response","233","287605","0.0-13.0-0.58","90","Low_HMMActual","","","","","","600.2350000003353","","","","Images/NewTrialBC.png","","0"
"image-button-response","234","287910","0.0-13.0-1.58","90","Low_HMMActual","","","","","","null","","","","Images/BlackBeadChoice.png","","null"
"image-button-response","235","288415","0.0-13.0-2.58","90","Low_HMMActual","","","","","","null","","","","Images/BlackBeadChoiceCorrect.png","","null"
"image-button-response","236","289093","0.0-13.0-0.59","90","Low_HMMActual","","","","","","675.7000000001863","","","","Images/NewTrialBC.png","","0"
"image-button-response","237","289397","0.0-13.0-1.59","90","Low_HMMActual","","","","","","null","","","","Images/BlackBeadChoice.png","","null"
"image-button-response","238","289903","0.0-13.0-2.59","90","Low_HMMActual","","","","","","null","","","","Images/BlackBeadChoiceCorrect.png","","null"
"image-button-response","239","290736","0.0-13.0-0.60","90","Low_HMMActual","","","","","","816.515000000014","","","","Images/NewTrialBC.png","","0"
"image-button-response","240","291045","0.0-13.0-1.60","90","Low_HMMActual","","","","","","null","","","","Images/BlackBeadChoice.png","","null"
"image-button-response","241","291547","0.0-13.0-2.60","90","Low_HMMActual","","","","","","null","","","","Images/BlackBeadChoiceCorrect.png","","null"
"image-button-response","242","291868","0.0-13.0-0.61","90","Low_HMMActual","","","","","","318.63500000012573","","","","Images/NewTrialBC.png","","0"
"image-button-response","243","292173","0.0-13.0-1.61","90","Low_HMMActual","","","","","","null","","","","Images/BlackBeadChoice.png","","null"
"image-button-response","244","292677","0.0-13.0-2.61","90","Low_HMMActual","","","","","","null","","","","Images/BlackBeadChoiceCorrect.png","","null"
"image-button-response","245","293020","0.0-13.0-0.62","90","Low_HMMActual","","","","","","341.0800000001327","","","","Images/NewTrialBC.png","","0"
"image-button-response","246","293326","0.0-13.0-1.62","90","Low_HMMActual","","","","","","null","","","","Images/BlackBeadChoice.png","","null"
"image-button-response","247","293830","0.0-13.0-2.62","90","Low_HMMActual","","","","","","null","","","","Images/BlackBeadChoiceCorrect.png","","null"
"image-button-response","248","294075","0.0-13.0-0.63","90","Low_HMMActual","","","","","","241.28999999992084","","","","Images/NewTrialBC.png","","0"
"image-button-response","249","294377","0.0-13.0-1.63","90","Low_HMMActual","","","","","","null","","","","Images/BlackBeadChoice.png","","null"
"image-button-response","250","294880","0.0-13.0-2.63","90","Low_HMMActual","","","","","","null","","","","Images/BlackBeadChoiceCorrect.png","","null"
"image-button-response","251","295731","0.0-13.0-0.64","90","Low_HMMActual","","","","","","847.0649999999441","","","","Images/NewTrialBC.png","","0"
"image-button-response","252","296034","0.0-13.0-1.64","90","Low_HMMActual","","","","","","null","","","","Images/BlackBeadChoice.png","","null"
"image-button-response","253","296538","0.0-13.0-2.64","90","Low_HMMActual","","","","","","null","","","","Images/BlackBeadChoiceCorrect.png","","null"
"image-button-response","254","296927","0.0-13.0-0.65","90","Low_HMMActual","","","","","","385.8450000002631","","","","Images/NewTrialBC.png","","0"
"image-button-response","255","297233","0.0-13.0-1.65","90","Low_HMMActual","","","","","","null","","","","Images/BlackBeadChoice.png","","null"
"image-button-response","256","297739","0.0-13.0-2.65","90","Low_HMMActual","","","","","","null","","","","Images/BlackBeadChoiceCorrect.png","","null"
"image-button-response","257","297982","0.0-13.0-0.66","90","Low_HMMActual","","","","","","239.04999999969732","","","","Images/NewTrialBC.png","","0"
"image-button-response","258","298286","0.0-13.0-1.66","90","Low_HMMActual","","","","","","null","","","","Images/BlackBeadChoice.png","","null"
"image-button-response","259","298791","0.0-13.0-2.66","90","Low_HMMActual","","","","","","null","","","","Images/BlackBeadChoiceCorrect.png","","null"
"image-button-response","260","299148","0.0-13.0-0.67","90","Low_HMMActual","","","","","","353.5599999999977","","","","Images/NewTrialBC.png","","0"
"image-button-response","261","299452","0.0-13.0-1.67","90","Low_HMMActual","","","","","","null","","","","Images/BlackBeadChoice.png","","null"
"image-button-response","262","299957","0.0-13.0-2.67","90","Low_HMMActual","","","","","","null","","","","Images/BlackBeadChoiceCorrect.png","","null"
"image-button-response","263","300431","0.0-13.0-0.68","90","Low_HMMActual","","","","","","471.9049999998533","","","","Images/NewTrialBC.png","","0"
"image-button-response","264","300735","0.0-13.0-1.68","90","Low_HMMActual","","","","","","null","","","","Images/BlackBeadChoice.png","","null"
"image-button-response","265","301240","0.0-13.0-2.68","90","Low_HMMActual","","","","","","472.2600000000093","","","","Images/BlackBeadChoiceCorrect.png","","0"
"image-button-response","266","307464","0.0-13.0-0.69","90","Low_HMMActual","","","","","","6219.59500000003","","","","Images/NewTrialBC.png","","0"
"image-button-response","267","307768","0.0-13.0-1.69","90","Low_HMMActual","","","","","","null","","","","Images/BlackBeadChoice.png","","null"
"image-button-response","268","308273","0.0-13.0-2.69","90","Low_HMMActual","","","","","","null","","","","Images/BlackBeadChoiceCorrect.png","","null"
"image-button-response","269","309382","0.0-13.0-0.70","90","Low_HMMActual","","","","","","1106.4799999999232","","","","Images/NewTrialBC.png","","0"
"image-button-response","270","309690","0.0-13.0-1.70","90","Low_HMMActual","","","","","","null","","","","Images/BlackBeadChoice.png","","null"
"image-button-response","271","310192","0.0-13.0-2.70","90","Low_HMMActual","","","","","","null","","","","Images/BlackBeadChoiceCorrect.png","","null"
"image-button-response","272","311439","0.0-13.0-0.71","90","Low_HMMActual","","","","","","1244.2849999997416","","","","Images/NewTrialBC.png","","0"
"image-button-response","273","311743","0.0-13.0-1.71","90","Low_HMMActual","","","","","","null","","","","Images/BlackBeadChoice.png","","null"
"image-button-response","274","312248","0.0-13.0-2.71","90","Low_HMMActual","","","","","","null","","","","Images/BlackBeadChoiceCorrect.png","","null"
"image-button-response","275","312885","0.0-13.0-0.72","90","Low_HMMActual","","","","","","634.1450000000186","","","","Images/NewTrialBC.png","","0"
"image-button-response","276","313188","0.0-13.0-1.72","90","Low_HMMActual","","","","","","null","","","","Images/BlackBeadChoice.png","","null"
"image-button-response","277","313691","0.0-13.0-2.72","90","Low_HMMActual","","","","","","null","","","","Images/BlackBeadChoiceCorrect.png","","null"
"image-button-response","278","313854","0.0-13.0-0.73","90","Low_HMMActual","","","","","","158.37999999988824","","","","Images/NewTrialBC.png","","0"
"image-button-response","279","314161","0.0-13.0-1.73","90","Low_HMMActual","","","","","","null","","","","Images/BlackBeadChoice.png","","null"
"image-button-response","280","314663","0.0-13.0-2.73","90","Low_HMMActual","","","","","","124.76000000018394","","","","Images/BlackBeadChoiceWrong.png","","0"
"image-button-response","281","315799","0.0-13.0-0.74","90","Low_HMMActual","","","","","","1133.1950000003562","","","","Images/NewTrialWC.png","","0"
"image-button-response","282","316103","0.0-13.0-1.74","90","Low_HMMActual","","","","","","null","","","","Images/BlackBeadChoice.png","","null"
"image-button-response","283","316607","0.0-13.0-2.74","90","Low_HMMActual","","","","","","null","","","","Images/BlackBeadChoiceCorrect.png","","null"
"image-button-response","284","317322","0.0-13.0-0.75","90","Low_HMMActual","","","","","","712.1299999998882","","","","Images/NewTrialBC.png","","0"
"image-button-response","285","317624","0.0-13.0-1.75","90","Low_HMMActual","","","","","","null","","","","Images/BlackBeadChoice.png","","null"
"image-button-response","286","318126","0.0-13.0-2.75","90","Low_HMMActual","","","","","","null","","","","Images/BlackBeadChoiceCorrect.png","","null"
"image-button-response","287","318823","0.0-13.0-0.76","90","Low_HMMActual","","","","","","692.2250000002095","","","","Images/NewTrialBC.png","","0"
"image-button-response","288","319132","0.0-13.0-1.76","90","Low_HMMActual","","","","","","null","","","","Images/BlackBeadChoice.png","","null"
"image-button-response","289","319635","0.0-13.0-2.76","90","Low_HMMActual","","","","","","null","","","","Images/BlackBeadChoiceCorrect.png","","null"
"image-button-response","290","320078","0.0-13.0-0.77","90","Low_HMMActual","","","","","","441.094999999681","","","","Images/NewTrialBC.png","","0"
"image-button-response","291","320383","0.0-13.0-1.77","90","Low_HMMActual","","","","","","null","","","","Images/BlackBeadChoice.png","","null"
"image-button-response","292","320887","0.0-13.0-2.77","90","Low_HMMActual","","","","","","null","","","","Images/BlackBeadChoiceCorrect.png","","null"
"image-button-response","293","321864","0.0-13.0-0.78","90","Low_HMMActual","","","","","","975.5","","","","Images/NewTrialBC.png","","0"
"image-button-response","294","322166","0.0-13.0-1.78","90","Low_HMMActual","","","","","","null","","","","Images/BlackBeadChoice.png","","null"
"image-button-response","295","322668","0.0-13.0-2.78","90","Low_HMMActual","","","","","","null","","","","Images/BlackBeadChoiceCorrect.png","","null"
"image-button-response","296","325147","0.0-13.0-0.79","90","Low_HMMActual","","","","","","2478.1650000000373","","","","Images/NewTrialBC.png","","0"
"image-button-response","297","325450","0.0-13.0-1.79","90","Low_HMMActual","","","","","","null","","","","Images/BlackBeadChoice.png","","null"
"image-button-response","298","325954","0.0-13.0-2.79","90","Low_HMMActual","","","","","","null","","","","Images/BlackBeadChoiceCorrect.png","","null"
"image-button-response","299","326822","0.0-13.0-0.80","90","Low_HMMActual","","","","","","857.0899999999674","","","","Images/NewTrialBC.png","","0"
"image-button-response","300","327125","0.0-13.0-1.80","90","Low_HMMActual","","","","","","null","","","","Images/BlackBeadChoice.png","","null"
"image-button-response","301","327626","0.0-13.0-2.80","90","Low_HMMActual","","","","","","null","","","","Images/BlackBeadChoiceWrong.png","","null"
"image-button-response","302","331050","0.0-13.0-0.81","90","Low_HMMActual","","","","","","3420.594999999623","","","","Images/NewTrialWC.png","","0"
"image-button-response","303","331355","0.0-13.0-1.81","90","Low_HMMActual","","","","","","null","","","","Images/BlackBeadChoice.png","","null"
"image-button-response","304","331859","0.0-13.0-2.81","90","Low_HMMActual","","","","","","null","","","","Images/BlackBeadChoiceCorrect.png","","null"
"image-button-response","305","336489","0.0-13.0-0.82","90","Low_HMMActual","","","","","","4625.8499999999185","","","","Images/NewTrialBC.png","","0"
"image-button-response","306","336794","0.0-13.0-1.82","90","Low_HMMActual","","","","","","null","","","","Images/BlackBeadChoice.png","","null"
"image-button-response","307","337299","0.0-13.0-2.82","90","Low_HMMActual","","","","","","null","","","","Images/BlackBeadChoiceCorrect.png","","null"
"image-button-response","308","338562","0.0-13.0-0.83","90","Low_HMMActual","","","","","","1261.065000000177","","","","Images/NewTrialBC.png","","0"
"image-button-response","309","338867","0.0-13.0-1.83","90","Low_HMMActual","","","","","","null","","","","Images/BlackBeadChoice.png","","null"
"image-button-response","310","339370","0.0-13.0-2.83","90","Low_HMMActual","","","","","","null","","","","Images/BlackBeadChoiceCorrect.png","","null"
"image-button-response","311","339759","0.0-13.0-0.84","90","Low_HMMActual","","","","","","384.4300000000512","","","","Images/NewTrialBC.png","","0"
"image-button-response","312","340064","0.0-13.0-1.84","90","Low_HMMActual","","","","","","null","","","","Images/BlackBeadChoice.png","","null"
"image-button-response","313","340567","0.0-13.0-2.84","90","Low_HMMActual","","","","","","null","","","","Images/BlackBeadChoiceCorrect.png","","null"
"image-button-response","314","342264","0.0-13.0-0.85","90","Low_HMMActual","","","","","","1693.579999999667","","","","Images/NewTrialBC.png","","0"
"image-button-response","315","342569","0.0-13.0-1.85","90","Low_HMMActual","","","","","","null","","","","Images/BlackBeadChoice.png","","null"
"image-button-response","316","343074","0.0-13.0-2.85","90","Low_HMMActual","","","","","","null","","","","Images/BlackBeadChoiceCorrect.png","","null"
"image-button-response","317","347951","0.0-13.0-0.86","90","Low_HMMActual","","","","","","4874.374999999884","","","","Images/NewTrialBC.png","","0"
"image-button-response","318","348256","0.0-13.0-1.86","90","Low_HMMActual","","","","","","null","","","","Images/BlackBeadChoice.png","","null"
"image-button-response","319","348761","0.0-13.0-2.86","90","Low_HMMActual","","","","","","367.14500000019325","","","","Images/BlackBeadChoiceCorrect.png","","0"
"image-button-response","320","349090","0.0-13.0-0.87","90","Low_HMMActual","","","","","","326.3400000000256","","","","Images/NewTrialBC.png","","0"
"image-button-response","321","349394","0.0-13.0-1.87","90","Low_HMMActual","","","","","","null","","","","Images/BlackBeadChoice.png","","null"
"image-button-response","322","349898","0.0-13.0-2.87","90","Low_HMMActual","","","","","","null","","","","Images/BlackBeadChoiceCorrect.png","","null"
"image-button-response","323","350712","0.0-13.0-0.88","90","Low_HMMActual","","","","","","811.5900000002002","","","","Images/NewTrialBC.png","","0"
"image-button-response","324","351017","0.0-13.0-1.88","90","Low_HMMActual","","","","","","null","","","","Images/BlackBeadChoice.png","","null"
"image-button-response","325","351521","0.0-13.0-2.88","90","Low_HMMActual","","","","","","378.9200000001001","","","","Images/BlackBeadChoiceCorrect.png","","0"
"image-button-response","326","351952","0.0-13.0-0.89","90","Low_HMMActual","","","","","","428.6099999999278","","","","Images/NewTrialBC.png","","0"
"image-button-response","327","352256","0.0-13.0-1.89","90","Low_HMMActual","","","","","","null","","","","Images/BlackBeadChoice.png","","null"
"image-button-response","328","352762","0.0-13.0-2.89","90","Low_HMMActual","","","","","","286.1699999998091","","","","Images/BlackBeadChoiceCorrect.png","","0"
"image-button-response","329","353898","0.0-13.0-0.90","90","Low_HMMActual","","","","","","1131.9499999999534","","","","Images/NewTrialBC.png","","0"
"image-button-response","330","354201","0.0-13.0-1.90","90","Low_HMMActual","","","","","","null","","","","Images/BlackBeadChoice.png","","null"
"image-button-response","331","354705","0.0-13.0-2.90","90","Low_HMMActual","","","","","","null","","","","Images/BlackBeadChoiceWrong.png","","null"
"image-button-response","332","356175","0.0-13.0-0.91","90","Low_HMMActual","","","","","","1466.9799999996903","","","","Images/NewTrialWC.png","","0"
"image-button-response","333","356477","0.0-13.0-1.91","90","Low_HMMActual","","","","","","null","","","","Images/BlackBeadChoice.png","","null"
"image-button-response","334","356981","0.0-13.0-2.91","90","Low_HMMActual","","","","","","null","","","","Images/BlackBeadChoiceCorrect.png","","null"
"image-button-response","335","360829","0.0-13.0-0.92","90","Low_HMMActual","","","","","","3843.194999999949","","","","Images/NewTrialBC.png","","0"
"image-button-response","336","361133","0.0-13.0-1.92","90","Low_HMMActual","","","","","","null","","","","Images/BlackBeadChoice.png","","null"
"image-button-response","337","361640","0.0-13.0-2.92","90","Low_HMMActual","","","","","","null","","","","Images/BlackBeadChoiceCorrect.png","","null"
"image-button-response","338","363263","0.0-13.0-0.93","90","Low_HMMActual","","","","","","1619.5800000000163","","","","Images/NewTrialBC.png","","0"
"image-button-response","339","363566","0.0-13.0-1.93","90","Low_HMMActual","","","","","","null","","","","Images/BlackBeadChoice.png","","null"
"image-button-response","340","364070","0.0-13.0-2.93","90","Low_HMMActual","","","","","","null","","","","Images/BlackBeadChoiceWrong.png","","null"
"image-button-response","341","364465","0.0-13.0-0.94","90","Low_HMMActual","","","","","","392.0800000000745","","","","Images/NewTrialWC.png","","0"
"image-button-response","342","364777","0.0-13.0-1.94","90","Low_HMMActual","","","","","","null","","","","Images/BlackBeadChoice.png","","null"
"image-button-response","343","365280","0.0-13.0-2.94","90","Low_HMMActual","","","","","","null","","","","Images/BlackBeadChoiceCorrect.png","","null"
"image-button-response","344","365473","0.0-13.0-0.95","90","Low_HMMActual","","","","","","190.91000000026543","","","","Images/NewTrialBC.png","","0"
"image-button-response","345","365778","0.0-13.0-1.95","90","Low_HMMActual","","","","","","null","","","","Images/BlackBeadChoice.png","","null"
"image-button-response","346","366282","0.0-13.0-2.95","90","Low_HMMActual","","","","","","null","","","","Images/BlackBeadChoiceCorrect.png","","null"
"image-button-response","347","366703","0.0-13.0-0.96","90","Low_HMMActual","","","","","","418.4199999999837","","","","Images/NewTrialBC.png","","0"
"image-button-response","348","367007","0.0-13.0-1.96","90","Low_HMMActual","","","","","","null","","","","Images/BlackBeadChoice.png","","null"
"image-button-response","349","367512","0.0-13.0-2.96","90","Low_HMMActual","","","","","","null","","","","Images/BlackBeadChoiceCorrect.png","","null"
"image-button-response","350","368344","0.0-13.0-0.97","90","Low_HMMActual","","","","","","827.0950000000885","","","","Images/NewTrialBC.png","","0"
"image-button-response","351","368647","0.0-13.0-1.97","90","Low_HMMActual","","","","","","null","","","","Images/BlackBeadChoice.png","","null"
"image-button-response","352","369149","0.0-13.0-2.97","90","Low_HMMActual","","","","","","null","","","","Images/BlackBeadChoiceCorrect.png","","null"
"image-button-response","353","369882","0.0-13.0-0.98","90","Low_HMMActual","","","","","","728.9100000002654","","","","Images/NewTrialBC.png","","0"
"image-button-response","354","370187","0.0-13.0-1.98","90","Low_HMMActual","","","","","","null","","","","Images/BlackBeadChoice.png","","null"
"image-button-response","355","370690","0.0-13.0-2.98","90","Low_HMMActual","","","","","","266.465000000142","","","","Images/BlackBeadChoiceCorrect.png","","0"
"image-button-response","356","371394","0.0-13.0-0.99","90","Low_HMMActual","","","","","","697.9749999995693","","","","Images/NewTrialBC.png","","0"
"image-button-response","357","371699","0.0-13.0-1.99","90","Low_HMMActual","","","","","","null","","","","Images/BlackBeadChoice.png","","null"
"image-button-response","358","372203","0.0-13.0-2.99","90","Low_HMMActual","","","","","","null","","","","Images/BlackBeadChoiceWrong.png","","null"
"image-button-response","359","372555","0.0-13.0-0.100","90","Low_HMMActual","","","","","","349.949999999837","","","","Images/NewTrialWC.png","","0"
"image-button-response","360","372860","0.0-13.0-1.100","90","Low_HMMActual","","","","","","null","","","","Images/BlackBeadChoice.png","","null"
"image-button-response","361","373371","0.0-13.0-2.100","90","Low_HMMActual","","","","","","null","","","","Images/BlackBeadChoiceCorrect.png","","null"
"image-button-response","362","375129","0.0-13.0-0.101","90","Low_HMMActual","","","","","","1752.6349999998347","","","","Images/NewTrialBC.png","","0"
"image-button-response","363","375434","0.0-13.0-1.101","90","Low_HMMActual","","","","","","null","","","","Images/BlackBeadChoice.png","","null"
"image-button-response","364","375938","0.0-13.0-2.101","90","Low_HMMActual","","","","","","497.5050000002375","","","","Images/BlackBeadChoiceCorrect.png","","0"
"image-button-response","365","376654","0.0-13.0-0.102","90","Low_HMMActual","","","","","","711.2350000002189","","","","Images/NewTrialBC.png","","0"
"image-button-response","366","376959","0.0-13.0-1.102","90","Low_HMMActual","","","","","","null","","","","Images/BlackBeadChoice.png","","null"
"image-button-response","367","377463","0.0-13.0-2.102","90","Low_HMMActual","","","","","","352.46000000007916","","","","Images/BlackBeadChoiceCorrect.png","","0"
"image-button-response","368","378102","0.0-13.0-0.103","90","Low_HMMActual","","","","","","636.1500000003143","","","","Images/NewTrialBC.png","","0"
"image-button-response","369","378407","0.0-13.0-1.103","90","Low_HMMActual","","","","","","null","","","","Images/BlackBeadChoice.png","","null"
"image-button-response","370","378919","0.0-13.0-2.103","90","Low_HMMActual","","","","","","null","","","","Images/BlackBeadChoiceCorrect.png","","null"
"image-button-response","371","379689","0.0-13.0-0.104","90","Low_HMMActual","","","","","","765.4550000001909","","","","Images/NewTrialBC.png","","0"
"image-button-response","372","379994","0.0-13.0-1.104","90","Low_HMMActual","","","","","","null","","","","Images/BlackBeadChoice.png","","null"
"image-button-response","373","380498","0.0-13.0-2.104","90","Low_HMMActual","","","","","","null","","","","Images/BlackBeadChoiceWrong.png","","null"
"image-button-response","374","380960","0.0-13.0-0.105","90","Low_HMMActual","","","","","","458.20000000001164","","","","Images/NewTrialWC.png","","0"
"image-button-response","375","381264","0.0-13.0-1.105","90","Low_HMMActual","","","","","","null","","","","Images/BlackBeadChoice.png","","null"
"image-button-response","376","381768","0.0-13.0-2.105","90","Low_HMMActual","","","","","","null","","","","Images/BlackBeadChoiceCorrect.png","","null"
"image-button-response","377","382637","0.0-13.0-0.106","90","Low_HMMActual","","","","","","867.140000000305","","","","Images/NewTrialBC.png","","0"
"image-button-response","378","382942","0.0-13.0-1.106","90","Low_HMMActual","","","","","","null","","","","Images/BlackBeadChoice.png","","null"
"image-button-response","379","383445","0.0-13.0-2.106","90","Low_HMMActual","","","","","","null","","","","Images/BlackBeadChoiceCorrect.png","","null"
"image-button-response","380","384182","0.0-13.0-0.107","90","Low_HMMActual","","","","","","728.645000000135","","","","Images/NewTrialBC.png","","0"
"image-button-response","381","384486","0.0-13.0-1.107","90","Low_HMMActual","","","","","","null","","","","Images/BlackBeadChoice.png","","null"
"image-button-response","382","384988","0.0-13.0-2.107","90","Low_HMMActual","","","","","","null","","","","Images/BlackBeadChoiceWrong.png","","null"
"image-button-response","383","385680","0.0-13.0-0.108","90","Low_HMMActual","","","","","","688.1100000000442","","","","Images/NewTrialWC.png","","0"
"image-button-response","384","385985","0.0-13.0-1.108","90","Low_HMMActual","","","","","","null","","","","Images/BlackBeadChoice.png","","null"
"image-button-response","385","386490","0.0-13.0-2.108","90","Low_HMMActual","","","","","","null","","","","Images/BlackBeadChoiceCorrect.png","","null"
"image-button-response","386","386778","0.0-13.0-0.109","90","Low_HMMActual","","","","","","283.67000000027474","","","","Images/NewTrialBC.png","","0"
"image-button-response","387","387083","0.0-13.0-1.109","90","Low_HMMActual","","","","","","null","","","","Images/BlackBeadChoice.png","","null"
"image-button-response","388","387587","0.0-13.0-2.109","90","Low_HMMActual","","","","","","null","","","","Images/BlackBeadChoiceCorrect.png","","null"
"image-button-response","389","387916","0.0-13.0-0.110","90","Low_HMMActual","","","","","","327.219999999681","","","","Images/NewTrialBC.png","","0"
"image-button-response","390","388220","0.0-13.0-1.110","90","Low_HMMActual","","","","","","null","","","","Images/BlackBeadChoice.png","","null"
"image-button-response","391","388732","0.0-13.0-2.110","90","Low_HMMActual","","","","","","null","","","","Images/BlackBeadChoiceCorrect.png","","null"
"image-button-response","392","389020","0.0-13.0-0.111","90","Low_HMMActual","","","","","","283.18499999982305","","","","Images/NewTrialBC.png","","0"
"image-button-response","393","389325","0.0-13.0-1.111","90","Low_HMMActual","","","","","","null","","","","Images/BlackBeadChoice.png","","null"
"image-button-response","394","389830","0.0-13.0-2.111","90","Low_HMMActual","","","","","","null","","","","Images/BlackBeadChoiceCorrect.png","","null"
"image-button-response","395","390171","0.0-13.0-0.112","90","Low_HMMActual","","","","","","337.34499999991385","","","","Images/NewTrialBC.png","","0"
"image-button-response","396","390474","0.0-13.0-1.112","90","Low_HMMActual","","","","","","null","","","","Images/BlackBeadChoice.png","","null"
"image-button-response","397","390982","0.0-13.0-2.112","90","Low_HMMActual","","","","","","null","","","","Images/BlackBeadChoiceWrong.png","","null"
"image-button-response","398","391319","0.0-13.0-0.113","90","Low_HMMActual","","","","","","332.53999999986263","","","","Images/NewTrialWC.png","","0"
"image-button-response","399","391624","0.0-13.0-1.113","90","Low_HMMActual","","","","","","null","","","","Images/BlackBeadChoice.png","","null"
"image-button-response","400","392128","0.0-13.0-2.113","90","Low_HMMActual","","","","","","null","","","","Images/BlackBeadChoiceCorrect.png","","null"
"image-button-response","401","392379","0.0-13.0-0.114","90","Low_HMMActual","","","","","","249.9299999999348","","","","Images/NewTrialBC.png","","0"
"image-button-response","402","392681","0.0-13.0-1.114","90","Low_HMMActual","","","","","","null","","","","Images/BlackBeadChoice.png","","null"
"image-button-response","403","393184","0.0-13.0-2.114","90","Low_HMMActual","","","","","","null","","","","Images/BlackBeadChoiceCorrect.png","","null"
"image-button-response","404","393542","0.0-13.0-0.115","90","Low_HMMActual","","","","","","356.19499999983236","","","","Images/NewTrialBC.png","","0"
"image-button-response","405","393847","0.0-13.0-1.115","90","Low_HMMActual","","","","","","null","","","","Images/BlackBeadChoice.png","","null"
"image-button-response","406","394352","0.0-13.0-2.115","90","Low_HMMActual","","","","","","null","","","","Images/BlackBeadChoiceCorrect.png","","null"
"image-button-response","407","395501","0.0-13.0-0.116","90","Low_HMMActual","","","","","","1146.1799999997602","","","","Images/NewTrialBC.png","","0"
"image-button-response","408","395806","0.0-13.0-1.116","90","Low_HMMActual","","","","","","null","","","","Images/BlackBeadChoice.png","","null"
"image-button-response","409","396318","0.0-13.0-2.116","90","Low_HMMActual","","","","","","null","","","","Images/BlackBeadChoiceCorrect.png","","null"
"image-button-response","410","397807","0.0-13.0-0.117","90","Low_HMMActual","","","","","","1485.5899999997928","","","","Images/NewTrialBC.png","","0"
"image-button-response","411","398112","0.0-13.0-1.117","90","Low_HMMActual","","","","","","null","","","","Images/BlackBeadChoice.png","","null"
"image-button-response","412","398616","0.0-13.0-2.117","90","Low_HMMActual","","","","","","null","","","","Images/BlackBeadChoiceCorrect.png","","null"
"image-button-response","413","400028","0.0-13.0-0.118","90","Low_HMMActual","","","","","","1409.0999999998603","","","","Images/NewTrialBC.png","","0"
"image-button-response","414","400333","0.0-13.0-1.118","90","Low_HMMActual","","","","","","null","","","","Images/BlackBeadChoice.png","","null"
"image-button-response","415","400841","0.0-13.0-2.118","90","Low_HMMActual","","","","","","null","","","","Images/BlackBeadChoiceCorrect.png","","null"
"image-button-response","416","401178","0.0-13.0-0.119","90","Low_HMMActual","","","","","","335.9899999999907","","","","Images/NewTrialBC.png","","0"
"image-button-response","417","401480","0.0-13.0-1.119","90","Low_HMMActual","","","","","","null","","","","Images/BlackBeadChoice.png","","null"
"image-button-response","418","401985","0.0-13.0-2.119","90","Low_HMMActual","","","","","","null","","","","Images/BlackBeadChoiceCorrect.png","","null"
"image-button-response","419","402699","0.0-13.0-0.120","90","Low_HMMActual","","","","","","710.8549999998068","","","","Images/NewTrialBC.png","","0"
"image-button-response","420","403004","0.0-13.0-1.120","90","Low_HMMActual","","","","","","null","","","","Images/BlackBeadChoice.png","","null"
"image-button-response","421","403508","0.0-13.0-2.120","90","Low_HMMActual","","","","","","null","","","","Images/BlackBeadChoiceWrong.png","","null"
"image-button-response","422","403700","0.0-13.0-0.121","90","Low_HMMActual","","","","","","179.84999999997672","","","","Images/NewTrialWC.png","","0"
"image-button-response","423","404005","0.0-13.0-1.121","90","Low_HMMActual","","","","","","null","","","","Images/BlackBeadChoice.png","","null"
"image-button-response","424","404510","0.0-13.0-2.121","90","Low_HMMActual","","","","","","null","","","","Images/BlackBeadChoiceWrong.png","","null"
"image-button-response","425","404791","0.0-13.0-0.122","90","Low_HMMActual","","","","","","276.48999999975786","","","","Images/NewTrialWC.png","","0"
"image-button-response","426","405096","0.0-13.0-1.122","90","Low_HMMActual","","","","","","null","","","","Images/BlackBeadChoice.png","","null"
"image-button-response","427","405602","0.0-13.0-2.122","90","Low_HMMActual","","","","","","null","","","","Images/BlackBeadChoiceWrong.png","","null"
"image-button-response","428","405998","0.0-13.0-0.123","90","Low_HMMActual","","","","","","392.8450000003213","","","","Images/NewTrialWC.png","","0"
"image-button-response","429","406303","0.0-13.0-1.123","90","Low_HMMActual","","","","","","null","","","","Images/BlackBeadChoice.png","","null"
"image-button-response","430","406805","0.0-13.0-2.123","90","Low_HMMActual","","","","","","null","","","","Images/BlackBeadChoiceCorrect.png","","null"
"image-button-response","431","407455","0.0-13.0-0.124","90","Low_HMMActual","","","","","","644.4949999999953","","","","Images/NewTrialBC.png","","0"
"image-button-response","432","407759","0.0-13.0-1.124","90","Low_HMMActual","","","","","","null","","","","Images/BlackBeadChoice.png","","null"
"image-button-response","433","408264","0.0-13.0-2.124","90","Low_HMMActual","","","","","","null","","","","Images/BlackBeadChoiceCorrect.png","","null"
"image-button-response","434","409108","0.0-13.0-0.125","90","Low_HMMActual","","","","","","839.6849999999395","","","","Images/NewTrialBC.png","","0"
"image-button-response","435","409412","0.0-13.0-1.125","90","Low_HMMActual","","","","","","null","","","","Images/BlackBeadChoice.png","","null"
"image-button-response","436","409918","0.0-13.0-2.125","90","Low_HMMActual","","","","","","null","","","","Images/BlackBeadChoiceWrong.png","","null"
"image-button-response","437","411891","0.0-13.0-0.126","90","Low_HMMActual","","","","","","1969.234999999986","","","","Images/NewTrialWC.png","","1"
"image-button-response","438","412193","0.0-13.0-1.126","90","Low_HMMActual","","","","","","null","","","","Images/BlackBeadChoice.png","","null"
"image-button-response","439","412697","0.0-13.0-2.126","90","Low_HMMActual","","","","","","null","","","","Images/BlackBeadChoiceCorrect.png","","null"
"image-button-response","440","412886","0.0-13.0-0.127","90","Low_HMMActual","","","","","","186.13999999983935","","","","Images/NewTrialBC.png","","0"
"image-button-response","441","413191","0.0-13.0-1.127","90","Low_HMMActual","","","","","","null","","","","Images/BlackBeadChoice.png","","null"
"image-button-response","442","413696","0.0-13.0-2.127","90","Low_HMMActual","","","","","","null","","","","Images/BlackBeadChoiceCorrect.png","","null"
"image-button-response","443","413948","0.0-13.0-0.128","90","Low_HMMActual","","","","","","247.64000000001397","","","","Images/NewTrialBC.png","","0"
"image-button-response","444","414258","0.0-13.0-1.128","90","Low_HMMActual","","","","","","null","","","","Images/BlackBeadChoice.png","","null"
"image-button-response","445","414762","0.0-13.0-2.128","90","Low_HMMActual","","","","","","null","","","","Images/BlackBeadChoiceCorrect.png","","null"
"image-button-response","446","415750","0.0-13.0-0.129","90","Low_HMMActual","","","","","","984.2250000001513","","","","Images/NewTrialBC.png","","0"
"image-button-response","447","416055","0.0-13.0-1.129","90","Low_HMMActual","","","","","","null","","","","Images/BlackBeadChoice.png","","null"
"image-button-response","448","416558","0.0-13.0-2.129","90","Low_HMMActual","","","","","","null","","","","Images/BlackBeadChoiceWrong.png","","null"
"image-button-response","449","417779","0.0-13.0-0.130","90","Low_HMMActual","","","","","","1203.125","","","","Images/NewTrialWC.png","","1"
"image-button-response","450","418083","0.0-13.0-1.130","90","Low_HMMActual","","","","","","null","","","","Images/BlackBeadChoice.png","","null"
"image-button-response","451","418587","0.0-13.0-2.130","90","Low_HMMActual","","","","","","null","","","","Images/BlackBeadChoiceCorrect.png","","null"
"image-button-response","452","418722","0.0-13.0-0.131","90","Low_HMMActual","","","","","","131.14500000030966","","","","Images/NewTrialBC.png","","0"
"image-button-response","453","419025","0.0-13.0-1.131","90","Low_HMMActual","","","","","","null","","","","Images/BlackBeadChoice.png","","null"
"image-button-response","454","419534","0.0-13.0-2.131","90","Low_HMMActual","","","","","","null","","","","Images/BlackBeadChoiceCorrect.png","","null"
"image-button-response","455","419663","0.0-13.0-0.132","90","Low_HMMActual","","","","","","124.98000000003958","","","","Images/NewTrialBC.png","","0"
"image-button-response","456","419968","0.0-13.0-1.132","90","Low_HMMActual","","","","","","null","","","","Images/BlackBeadChoice.png","","null"
"image-button-response","457","420469","0.0-13.0-2.132","90","Low_HMMActual","","","","","","null","","","","Images/BlackBeadChoiceCorrect.png","","null"
"image-button-response","458","421878","0.0-13.0-0.133","90","Low_HMMActual","","","","","","1406.899999999965","","","","Images/NewTrialBC.png","","0"
"image-button-response","459","422183","0.0-13.0-1.133","90","Low_HMMActual","","","","","","null","","","","Images/BlackBeadChoice.png","","null"
"image-button-response","460","422685","0.0-13.0-2.133","90","Low_HMMActual","","","","","","null","","","","Images/BlackBeadChoiceCorrect.png","","null"
"image-button-response","461","422989","0.0-13.0-0.134","90","Low_HMMActual","","","","","","299.7249999998603","","","","Images/NewTrialBC.png","","0"
"image-button-response","462","423292","0.0-13.0-1.134","90","Low_HMMActual","","","","","","null","","","","Images/BlackBeadChoice.png","","null"
"image-button-response","463","423796","0.0-13.0-2.134","90","Low_HMMActual","","","","","","null","","","","Images/BlackBeadChoiceCorrect.png","","null"
"image-button-response","464","423956","0.0-13.0-0.135","90","Low_HMMActual","","","","","","156.1599999999744","","","","Images/NewTrialBC.png","","0"
"image-button-response","465","424261","0.0-13.0-1.135","90","Low_HMMActual","","","","","","null","","","","Images/BlackBeadChoice.png","","null"
"image-button-response","466","424764","0.0-13.0-2.135","90","Low_HMMActual","","","","","","null","","","","Images/BlackBeadChoiceCorrect.png","","null"
"image-button-response","467","425025","0.0-13.0-0.136","90","Low_HMMActual","","","","","","258.75","","","","Images/NewTrialBC.png","","0"
"image-button-response","468","425330","0.0-13.0-1.136","90","Low_HMMActual","","","","","","null","","","","Images/BlackBeadChoice.png","","null"
"image-button-response","469","425832","0.0-13.0-2.136","90","Low_HMMActual","","","","","","null","","","","Images/BlackBeadChoiceWrong.png","","null"
"image-button-response","470","426151","0.0-13.0-0.137","90","Low_HMMActual","","","","","","316.3049999998184","","","","Images/NewTrialWC.png","","0"
"image-button-response","471","426456","0.0-13.0-1.137","90","Low_HMMActual","","","","","","null","","","","Images/BlackBeadChoice.png","","null"
"image-button-response","472","426961","0.0-13.0-2.137","90","Low_HMMActual","","","","","","null","","","","Images/BlackBeadChoiceWrong.png","","null"
"image-button-response","473","427625","0.0-13.0-0.138","90","Low_HMMActual","","","","","","660.5899999999674","","","","Images/NewTrialWC.png","","0"
"image-button-response","474","427928","0.0-13.0-1.138","90","Low_HMMActual","","","","","","null","","","","Images/BlackBeadChoice.png","","null"
"image-button-response","475","428429","0.0-13.0-2.138","90","Low_HMMActual","","","","","","null","","","","Images/BlackBeadChoiceCorrect.png","","null"
"image-button-response","476","428793","0.0-13.0-0.139","90","Low_HMMActual","","","","","","362.42499999981374","","","","Images/NewTrialBC.png","","0"
"image-button-response","477","429099","0.0-13.0-1.139","90","Low_HMMActual","","","","","","null","","","","Images/BlackBeadChoice.png","","null"
"image-button-response","478","429602","0.0-13.0-2.139","90","Low_HMMActual","","","","","","null","","","","Images/BlackBeadChoiceCorrect.png","","null"
"image-button-response","479","429891","0.0-13.0-0.140","90","Low_HMMActual","","","","","","287.5250000001979","","","","Images/NewTrialBC.png","","0"
"image-button-response","480","430200","0.0-13.0-1.140","90","Low_HMMActual","","","","","","null","","","","Images/BlackBeadChoice.png","","null"
"image-button-response","481","430703","0.0-13.0-2.140","90","Low_HMMActual","","","","","","null","","","","Images/BlackBeadChoiceCorrect.png","","null"
"image-button-response","482","431175","0.0-13.0-0.141","90","Low_HMMActual","","","","","","467.3999999999651","","","","Images/NewTrialBC.png","","0"
"image-button-response","483","431479","0.0-13.0-1.141","90","Low_HMMActual","","","","","","null","","","","Images/BlackBeadChoice.png","","null"
"image-button-response","484","431981","0.0-13.0-2.141","90","Low_HMMActual","","","","","","null","","","","Images/BlackBeadChoiceCorrect.png","","null"
"image-button-response","485","432161","0.0-13.0-0.142","90","Low_HMMActual","","","","","","176.13500000018394","","","","Images/NewTrialBC.png","","0"
"image-button-response","486","432474","0.0-13.0-1.142","90","Low_HMMActual","","","","","","null","","","","Images/BlackBeadChoice.png","","null"
"image-button-response","487","432976","0.0-13.0-2.142","90","Low_HMMActual","","","","","","null","","","","Images/BlackBeadChoiceCorrect.png","","null"
"image-button-response","488","433907","0.0-13.0-0.143","90","Low_HMMActual","","","","","","928.7949999998091","","","","Images/NewTrialBC.png","","0"
"image-button-response","489","434213","0.0-13.0-1.143","90","Low_HMMActual","","","","","","null","","","","Images/BlackBeadChoice.png","","null"
"image-button-response","490","434716","0.0-13.0-2.143","90","Low_HMMActual","","","","","","null","","","","Images/BlackBeadChoiceCorrect.png","","null"
"image-button-response","491","434961","0.0-13.0-0.144","90","Low_HMMActual","","","","","","239.16499999992084","","","","Images/NewTrialBC.png","","0"
"image-button-response","492","435263","0.0-13.0-1.144","90","Low_HMMActual","","","","","","null","","","","Images/BlackBeadChoice.png","","null"
"image-button-response","493","435765","0.0-13.0-2.144","90","Low_HMMActual","","","","","","null","","","","Images/BlackBeadChoiceCorrect.png","","null"
"image-button-response","494","435936","0.0-13.0-0.145","90","Low_HMMActual","","","","","","169.3650000001653","","","","Images/NewTrialBC.png","","0"
"image-button-response","495","436241","0.0-13.0-1.145","90","Low_HMMActual","","","","","","null","","","","Images/BlackBeadChoice.png","","null"
"image-button-response","496","436744","0.0-13.0-2.145","90","Low_HMMActual","","","","","","null","","","","Images/BlackBeadChoiceCorrect.png","","null"
"image-button-response","497","436985","0.0-13.0-0.146","90","Low_HMMActual","","","","","","236.96999999991385","","","","Images/NewTrialBC.png","","0"
"image-button-response","498","437296","0.0-13.0-1.146","90","Low_HMMActual","","","","","","null","","","","Images/BlackBeadChoice.png","","null"
"image-button-response","499","437799","0.0-13.0-2.146","90","Low_HMMActual","","","","","","null","","","","Images/BlackBeadChoiceCorrect.png","","null"
"image-button-response","500","438828","0.0-13.0-0.147","90","Low_HMMActual","","","","","","1027.0200000000186","","","","Images/NewTrialBC.png","","0"
"image-button-response","501","439134","0.0-13.0-1.147","90","Low_HMMActual","","","","","","null","","","","Images/BlackBeadChoice.png","","null"
"image-button-response","502","439639","0.0-13.0-2.147","90","Low_HMMActual","","","","","","null","","","","Images/BlackBeadChoiceCorrect.png","","null"
"image-button-response","503","440705","0.0-13.0-0.148","90","Low_HMMActual","","","","","","1057.0199999997276","","","","Images/NewTrialBC.png","","0"
"image-button-response","504","441010","0.0-13.0-1.148","90","Low_HMMActual","","","","","","null","","","","Images/BlackBeadChoice.png","","null"
"image-button-response","505","441515","0.0-13.0-2.148","90","Low_HMMActual","","","","","","null","","","","Images/BlackBeadChoiceCorrect.png","","null"
"image-button-response","506","442609","0.0-13.0-0.149","90","Low_HMMActual","","","","","","1090.5999999999767","","","","Images/NewTrialBC.png","","0"
"image-button-response","507","442914","0.0-13.0-1.149","90","Low_HMMActual","","","","","","null","","","","Images/BlackBeadChoice.png","","null"
"image-button-response","508","443418","0.0-13.0-2.149","90","Low_HMMActual","","","","","","null","","","","Images/BlackBeadChoiceWrong.png","","null"
"image-button-response","509","444893","0.0-13.0-0.150","90","Low_HMMActual","","","","","","1471.715000000142","","","","Images/NewTrialWC.png","","1"
"image-button-response","510","445197","0.0-13.0-1.150","90","Low_HMMActual","","","","","","null","","","","Images/BlackBeadChoice.png","","null"
"image-button-response","511","445702","0.0-13.0-2.150","90","Low_HMMActual","","","","","","null","","","","Images/BlackBeadChoiceWrong.png","","null"
"image-button-response","512","447368","0.0-13.0-0.151","90","Low_HMMActual","","","","","","1661.8199999997742","","","","Images/NewTrialWC.png","","1"
"image-button-response","513","447671","0.0-13.0-1.151","90","Low_HMMActual","","","","","","null","","","","Images/BlackBeadChoice.png","","null"
"image-button-response","514","448174","0.0-13.0-2.151","90","Low_HMMActual","","","","","","null","","","","Images/BlackBeadChoiceCorrect.png","","null"
"image-button-response","515","448611","0.0-13.0-0.152","90","Low_HMMActual","","","","","","434.98999999969965","","","","Images/NewTrialBC.png","","0"
"image-button-response","516","448914","0.0-13.0-1.152","90","Low_HMMActual","","","","","","null","","","","Images/BlackBeadChoice.png","","null"
"image-button-response","517","449427","0.0-13.0-2.152","90","Low_HMMActual","","","","","","null","","","","Images/BlackBeadChoiceCorrect.png","","null"
"image-button-response","518","449710","0.0-13.0-0.153","90","Low_HMMActual","","","","","","278.0999999999767","","","","Images/NewTrialBC.png","","0"
"image-button-response","519","450015","0.0-13.0-1.153","90","Low_HMMActual","","","","","","null","","","","Images/BlackBeadChoice.png","","null"
"image-button-response","520","450520","0.0-13.0-2.153","90","Low_HMMActual","","","","","","null","","","","Images/BlackBeadChoiceCorrect.png","","null"
"image-button-response","521","450801","0.0-13.0-0.154","90","Low_HMMActual","","","","","","276.4099999999162","","","","Images/NewTrialBC.png","","0"
"image-button-response","522","451105","0.0-13.0-1.154","90","Low_HMMActual","","","","","","null","","","","Images/BlackBeadChoice.png","","null"
"image-button-response","523","451612","0.0-13.0-2.154","90","Low_HMMActual","","","","","","null","","","","Images/BlackBeadChoiceCorrect.png","","null"
"image-button-response","524","451898","0.0-13.0-0.155","90","Low_HMMActual","","","","","","281.1999999998952","","","","Images/NewTrialBC.png","","0"
"image-button-response","525","452202","0.0-13.0-1.155","90","Low_HMMActual","","","","","","null","","","","Images/BlackBeadChoice.png","","null"
"image-button-response","526","452709","0.0-13.0-2.155","90","Low_HMMActual","","","","","","null","","","","Images/BlackBeadChoiceCorrect.png","","null"
"image-button-response","527","453617","0.0-13.0-0.156","90","Low_HMMActual","","","","","","904.2950000002747","","","","Images/NewTrialBC.png","","0"
"image-button-response","528","453922","0.0-13.0-1.156","90","Low_HMMActual","","","","","","null","","","","Images/BlackBeadChoice.png","","null"
"image-button-response","529","454427","0.0-13.0-2.156","90","Low_HMMActual","","","","","","null","","","","Images/BlackBeadChoiceCorrect.png","","null"
"image-button-response","530","454680","0.0-13.0-0.157","90","Low_HMMActual","","","","","","247.01499999995576","","","","Images/NewTrialBC.png","","0"
"image-button-response","531","454984","0.0-13.0-1.157","90","Low_HMMActual","","","","","","null","","","","Images/BlackBeadChoice.png","","null"
"image-button-response","532","455488","0.0-13.0-2.157","90","Low_HMMActual","","","","","","null","","","","Images/BlackBeadChoiceWrong.png","","null"
"image-button-response","533","455832","0.0-13.0-0.158","90","Low_HMMActual","","","","","","340.2750000000233","","","","Images/NewTrialWC.png","","0"
"image-button-response","534","456136","0.0-13.0-1.158","90","Low_HMMActual","","","","","","null","","","","Images/BlackBeadChoice.png","","null"
"image-button-response","535","456641","0.0-13.0-2.158","90","Low_HMMActual","","","","","","null","","","","Images/BlackBeadChoiceWrong.png","","null"
"image-button-response","536","457044","0.0-13.0-0.159","90","Low_HMMActual","","","","","","399.5","","","","Images/NewTrialWC.png","","0"
"image-button-response","537","457346","0.0-13.0-1.159","90","Low_HMMActual","","","","","","null","","","","Images/BlackBeadChoice.png","","null"
"image-button-response","538","457848","0.0-13.0-2.159","90","Low_HMMActual","","","","","","null","","","","Images/BlackBeadChoiceWrong.png","","null"
"image-button-response","539","458248","0.0-13.0-0.160","90","Low_HMMActual","","","","","","394.7200000002631","","","","Images/NewTrialWC.png","","0"
"image-button-response","540","458553","0.0-13.0-1.160","90","Low_HMMActual","","","","","","null","","","","Images/BlackBeadChoice.png","","null"
"image-button-response","541","459057","0.0-13.0-2.160","90","Low_HMMActual","","","","","","null","","","","Images/BlackBeadChoiceWrong.png","","null"
"image-button-response","542","459533","0.0-13.0-0.161","90","Low_HMMActual","","","","","","471.97999999980675","","","","Images/NewTrialWC.png","","0"
"image-button-response","543","459836","0.0-13.0-1.161","90","Low_HMMActual","","","","","","null","","","","Images/BlackBeadChoice.png","","null"
"image-button-response","544","460341","0.0-13.0-2.161","90","Low_HMMActual","","","","","","null","","","","Images/BlackBeadChoiceWrong.png","","null"
"image-button-response","545","460670","0.0-13.0-0.162","90","Low_HMMActual","","","","","","326.61000000010245","","","","Images/NewTrialWC.png","","0"
"image-button-response","546","460974","0.0-13.0-1.162","90","Low_HMMActual","","","","","","null","","","","Images/BlackBeadChoice.png","","null"
"image-button-response","547","461486","0.0-13.0-2.162","90","Low_HMMActual","","","","","","null","","","","Images/BlackBeadChoiceCorrect.png","","null"
"image-button-response","548","462002","0.0-13.0-0.163","90","Low_HMMActual","","","","","","510.92500000004657","","","","Images/NewTrialBC.png","","0"
"image-button-response","549","462306","0.0-13.0-1.163","90","Low_HMMActual","","","","","","null","","","","Images/BlackBeadChoice.png","","null"
"image-button-response","550","462811","0.0-13.0-2.163","90","Low_HMMActual","","","","","","null","","","","Images/BlackBeadChoiceWrong.png","","null"
"image-button-response","551","463230","0.0-13.0-0.164","90","Low_HMMActual","","","","","","414.92500000004657","","","","Images/NewTrialWC.png","","0"
"image-button-response","552","463536","0.0-13.0-1.164","90","Low_HMMActual","","","","","","null","","","","Images/BlackBeadChoice.png","","null"
"image-button-response","553","464041","0.0-13.0-2.164","90","Low_HMMActual","","","","","","null","","","","Images/BlackBeadChoiceWrong.png","","null"
"image-button-response","554","464210","0.0-13.0-0.165","90","Low_HMMActual","","","","","","165.55999999988126","","","","Images/NewTrialWC.png","","0"
"image-button-response","555","464515","0.0-13.0-1.165","90","Low_HMMActual","","","","","","null","","","","Images/BlackBeadChoice.png","","null"
"image-button-response","556","465018","0.0-13.0-2.165","90","Low_HMMActual","","","","","","null","","","","Images/BlackBeadChoiceWrong.png","","null"
"image-button-response","557","465218","0.0-13.0-0.166","90","Low_HMMActual","","","","","","195.57500000018626","","","","Images/NewTrialWC.png","","0"
"image-button-response","558","465523","0.0-13.0-1.166","90","Low_HMMActual","","","","","","null","","","","Images/BlackBeadChoice.png","","null"
"image-button-response","559","466029","0.0-13.0-2.166","90","Low_HMMActual","","","","","","null","","","","Images/BlackBeadChoiceWrong.png","","null"
"image-button-response","560","466260","0.0-13.0-0.167","90","Low_HMMActual","","","","","","226.54000000015367","","","","Images/NewTrialWC.png","","0"
"image-button-response","561","466565","0.0-13.0-1.167","90","Low_HMMActual","","","","","","null","","","","Images/BlackBeadChoice.png","","null"
"image-button-response","562","467068","0.0-13.0-2.167","90","Low_HMMActual","","","","","","null","","","","Images/BlackBeadChoiceWrong.png","","null"
"image-button-response","563","467391","0.0-13.0-0.168","90","Low_HMMActual","","","","","","319.12000000011176","","","","Images/NewTrialWC.png","","0"
"image-button-response","564","467693","0.0-13.0-1.168","90","Low_HMMActual","","","","","","null","","","","Images/BlackBeadChoice.png","","null"
"image-button-response","565","468197","0.0-13.0-2.168","90","Low_HMMActual","","","","","","null","","","","Images/BlackBeadChoiceWrong.png","","null"
"image-button-response","566","468841","0.0-13.0-0.169","90","Low_HMMActual","","","","","","632.0249999999069","","","","Images/NewTrialWC.png","","0"
"image-button-response","567","469145","0.0-13.0-1.169","90","Low_HMMActual","","","","","","null","","","","Images/BlackBeadChoice.png","","null"
"image-button-response","568","469651","0.0-13.0-2.169","90","Low_HMMActual","","","","","","null","","","","Images/BlackBeadChoiceWrong.png","","null"
"image-button-response","569","470539","0.0-13.0-0.170","90","Low_HMMActual","","","","","","883.7549999998882","","","","Images/NewTrialWC.png","","0"
"image-button-response","570","470849","0.0-13.0-1.170","90","Low_HMMActual","","","","","","null","","","","Images/BlackBeadChoice.png","","null"
"image-button-response","571","471352","0.0-13.0-2.170","90","Low_HMMActual","","","","","","null","","","","Images/BlackBeadChoiceCorrect.png","","null"
"image-button-response","572","471519","0.0-13.0-0.171","90","Low_HMMActual","","","","","","165.19000000011874","","","","Images/NewTrialBC.png","","0"
"image-button-response","573","471823","0.0-13.0-1.171","90","Low_HMMActual","","","","","","null","","","","Images/BlackBeadChoice.png","","null"
"image-button-response","574","472326","0.0-13.0-2.171","90","Low_HMMActual","","","","","","null","","","","Images/BlackBeadChoiceWrong.png","","null"
"image-button-response","575","472621","0.0-13.0-0.172","90","Low_HMMActual","","","","","","290.5999999998021","","","","Images/NewTrialWC.png","","0"
"image-button-response","576","472924","0.0-13.0-1.172","90","Low_HMMActual","","","","","","null","","","","Images/BlackBeadChoice.png","","null"
"image-button-response","577","473429","0.0-13.0-2.172","90","Low_HMMActual","","","","","","null","","","","Images/BlackBeadChoiceWrong.png","","null"
"image-button-response","578","473605","0.0-13.0-0.173","90","Low_HMMActual","","","","","","171.93499999988126","","","","Images/NewTrialWC.png","","0"
"image-button-response","579","473914","0.0-13.0-1.173","90","Low_HMMActual","","","","","","null","","","","Images/BlackBeadChoice.png","","null"
"image-button-response","580","474420","0.0-13.0-2.173","90","Low_HMMActual","","","","","","null","","","","Images/BlackBeadChoiceWrong.png","","null"
"image-button-response","581","474671","0.0-13.0-0.174","90","Low_HMMActual","","","","","","248.68500000005588","","","","Images/NewTrialWC.png","","0"
"image-button-response","582","474974","0.0-13.0-1.174","90","Low_HMMActual","","","","","","null","","","","Images/BlackBeadChoice.png","","null"
"image-button-response","583","475478","0.0-13.0-2.174","90","Low_HMMActual","","","","","","null","","","","Images/BlackBeadChoiceWrong.png","","null"
"image-button-response","584","475688","0.0-13.0-0.175","90","Low_HMMActual","","","","","","206.22999999974854","","","","Images/NewTrialWC.png","","0"
"image-button-response","585","475993","0.0-13.0-1.175","90","Low_HMMActual","","","","","","null","","","","Images/BlackBeadChoice.png","","null"
"image-button-response","586","476495","0.0-13.0-2.175","90","Low_HMMActual","","","","","","null","","","","Images/BlackBeadChoiceWrong.png","","null"
"image-button-response","587","476790","0.0-13.0-0.176","90","Low_HMMActual","","","","","","284.03999999997905","","","","Images/NewTrialWC.png","","0"
"image-button-response","588","477092","0.0-13.0-1.176","90","Low_HMMActual","","","","","","null","","","","Images/BlackBeadChoice.png","","null"
"image-button-response","589","477596","0.0-13.0-2.176","90","Low_HMMActual","","","","","","null","","","","Images/BlackBeadChoiceWrong.png","","null"
"image-button-response","590","477779","0.0-13.0-0.177","90","Low_HMMActual","","","","","","178.9100000000908","","","","Images/NewTrialWC.png","","0"
"image-button-response","591","478088","0.0-13.0-1.177","90","Low_HMMActual","","","","","","null","","","","Images/BlackBeadChoice.png","","null"
"image-button-response","592","478592","0.0-13.0-2.177","90","Low_HMMActual","","","","","","null","","","","Images/BlackBeadChoiceWrong.png","","null"
"image-button-response","593","478932","0.0-13.0-0.178","90","Low_HMMActual","","","","","","335.79000000009546","","","","Images/NewTrialWC.png","","0"
"image-button-response","594","479237","0.0-13.0-1.178","90","Low_HMMActual","","","","","","null","","","","Images/BlackBeadChoice.png","","null"
"image-button-response","595","479740","0.0-13.0-2.178","90","Low_HMMActual","","","","","","null","","","","Images/BlackBeadChoiceCorrect.png","","null"
"image-button-response","596","480157","0.0-13.0-0.179","90","Low_HMMActual","","","","","","410.77499999984866","","","","Images/NewTrialBC.png","","0"
"image-button-response","597","480460","0.0-13.0-1.179","90","Low_HMMActual","","","","","","null","","","","Images/BlackBeadChoice.png","","null"
"image-button-response","598","480964","0.0-13.0-2.179","90","Low_HMMActual","","","","","","null","","","","Images/BlackBeadChoiceWrong.png","","null"
"image-button-response","599","481449","0.0-13.0-0.180","90","Low_HMMActual","","","","","","482.6200000002282","","","","Images/NewTrialWC.png","","0"
"image-button-response","600","481751","0.0-13.0-1.180","90","Low_HMMActual","","","","","","null","","","","Images/BlackBeadChoice.png","","null"
"image-button-response","601","482255","0.0-13.0-2.180","90","Low_HMMActual","","","","","","null","","","","Images/BlackBeadChoiceWrong.png","","null"
"image-button-response","602","482809","0.0-13.0-0.181","90","Low_HMMActual","","","","","","550.0950000000303","","","","Images/NewTrialWC.png","","0"
"image-button-response","603","483113","0.0-13.0-1.181","90","Low_HMMActual","","","","","","null","","","","Images/BlackBeadChoice.png","","null"
"image-button-response","604","483618","0.0-13.0-2.181","90","Low_HMMActual","","","","","","null","","","","Images/BlackBeadChoiceWrong.png","","null"
"image-button-response","605","484093","0.0-13.0-0.182","90","Low_HMMActual","","","","","","471.5249999999651","","","","Images/NewTrialWC.png","","0"
"image-button-response","606","484406","0.0-13.0-1.182","90","Low_HMMActual","","","","","","null","","","","Images/BlackBeadChoice.png","","null"
"image-button-response","607","484910","0.0-13.0-2.182","90","Low_HMMActual","","","","","","null","","","","Images/BlackBeadChoiceCorrect.png","","null"
"image-button-response","608","485149","0.0-13.0-0.183","90","Low_HMMActual","","","","","","234.93499999993946","","","","Images/NewTrialBC.png","","0"
"image-button-response","609","485455","0.0-13.0-1.183","90","Low_HMMActual","","","","","","null","","","","Images/BlackBeadChoice.png","","null"
"image-button-response","610","485960","0.0-13.0-2.183","90","Low_HMMActual","","","","","","null","","","","Images/BlackBeadChoiceWrong.png","","null"
"image-button-response","611","486198","0.0-13.0-0.184","90","Low_HMMActual","","","","","","234.04000000027008","","","","Images/NewTrialWC.png","","0"
"image-button-response","612","486503","0.0-13.0-1.184","90","Low_HMMActual","","","","","","null","","","","Images/BlackBeadChoice.png","","null"
"image-button-response","613","487007","0.0-13.0-2.184","90","Low_HMMActual","","","","","","null","","","","Images/BlackBeadChoiceWrong.png","","null"
"image-button-response","614","487273","0.0-13.0-0.185","90","Low_HMMActual","","","","","","260.9550000001909","","","","Images/NewTrialWC.png","","0"
"image-button-response","615","487575","0.0-13.0-1.185","90","Low_HMMActual","","","","","","null","","","","Images/BlackBeadChoice.png","","null"
"image-button-response","616","488080","0.0-13.0-2.185","90","Low_HMMActual","","","","","","null","","","","Images/BlackBeadChoiceCorrect.png","","null"
"image-button-response","617","488318","0.0-13.0-0.186","90","Low_HMMActual","","","","","","233.3249999996624","","","","Images/NewTrialBC.png","","0"
"image-button-response","618","488627","0.0-13.0-1.186","90","Low_HMMActual","","","","","","null","","","","Images/BlackBeadChoice.png","","null"
"image-button-response","619","489132","0.0-13.0-2.186","90","Low_HMMActual","","","","","","null","","","","Images/BlackBeadChoiceWrong.png","","null"
"image-button-response","620","490140","0.0-13.0-0.187","90","Low_HMMActual","","","","","","1003.8350000004284","","","","Images/NewTrialWC.png","","0"
"image-button-response","621","490445","0.0-13.0-1.187","90","Low_HMMActual","","","","","","null","","","","Images/BlackBeadChoice.png","","null"
"image-button-response","622","490948","0.0-13.0-2.187","90","Low_HMMActual","","","","","","null","","","","Images/BlackBeadChoiceWrong.png","","null"
"image-button-response","623","491912","0.0-13.0-0.188","90","Low_HMMActual","","","","","","961.4949999999953","","","","Images/NewTrialWC.png","","0"
"image-button-response","624","492219","0.0-13.0-1.188","90","Low_HMMActual","","","","","","null","","","","Images/BlackBeadChoice.png","","null"
"image-button-response","625","492723","0.0-13.0-2.188","90","Low_HMMActual","","","","","","null","","","","Images/BlackBeadChoiceWrong.png","","null"
"image-button-response","626","493509","0.0-13.0-0.189","90","Low_HMMActual","","","","","","780.9799999999814","","","","Images/NewTrialWC.png","","0"
"image-button-response","627","493814","0.0-13.0-1.189","90","Low_HMMActual","","","","","","null","","","","Images/BlackBeadChoice.png","","null"
"image-button-response","628","494318","0.0-13.0-2.189","90","Low_HMMActual","","","","","","null","","","","Images/BlackBeadChoiceCorrect.png","","null"
"image-button-response","629","494562","0.0-13.0-0.190","90","Low_HMMActual","","","","","","238.68999999965308","","","","Images/NewTrialBC.png","","0"
"image-button-response","630","494865","0.0-13.0-1.190","90","Low_HMMActual","","","","","","null","","","","Images/BlackBeadChoice.png","","null"
"image-button-response","631","495369","0.0-13.0-2.190","90","Low_HMMActual","","","","","","null","","","","Images/BlackBeadChoiceWrong.png","","null"
"image-button-response","632","495696","0.0-13.0-0.191","90","Low_HMMActual","","","","","","323.02499999967404","","","","Images/NewTrialWC.png","","0"
"image-button-response","633","496000","0.0-13.0-1.191","90","Low_HMMActual","","","","","","null","","","","Images/BlackBeadChoice.png","","null"
"image-button-response","634","496504","0.0-13.0-2.191","90","Low_HMMActual","","","","","","null","","","","Images/BlackBeadChoiceWrong.png","","null"
"image-button-response","635","496663","0.0-13.0-0.192","90","Low_HMMActual","","","","","","156.54499999980908","","","","Images/NewTrialWC.png","","0"
"image-button-response","636","496967","0.0-13.0-1.192","90","Low_HMMActual","","","","","","null","","","","Images/BlackBeadChoice.png","","null"
"image-button-response","637","497470","0.0-13.0-2.192","90","Low_HMMActual","","","","","","null","","","","Images/BlackBeadChoiceWrong.png","","null"
"image-button-response","638","497837","0.0-13.0-0.193","90","Low_HMMActual","","","","","","362.5650000003516","","","","Images/NewTrialWC.png","","0"
"image-button-response","639","498141","0.0-13.0-1.193","90","Low_HMMActual","","","","","","null","","","","Images/BlackBeadChoice.png","","null"
"image-button-response","640","498651","0.0-13.0-2.193","90","Low_HMMActual","","","","","","null","","","","Images/BlackBeadChoiceCorrect.png","","null"
"image-button-response","641","499922","0.0-13.0-0.194","90","Low_HMMActual","","","","","","1267.0149999998976","","","","Images/NewTrialBC.png","","0"
"image-button-response","642","500227","0.0-13.0-1.194","90","Low_HMMActual","","","","","","null","","","","Images/BlackBeadChoice.png","","null"
"image-button-response","643","500731","0.0-13.0-2.194","90","Low_HMMActual","","","","","","null","","","","Images/BlackBeadChoiceWrong.png","","null"
"image-button-response","644","501205","0.0-13.0-0.195","90","Low_HMMActual","","","","","","469.7249999999185","","","","Images/NewTrialWC.png","","0"
"image-button-response","645","501510","0.0-13.0-1.195","90","Low_HMMActual","","","","","","null","","","","Images/BlackBeadChoice.png","","null"
"image-button-response","646","502023","0.0-13.0-2.195","90","Low_HMMActual","","","","","","null","","","","Images/BlackBeadChoiceWrong.png","","null"
"image-button-response","647","502248","0.0-13.0-0.196","90","Low_HMMActual","","","","","","222.2400000000489","","","","Images/NewTrialWC.png","","0"
"image-button-response","648","502553","0.0-13.0-1.196","90","Low_HMMActual","","","","","","null","","","","Images/BlackBeadChoice.png","","null"
"image-button-response","649","503059","0.0-13.0-2.196","90","Low_HMMActual","","","","","","null","","","","Images/BlackBeadChoiceWrong.png","","null"
"image-button-response","650","503234","0.0-13.0-0.197","90","Low_HMMActual","","","","","","171.40499999956228","","","","Images/NewTrialWC.png","","0"
"image-button-response","651","503541","0.0-13.0-1.197","90","Low_HMMActual","","","","","","null","","","","Images/BlackBeadChoice.png","","null"
"image-button-response","652","504046","0.0-13.0-2.197","90","Low_HMMActual","","","","","","null","","","","Images/BlackBeadChoiceWrong.png","","null"
"image-button-response","653","504222","0.0-13.0-0.198","90","Low_HMMActual","","","","","","172.96499999979278","","","","Images/NewTrialWC.png","","0"
"image-button-response","654","504527","0.0-13.0-1.198","90","Low_HMMActual","","","","","","null","","","","Images/BlackBeadChoice.png","","null"
"image-button-response","655","505031","0.0-13.0-2.198","90","Low_HMMActual","","","","","","null","","","","Images/BlackBeadChoiceWrong.png","","null"
"image-button-response","656","506027","0.0-13.0-0.199","90","Low_HMMActual","","","","","","993.609999999986","","","","Images/NewTrialWC.png","","0"
"image-button-response","657","506331","0.0-13.0-1.199","90","Low_HMMActual","","","","","","null","","","","Images/BlackBeadChoice.png","","null"
