"trial_type","trial_index","time_elapsed","internal_node_id","Script_Picker","Block_Type","success","timeout","failed_images","failed_audio","failed_video","rt","url","responses","question_order","stimulus","key_press","response"
"pavlovia","0","3","0.0-0.0","55","High_HMMActual","","","","","","","","","","","",""
"preload","1","4","0.0-1.0","55","High_HMMActual","true","false","[]","[]","[]","","","","","","",""
"external-html","2","4077","0.0-2.0-0.0","55","High_HMMActual","","","","","","3926.1850000002596","consent.html","","","","",""
"survey-multi-choice","3","25979","0.0-2.0-1.0","55","High_HMMActual","","","","","","21900.139999999737","","{""Q0"":""Female"",""Q1"":""White""}","[0,1]","","",""
"survey-text","4","31229","0.0-2.0-2.0","55","High_HMMActual","","","","","","5243.840000000091","","{""Q0"":""20""}","","","",""
"survey-text","5","39166","0.0-2.0-3.0","55","High_HMMActual","","","","","","7832.465000000411","","{""Q0"":""5eed14f9c71a701260df7784""}","","","",""
"image-keyboard-response","6","55922","0.0-3.0-0.0","55","High_HMMActual","","","","","","16652.970000000096","","","","tutorial/tutorial1.png"," ",""
"image-keyboard-response","7","82609","0.0-3.0-0.1","55","High_HMMActual","","","","","","26685.92499999977","","","","tutorial/tutorial2.png"," ",""
"image-keyboard-response","8","86439","0.0-3.0-0.2","55","High_HMMActual","","","","","","3829.589999999371","","","","tutorial/tutorial3.png"," ",""
"image-keyboard-response","9","88875","0.0-3.0-0.3","55","High_HMMActual","","","","","","2435.0299999996496","","","","tutorial/tutorial4.png"," ",""
"image-keyboard-response","10","91491","0.0-3.0-0.4","55","High_HMMActual","","","","","","2616.329999999827","","","","tutorial/tutorial5.png"," ",""
"image-keyboard-response","11","119334","0.0-3.0-0.5","55","High_HMMActual","","","","","","27842.0699999997","","","","tutorial/tutorial6.png"," ",""
"image-keyboard-response","12","123464","0.0-3.0-0.6","55","High_HMMActual","","","","","","4129.525000000285","","","","tutorial/tutorial7.png"," ",""
"image-keyboard-response","13","136905","0.0-3.0-0.7","55","High_HMMActual","","","","","","13440.465000000579","","","","tutorial/tutorial8.png"," ",""
"image-keyboard-response","14","143656","0.0-3.0-0.8","55","High_HMMActual","","","","","","6750.489999999438","","","","tutorial/tutorial9.png"," ",""
"image-keyboard-response","15","153998","0.0-3.0-0.9","55","High_HMMActual","","","","","","10341.060000000638","","","","tutorial/tutorial10.png"," ",""
"image-keyboard-response","16","157158","0.0-3.0-0.10","55","High_HMMActual","","","","","","3159.424999999843","","","","tutorial/tutorial11.png"," ",""
"image-keyboard-response","17","162635","0.0-3.0-0.11","55","High_HMMActual","","","","","","5477.439999999653","","","","tutorial/tutorial12.png"," ",""
"image-keyboard-response","18","173001","0.0-3.0-0.12","55","High_HMMActual","","","","","","10364.559999999969","","","","tutorial/tutorial13.png"," ",""
"image-keyboard-response","19","183918","0.0-3.0-0.13","55","High_HMMActual","","","","","","10917.194999999978","","","","tutorial/tutorial14.png"," ",""
"image-keyboard-response","20","185989","0.0-3.0-0.14","55","High_HMMActual","","","","","","2070.810000000143","","","","tutorial/tutorial15.png"," ",""
"image-keyboard-response","21","191635","0.0-4.0","55","High_HMMActual","","","","","","5644.765000000014","","","","tutorial/tutorial16.png","arrowup",""
"image-keyboard-response","22","197559","0.0-5.0","55","High_HMMActual","","","","","","3799.4150000004156","","","","tutorial/tutorial17.png","arrowright",""
"image-keyboard-response","23","204539","0.0-6.0","55","High_HMMActual","","","","","","5343.060000000143","","","","tutorial/tutorial18.png","arrowright",""
"image-keyboard-response","24","216685","0.0-7.0","55","High_HMMActual","","","","","","10485.179999999673","","","","tutorial/tutorial19.png"," ",""
"html-keyboard-response","25","226709","0.0-8.0","55","High_HMMActual","","","","","","10022.544999999809","","","","<div class=""container"" style=""height:800px;width:800px;display:flex;flex-direction:column;justify-content:center;align-items:center;text-align:center;font-weight:normal;font-family:Arial;font-size:20px""><p>Loading episode&hellip;</p><div>"," ",""
"image-button-response","26","236644","0.0-9.0-0.0","55","High_HMMActual","","","","","","9933.420000000275","","","","Images/NoChoice.png","","0"
"image-button-response","27","236946","0.0-9.0-1.0","55","High_HMMActual","","","","","","null","","","","Images/BlackBeadChoice.png","","null"
"image-button-response","28","237448","0.0-9.0-2.0","55","High_HMMActual","","","","","","null","","","","Images/BlackBeadChoiceWrong.png","","null"
"image-button-response","29","245441","0.0-9.0-0.1","55","High_HMMActual","","","","","","7992.65000000014","","","","Images/NewTrialWC.png","","0"
"image-button-response","30","245743","0.0-9.0-1.1","55","High_HMMActual","","","","","","null","","","","Images/BlackBeadChoice.png","","null"
"image-button-response","31","246245","0.0-9.0-2.1","55","High_HMMActual","","","","","","null","","","","Images/BlackBeadChoiceCorrect.png","","null"
"image-button-response","32","250421","0.0-9.0-0.2","55","High_HMMActual","","","","","","4175.11500000002","","","","Images/NewTrialBC.png","","2"
"image-button-response","33","250724","0.0-9.0-1.2","55","High_HMMActual","","","","","","null","","","","Images/WhiteBeadChoice.png","","null"
"image-button-response","34","251226","0.0-9.0-2.2","55","High_HMMActual","","","","","","null","","","","Images/WhiteBeadChoiceCorrect.png","","null"
"image-button-response","35","253554","0.0-9.0-0.3","55","High_HMMActual","","","","","","2326.425000000192","","","","Images/NewTrialWC.png","","0"
"image-button-response","36","253855","0.0-9.0-1.3","55","High_HMMActual","","","","","","null","","","","Images/BlackBeadChoice.png","","null"
"image-button-response","37","254357","0.0-9.0-2.3","55","High_HMMActual","","","","","","null","","","","Images/BlackBeadChoiceCorrect.png","","null"
"image-button-response","38","255886","0.0-9.0-0.4","55","High_HMMActual","","","","","","1527.0549999995565","","","","Images/NewTrialBC.png","","2"
"image-button-response","39","256187","0.0-9.0-1.4","55","High_HMMActual","","","","","","null","","","","Images/WhiteBeadChoice.png","","null"
"image-button-response","40","256689","0.0-9.0-2.4","55","High_HMMActual","","","","","","null","","","","Images/WhiteBeadChoiceWrong.png","","null"
"image-button-response","41","257826","0.0-9.0-0.5","55","High_HMMActual","","","","","","1135.0000000002328","","","","Images/NewTrialBC.png","","2"
"image-button-response","42","258127","0.0-9.0-1.5","55","High_HMMActual","","","","","","null","","","","Images/WhiteBeadChoice.png","","null"
"image-button-response","43","258629","0.0-9.0-2.5","55","High_HMMActual","","","","","","null","","","","Images/WhiteBeadChoiceWrong.png","","null"
"image-button-response","44","262751","0.0-9.0-0.6","55","High_HMMActual","","","","","","4120.860000000015","","","","Images/NewTrialBC.png","","2"
"image-button-response","45","263053","0.0-9.0-1.6","55","High_HMMActual","","","","","","null","","","","Images/WhiteBeadChoice.png","","null"
"image-button-response","46","263554","0.0-9.0-2.6","55","High_HMMActual","","","","","","null","","","","Images/WhiteBeadChoiceWrong.png","","null"
"image-button-response","47","266878","0.0-9.0-0.7","55","High_HMMActual","","","","","","3321.9500000004773","","","","Images/NewTrialBC.png","","3"
"image-button-response","48","267180","0.0-9.0-1.7","55","High_HMMActual","","","","","","null","","","","Images/WhiteBeadChoice.png","","null"
"image-button-response","49","267681","0.0-9.0-2.7","55","High_HMMActual","","","","","","null","","","","Images/WhiteBeadChoiceWrong.png","","null"
"image-button-response","50","274474","0.0-9.0-0.8","55","High_HMMActual","","","","","","6790.850000000326","","","","Images/NewTrialBC.png","","2"
"image-button-response","51","274776","0.0-9.0-1.8","55","High_HMMActual","","","","","","null","","","","Images/WhiteBeadChoice.png","","null"
"image-button-response","52","275280","0.0-9.0-2.8","55","High_HMMActual","","","","","","null","","","","Images/WhiteBeadChoiceCorrect.png","","null"
"image-button-response","53","278455","0.0-9.0-0.9","55","High_HMMActual","","","","","","3174.7249999998603","","","","Images/NewTrialWC.png","","2"
"image-button-response","54","278758","0.0-9.0-1.9","55","High_HMMActual","","","","","","null","","","","Images/WhiteBeadChoice.png","","null"
"image-button-response","55","279260","0.0-9.0-2.9","55","High_HMMActual","","","","","","null","","","","Images/WhiteBeadChoiceWrong.png","","null"
"html-keyboard-response","56","282072","0.0-10.0","55","High_HMMActual","","","","","","2810.980000000214","","","",""," ",""
"image-keyboard-response","57","284043","0.0-11.0","55","High_HMMActual","","","","","","1970.9800000000396","","","","tutorial/tutorial20.png"," ",""
"html-keyboard-response","58","290277","0.0-12.0","55","High_HMMActual","","","","","","6232.6149999999325","","","","<div class=""container"" style=""height:800px;width:800px;display:flex;flex-direction:column;justify-content:center;align-items:center;text-align:center;font-weight:normal;font-family:Arial;font-size:20px""><p>Loading episode&hellip;</p><div>"," ",""
"image-button-response","59","295578","0.0-13.0-0.0","55","High_HMMActual","","","","","","5299.870000000752","","","","Images/NoChoice.png","","0"
"image-button-response","60","295880","0.0-13.0-1.0","55","High_HMMActual","","","","","","null","","","","Images/BlackBeadChoice.png","","null"
"image-button-response","61","296382","0.0-13.0-2.0","55","High_HMMActual","","","","","","null","","","","Images/BlackBeadChoiceWrong.png","","null"
"image-button-response","62","297968","0.0-13.0-0.1","55","High_HMMActual","","","","","","1584.615000000631","","","","Images/NewTrialWC.png","","0"
"image-button-response","63","298270","0.0-13.0-1.1","55","High_HMMActual","","","","","","null","","","","Images/BlackBeadChoice.png","","null"
"image-button-response","64","298772","0.0-13.0-2.1","55","High_HMMActual","","","","","","null","","","","Images/BlackBeadChoiceCorrect.png","","null"
"image-button-response","65","299988","0.0-13.0-0.2","55","High_HMMActual","","","","","","1214.4149999994552","","","","Images/NewTrialBC.png","","2"
"image-button-response","66","300290","0.0-13.0-1.2","55","High_HMMActual","","","","","","null","","","","Images/WhiteBeadChoice.png","","null"
"image-button-response","67","300792","0.0-13.0-2.2","55","High_HMMActual","","","","","","null","","","","Images/WhiteBeadChoiceCorrect.png","","null"
"image-button-response","68","302071","0.0-13.0-0.3","55","High_HMMActual","","","","","","1277.8250000000698","","","","Images/NewTrialWC.png","","0"
"image-button-response","69","302373","0.0-13.0-1.3","55","High_HMMActual","","","","","","null","","","","Images/BlackBeadChoice.png","","null"
"image-button-response","70","302875","0.0-13.0-2.3","55","High_HMMActual","","","","","","null","","","","Images/BlackBeadChoiceCorrect.png","","null"
"image-button-response","71","304148","0.0-13.0-0.4","55","High_HMMActual","","","","","","1270.8000000002212","","","","Images/NewTrialBC.png","","2"
"image-button-response","72","304450","0.0-13.0-1.4","55","High_HMMActual","","","","","","null","","","","Images/WhiteBeadChoice.png","","null"
"image-button-response","73","304951","0.0-13.0-2.4","55","High_HMMActual","","","","","","null","","","","Images/WhiteBeadChoiceWrong.png","","null"
"image-button-response","74","305941","0.0-13.0-0.5","55","High_HMMActual","","","","","","988.4000000001979","","","","Images/NewTrialBC.png","","0"
"image-button-response","75","306243","0.0-13.0-1.5","55","High_HMMActual","","","","","","null","","","","Images/BlackBeadChoice.png","","null"
"image-button-response","76","306760","0.0-13.0-2.5","55","High_HMMActual","","","","","","null","","","","Images/BlackBeadChoiceCorrect.png","","null"
"image-button-response","77","307498","0.0-13.0-0.6","55","High_HMMActual","","","","","","735.6850000005797","","","","Images/NewTrialBC.png","","0"
"image-button-response","78","307799","0.0-13.0-1.6","55","High_HMMActual","","","","","","null","","","","Images/BlackBeadChoice.png","","null"
"image-button-response","79","308302","0.0-13.0-2.6","55","High_HMMActual","","","","","","null","","","","Images/BlackBeadChoiceCorrect.png","","null"
"image-button-response","80","309011","0.0-13.0-0.7","55","High_HMMActual","","","","","","708.050000000163","","","","Images/NewTrialBC.png","","0"
"image-button-response","81","309316","0.0-13.0-1.7","55","High_HMMActual","","","","","","null","","","","Images/BlackBeadChoice.png","","null"
"image-button-response","82","309819","0.0-13.0-2.7","55","High_HMMActual","","","","","","null","","","","Images/BlackBeadChoiceCorrect.png","","null"
"image-button-response","83","311098","0.0-13.0-0.8","55","High_HMMActual","","","","","","1277.1100000000442","","","","Images/NewTrialBC.png","","0"
"image-button-response","84","311400","0.0-13.0-1.8","55","High_HMMActual","","","","","","null","","","","Images/BlackBeadChoice.png","","null"
"image-button-response","85","311901","0.0-13.0-2.8","55","High_HMMActual","","","","","","null","","","","Images/BlackBeadChoiceWrong.png","","null"
"image-button-response","86","312763","0.0-13.0-0.9","55","High_HMMActual","","","","","","860.8249999997206","","","","Images/NewTrialWC.png","","2"
"image-button-response","87","313066","0.0-13.0-1.9","55","High_HMMActual","","","","","","null","","","","Images/WhiteBeadChoice.png","","null"
"image-button-response","88","313567","0.0-13.0-2.9","55","High_HMMActual","","","","","","null","","","","Images/WhiteBeadChoiceWrong.png","","null"
"image-button-response","89","314645","0.0-13.0-0.10","55","High_HMMActual","","","","","","1077.229999999865","","","","Images/NewTrialBC.png","","2"
"image-button-response","90","314948","0.0-13.0-1.10","55","High_HMMActual","","","","","","null","","","","Images/WhiteBeadChoice.png","","null"
"image-button-response","91","315450","0.0-13.0-2.10","55","High_HMMActual","","","","","","null","","","","Images/WhiteBeadChoiceWrong.png","","null"
"image-button-response","92","317146","0.0-13.0-0.11","55","High_HMMActual","","","","","","1694.395000000426","","","","Images/NewTrialBC.png","","2"
"image-button-response","93","317448","0.0-13.0-1.11","55","High_HMMActual","","","","","","null","","","","Images/WhiteBeadChoice.png","","null"
"image-button-response","94","317950","0.0-13.0-2.11","55","High_HMMActual","","","","","","null","","","","Images/WhiteBeadChoiceWrong.png","","null"
"image-button-response","95","318443","0.0-13.0-0.12","55","High_HMMActual","","","","","","491.8750000006403","","","","Images/NewTrialBC.png","","0"
"image-button-response","96","318745","0.0-13.0-1.12","55","High_HMMActual","","","","","","null","","","","Images/BlackBeadChoice.png","","null"
"image-button-response","97","319247","0.0-13.0-2.12","55","High_HMMActual","","","","","","null","","","","Images/BlackBeadChoiceWrong.png","","null"
"image-button-response","98","320994","0.0-13.0-0.13","55","High_HMMActual","","","","","","1745.4299999999348","","","","Images/NewTrialWC.png","","0"
"image-button-response","99","321296","0.0-13.0-1.13","55","High_HMMActual","","","","","","null","","","","Images/BlackBeadChoice.png","","null"
"image-button-response","100","321799","0.0-13.0-2.13","55","High_HMMActual","","","","","","null","","","","Images/BlackBeadChoiceCorrect.png","","null"
"image-button-response","101","322555","0.0-13.0-0.14","55","High_HMMActual","","","","","","754.859999999986","","","","Images/NewTrialBC.png","","0"
"image-button-response","102","322867","0.0-13.0-1.14","55","High_HMMActual","","","","","","null","","","","Images/BlackBeadChoice.png","","null"
"image-button-response","103","323368","0.0-13.0-2.14","55","High_HMMActual","","","","","","null","","","","Images/BlackBeadChoiceWrong.png","","null"
"image-button-response","104","323845","0.0-13.0-0.15","55","High_HMMActual","","","","","","475.92500000068685","","","","Images/NewTrialWC.png","","2"
"image-button-response","105","324146","0.0-13.0-1.15","55","High_HMMActual","","","","","","null","","","","Images/WhiteBeadChoice.png","","null"
"image-button-response","106","324649","0.0-13.0-2.15","55","High_HMMActual","","","","","","null","","","","Images/WhiteBeadChoiceCorrect.png","","null"
"image-button-response","107","325623","0.0-13.0-0.16","55","High_HMMActual","","","","","","973.3699999997043","","","","Images/NewTrialWC.png","","2"
"image-button-response","108","325925","0.0-13.0-1.16","55","High_HMMActual","","","","","","null","","","","Images/WhiteBeadChoice.png","","null"
"image-button-response","109","326428","0.0-13.0-2.16","55","High_HMMActual","","","","","","null","","","","Images/WhiteBeadChoiceCorrect.png","","null"
"image-button-response","110","326513","0.0-13.0-0.17","55","High_HMMActual","","","","","","84.49999999994179","","","","Images/NewTrialWC.png","","2"
"image-button-response","111","326815","0.0-13.0-1.17","55","High_HMMActual","","","","","","null","","","","Images/WhiteBeadChoice.png","","null"
"image-button-response","112","327317","0.0-13.0-2.17","55","High_HMMActual","","","","","","null","","","","Images/WhiteBeadChoiceCorrect.png","","null"
"image-button-response","113","328093","0.0-13.0-0.18","55","High_HMMActual","","","","","","775.0299999997951","","","","Images/NewTrialWC.png","","2"
"image-button-response","114","328396","0.0-13.0-1.18","55","High_HMMActual","","","","","","null","","","","Images/WhiteBeadChoice.png","","null"
"image-button-response","115","328897","0.0-13.0-2.18","55","High_HMMActual","","","","","","null","","","","Images/WhiteBeadChoiceWrong.png","","null"
"image-button-response","116","329975","0.0-13.0-0.19","55","High_HMMActual","","","","","","1076.514999999723","","","","Images/NewTrialBC.png","","0"
"image-button-response","117","330277","0.0-13.0-1.19","55","High_HMMActual","","","","","","null","","","","Images/BlackBeadChoice.png","","null"
"image-button-response","118","330778","0.0-13.0-2.19","55","High_HMMActual","","","","","","null","","","","Images/BlackBeadChoiceCorrect.png","","null"
"image-button-response","119","331196","0.0-13.0-0.20","55","High_HMMActual","","","","","","416.7550000001793","","","","Images/NewTrialBC.png","","0"
"image-button-response","120","331499","0.0-13.0-1.20","55","High_HMMActual","","","","","","null","","","","Images/BlackBeadChoice.png","","null"
"image-button-response","121","332001","0.0-13.0-2.20","55","High_HMMActual","","","","","","null","","","","Images/BlackBeadChoiceWrong.png","","null"
"image-button-response","122","332597","0.0-13.0-0.21","55","High_HMMActual","","","","","","587.7099999997881","","","","Images/NewTrialWC.png","","2"
"image-button-response","123","332900","0.0-13.0-1.21","55","High_HMMActual","","","","","","null","","","","Images/WhiteBeadChoice.png","","null"
"image-button-response","124","333402","0.0-13.0-2.21","55","High_HMMActual","","","","","","null","","","","Images/WhiteBeadChoiceWrong.png","","null"
"image-button-response","125","335080","0.0-13.0-0.22","55","High_HMMActual","","","","","","1676.080000000191","","","","Images/NewTrialBC.png","","0"
"image-button-response","126","335382","0.0-13.0-1.22","55","High_HMMActual","","","","","","null","","","","Images/BlackBeadChoice.png","","null"
"image-button-response","127","335884","0.0-13.0-2.22","55","High_HMMActual","","","","","","null","","","","Images/BlackBeadChoiceWrong.png","","null"
"image-button-response","128","337131","0.0-13.0-0.23","55","High_HMMActual","","","","","","1245.34999999922","","","","Images/NewTrialWC.png","","0"
"image-button-response","129","337433","0.0-13.0-1.23","55","High_HMMActual","","","","","","null","","","","Images/BlackBeadChoice.png","","null"
"image-button-response","130","337934","0.0-13.0-2.23","55","High_HMMActual","","","","","","null","","","","Images/BlackBeadChoiceCorrect.png","","null"
"image-button-response","131","339357","0.0-13.0-0.24","55","High_HMMActual","","","","","","1421.5300000005518","","","","Images/NewTrialBC.png","","0"
"image-button-response","132","339659","0.0-13.0-1.24","55","High_HMMActual","","","","","","null","","","","Images/BlackBeadChoice.png","","null"
"image-button-response","133","340160","0.0-13.0-2.24","55","High_HMMActual","","","","","","null","","","","Images/BlackBeadChoiceWrong.png","","null"
"image-button-response","134","341065","0.0-13.0-0.25","55","High_HMMActual","","","","","","903.3699999999953","","","","Images/NewTrialWC.png","","2"
"image-button-response","135","341367","0.0-13.0-1.25","55","High_HMMActual","","","","","","null","","","","Images/WhiteBeadChoice.png","","null"
"image-button-response","136","341877","0.0-13.0-2.25","55","High_HMMActual","","","","","","null","","","","Images/WhiteBeadChoiceCorrect.png","","null"
"image-button-response","137","342187","0.0-13.0-0.26","55","High_HMMActual","","","","","","308.8650000008638","","","","Images/NewTrialWC.png","","2"
"image-button-response","138","342489","0.0-13.0-1.26","55","High_HMMActual","","","","","","null","","","","Images/WhiteBeadChoice.png","","null"
"image-button-response","139","342999","0.0-13.0-2.26","55","High_HMMActual","","","","","","null","","","","Images/WhiteBeadChoiceCorrect.png","","null"
"image-button-response","140","343895","0.0-13.0-0.27","55","High_HMMActual","","","","","","894.2800000004354","","","","Images/NewTrialWC.png","","2"
"image-button-response","141","344197","0.0-13.0-1.27","55","High_HMMActual","","","","","","null","","","","Images/WhiteBeadChoice.png","","null"
"image-button-response","142","344699","0.0-13.0-2.27","55","High_HMMActual","","","","","","null","","","","Images/WhiteBeadChoiceCorrect.png","","null"
"image-button-response","143","345345","0.0-13.0-0.28","55","High_HMMActual","","","","","","644.9050000001444","","","","Images/NewTrialWC.png","","2"
"image-button-response","144","345647","0.0-13.0-1.28","55","High_HMMActual","","","","","","null","","","","Images/WhiteBeadChoice.png","","null"
"image-button-response","145","346150","0.0-13.0-2.28","55","High_HMMActual","","","","","","null","","","","Images/WhiteBeadChoiceWrong.png","","null"
"image-button-response","146","347011","0.0-13.0-0.29","55","High_HMMActual","","","","","","860.0850000002538","","","","Images/NewTrialBC.png","","0"
"image-button-response","147","347314","0.0-13.0-1.29","55","High_HMMActual","","","","","","null","","","","Images/BlackBeadChoice.png","","null"
"image-button-response","148","347816","0.0-13.0-2.29","55","High_HMMActual","","","","","","null","","","","Images/BlackBeadChoiceCorrect.png","","null"
"image-button-response","149","347973","0.0-13.0-0.30","55","High_HMMActual","","","","","","156.33500000054482","","","","Images/NewTrialBC.png","","0"
"image-button-response","150","348276","0.0-13.0-1.30","55","High_HMMActual","","","","","","null","","","","Images/BlackBeadChoice.png","","null"
"image-button-response","151","348778","0.0-13.0-2.30","55","High_HMMActual","","","","","","null","","","","Images/BlackBeadChoiceWrong.png","","null"
"image-button-response","152","349311","0.0-13.0-0.31","55","High_HMMActual","","","","","","532.2249999999185","","","","Images/NewTrialWC.png","","2"
"image-button-response","153","349612","0.0-13.0-1.31","55","High_HMMActual","","","","","","null","","","","Images/WhiteBeadChoice.png","","null"
"image-button-response","154","350113","0.0-13.0-2.31","55","High_HMMActual","","","","","","null","","","","Images/WhiteBeadChoiceWrong.png","","null"
"image-button-response","155","365482","0.0-13.0-0.32","55","High_HMMActual","","","","","","15366.500000000116","","","","Images/NewTrialBC.png","","2"
"image-button-response","156","365783","0.0-13.0-1.32","55","High_HMMActual","","","","","","null","","","","Images/WhiteBeadChoice.png","","null"
"image-button-response","157","366284","0.0-13.0-2.32","55","High_HMMActual","","","","","","null","","","","Images/WhiteBeadChoiceWrong.png","","null"
"image-button-response","158","368838","0.0-13.0-0.33","55","High_HMMActual","","","","","","2552.0950000000303","","","","Images/NewTrialBC.png","","1"
"image-button-response","159","369140","0.0-13.0-1.33","55","High_HMMActual","","","","","","null","","","","Images/BlackBeadChoice.png","","null"
"image-button-response","160","369641","0.0-13.0-2.33","55","High_HMMActual","","","","","","null","","","","Images/BlackBeadChoiceCorrect.png","","null"
"image-button-response","161","371980","0.0-13.0-0.34","55","High_HMMActual","","","","","","2336.519999999844","","","","Images/NewTrialBC.png","","3"
"image-button-response","162","372282","0.0-13.0-1.34","55","High_HMMActual","","","","","","null","","","","Images/WhiteBeadChoice.png","","null"
"image-button-response","163","372784","0.0-13.0-2.34","55","High_HMMActual","","","","","","null","","","","Images/WhiteBeadChoiceWrong.png","","null"
"image-button-response","164","374264","0.0-13.0-0.35","55","High_HMMActual","","","","","","1477.9650000000256","","","","Images/NewTrialBC.png","","1"
"image-button-response","165","374566","0.0-13.0-1.35","55","High_HMMActual","","","","","","null","","","","Images/BlackBeadChoice.png","","null"
"image-button-response","166","375067","0.0-13.0-2.35","55","High_HMMActual","","","","","","null","","","","Images/BlackBeadChoiceCorrect.png","","null"
"image-button-response","167","376859","0.0-13.0-0.36","55","High_HMMActual","","","","","","1790.679999999178","","","","Images/NewTrialBC.png","","0"
"image-button-response","168","377162","0.0-13.0-1.36","55","High_HMMActual","","","","","","null","","","","Images/BlackBeadChoice.png","","null"
"image-button-response","169","377664","0.0-13.0-2.36","55","High_HMMActual","","","","","","null","","","","Images/BlackBeadChoiceWrong.png","","null"
"image-button-response","170","379159","0.0-13.0-0.37","55","High_HMMActual","","","","","","1494.045000000333","","","","Images/NewTrialWC.png","","2"
"image-button-response","171","379461","0.0-13.0-1.37","55","High_HMMActual","","","","","","null","","","","Images/WhiteBeadChoice.png","","null"
"image-button-response","172","379962","0.0-13.0-2.37","55","High_HMMActual","","","","","","null","","","","Images/WhiteBeadChoiceCorrect.png","","null"
"image-button-response","173","380572","0.0-13.0-0.38","55","High_HMMActual","","","","","","608.419999999518","","","","Images/NewTrialWC.png","","2"
"image-button-response","174","380874","0.0-13.0-1.38","55","High_HMMActual","","","","","","null","","","","Images/WhiteBeadChoice.png","","null"
"image-button-response","175","381385","0.0-13.0-2.38","55","High_HMMActual","","","","","","null","","","","Images/WhiteBeadChoiceCorrect.png","","null"
"image-button-response","176","383170","0.0-13.0-0.39","55","High_HMMActual","","","","","","1783.5000000004657","","","","Images/NewTrialWC.png","","2"
"image-button-response","177","383472","0.0-13.0-1.39","55","High_HMMActual","","","","","","null","","","","Images/WhiteBeadChoice.png","","null"
"image-button-response","178","383974","0.0-13.0-2.39","55","High_HMMActual","","","","","","null","","","","Images/WhiteBeadChoiceCorrect.png","","null"
"image-button-response","179","384766","0.0-13.0-0.40","55","High_HMMActual","","","","","","790.7450000002282","","","","Images/NewTrialWC.png","","2"
"image-button-response","180","385068","0.0-13.0-1.40","55","High_HMMActual","","","","","","null","","","","Images/WhiteBeadChoice.png","","null"
"image-button-response","181","385569","0.0-13.0-2.40","55","High_HMMActual","","","","","","null","","","","Images/WhiteBeadChoiceWrong.png","","null"
"image-button-response","182","387780","0.0-13.0-0.41","55","High_HMMActual","","","","","","2209.280000000028","","","","Images/NewTrialBC.png","","1"
"image-button-response","183","388082","0.0-13.0-1.41","55","High_HMMActual","","","","","","null","","","","Images/BlackBeadChoice.png","","null"
"image-button-response","184","388583","0.0-13.0-2.41","55","High_HMMActual","","","","","","null","","","","Images/BlackBeadChoiceWrong.png","","null"
"image-button-response","185","389142","0.0-13.0-0.42","55","High_HMMActual","","","","","","557.3749999994179","","","","Images/NewTrialWC.png","","1"
"image-button-response","186","389444","0.0-13.0-1.42","55","High_HMMActual","","","","","","null","","","","Images/BlackBeadChoice.png","","null"
"image-button-response","187","389946","0.0-13.0-2.42","55","High_HMMActual","","","","","","null","","","","Images/BlackBeadChoiceCorrect.png","","null"
"image-button-response","188","391274","0.0-13.0-0.43","55","High_HMMActual","","","","","","1326.845000000496","","","","Images/NewTrialBC.png","","0"
"image-button-response","189","391576","0.0-13.0-1.43","55","High_HMMActual","","","","","","null","","","","Images/BlackBeadChoice.png","","null"
"image-button-response","190","392078","0.0-13.0-2.43","55","High_HMMActual","","","","","","null","","","","Images/BlackBeadChoiceWrong.png","","null"
"image-button-response","191","395304","0.0-13.0-0.44","55","High_HMMActual","","","","","","3224.8349999999627","","","","Images/NewTrialWC.png","","3"
"image-button-response","192","395606","0.0-13.0-1.44","55","High_HMMActual","","","","","","null","","","","Images/WhiteBeadChoice.png","","null"
"image-button-response","193","396107","0.0-13.0-2.44","55","High_HMMActual","","","","","","null","","","","Images/WhiteBeadChoiceCorrect.png","","null"
"image-button-response","194","397212","0.0-13.0-0.45","55","High_HMMActual","","","","","","1102.8499999993364","","","","Images/NewTrialWC.png","","2"
"image-button-response","195","397514","0.0-13.0-1.45","55","High_HMMActual","","","","","","null","","","","Images/WhiteBeadChoice.png","","null"
"image-button-response","196","398015","0.0-13.0-2.45","55","High_HMMActual","","","","","","null","","","","Images/WhiteBeadChoiceWrong.png","","null"
"image-button-response","197","399158","0.0-13.0-0.46","55","High_HMMActual","","","","","","1140.955000000773","","","","Images/NewTrialBC.png","","3"
"image-button-response","198","399459","0.0-13.0-1.46","55","High_HMMActual","","","","","","null","","","","Images/WhiteBeadChoice.png","","null"
"image-button-response","199","399962","0.0-13.0-2.46","55","High_HMMActual","","","","","","null","","","","Images/WhiteBeadChoiceCorrect.png","","null"
"image-button-response","200","400824","0.0-13.0-0.47","55","High_HMMActual","","","","","","860.0850000002538","","","","Images/NewTrialWC.png","","2"
"image-button-response","201","401126","0.0-13.0-1.47","55","High_HMMActual","","","","","","null","","","","Images/WhiteBeadChoice.png","","null"
"image-button-response","202","401628","0.0-13.0-2.47","55","High_HMMActual","","","","","","null","","","","Images/WhiteBeadChoiceWrong.png","","null"
"image-button-response","203","403012","0.0-13.0-0.48","55","High_HMMActual","","","","","","1382.050000000163","","","","Images/NewTrialBC.png","","3"
"image-button-response","204","403314","0.0-13.0-1.48","55","High_HMMActual","","","","","","null","","","","Images/WhiteBeadChoice.png","","null"
"image-button-response","205","403816","0.0-13.0-2.48","55","High_HMMActual","","","","","","null","","","","Images/WhiteBeadChoiceCorrect.png","","null"
"image-button-response","206","404276","0.0-13.0-0.49","55","High_HMMActual","","","","","","458.5299999998533","","","","Images/NewTrialWC.png","","0"
"image-button-response","207","404583","0.0-13.0-1.49","55","High_HMMActual","","","","","","null","","","","Images/BlackBeadChoice.png","","null"
"image-button-response","208","405085","0.0-13.0-2.49","55","High_HMMActual","","","","","","null","","","","Images/BlackBeadChoiceCorrect.png","","null"
"image-button-response","209","406279","0.0-13.0-0.50","55","High_HMMActual","","","","","","1193.435000000114","","","","Images/NewTrialBC.png","","3"
"image-button-response","210","406581","0.0-13.0-1.50","55","High_HMMActual","","","","","","null","","","","Images/WhiteBeadChoice.png","","null"
"image-button-response","211","407082","0.0-13.0-2.50","55","High_HMMActual","","","","","","null","","","","Images/WhiteBeadChoiceCorrect.png","","null"
"image-button-response","212","407818","0.0-13.0-0.51","55","High_HMMActual","","","","","","734.2099999996135","","","","Images/NewTrialWC.png","","0"
"image-button-response","213","408120","0.0-13.0-1.51","55","High_HMMActual","","","","","","null","","","","Images/BlackBeadChoice.png","","null"
"image-button-response","214","408622","0.0-13.0-2.51","55","High_HMMActual","","","","","","null","","","","Images/BlackBeadChoiceWrong.png","","null"
"image-button-response","215","412018","0.0-13.0-0.52","55","High_HMMActual","","","","","","3393.9850000006263","","","","Images/NewTrialWC.png","","1"
"image-button-response","216","412321","0.0-13.0-1.52","55","High_HMMActual","","","","","","null","","","","Images/BlackBeadChoice.png","","null"
"image-button-response","217","412832","0.0-13.0-2.52","55","High_HMMActual","","","","","","null","","","","Images/BlackBeadChoiceWrong.png","","null"
"image-button-response","218","414222","0.0-13.0-0.53","55","High_HMMActual","","","","","","1387.510000000475","","","","Images/NewTrialWC.png","","1"
"image-button-response","219","414524","0.0-13.0-1.53","55","High_HMMActual","","","","","","null","","","","Images/BlackBeadChoice.png","","null"
"image-button-response","220","415026","0.0-13.0-2.53","55","High_HMMActual","","","","","","null","","","","Images/BlackBeadChoiceCorrect.png","","null"
"image-button-response","221","416778","0.0-13.0-0.54","55","High_HMMActual","","","","","","1750.530000001192","","","","Images/NewTrialBC.png","","1"
"image-button-response","222","417079","0.0-13.0-1.54","55","High_HMMActual","","","","","","null","","","","Images/BlackBeadChoice.png","","null"
"image-button-response","223","417581","0.0-13.0-2.54","55","High_HMMActual","","","","","","null","","","","Images/BlackBeadChoiceWrong.png","","null"
"image-button-response","224","420096","0.0-13.0-0.55","55","High_HMMActual","","","","","","2513.3500000010827","","","","Images/NewTrialWC.png","","3"
"image-button-response","225","420397","0.0-13.0-1.55","55","High_HMMActual","","","","","","null","","","","Images/WhiteBeadChoice.png","","null"
"image-button-response","226","420898","0.0-13.0-2.55","55","High_HMMActual","","","","","","null","","","","Images/WhiteBeadChoiceWrong.png","","null"
"image-button-response","227","421146","0.0-13.0-0.56","55","High_HMMActual","","","","","","246.2599999998929","","","","Images/NewTrialBC.png","","3"
"image-button-response","228","421448","0.0-13.0-1.56","55","High_HMMActual","","","","","","null","","","","Images/WhiteBeadChoice.png","","null"
"image-button-response","229","421950","0.0-13.0-2.56","55","High_HMMActual","","","","","","null","","","","Images/WhiteBeadChoiceCorrect.png","","null"
"image-button-response","230","423108","0.0-13.0-0.57","55","High_HMMActual","","","","","","1156.6949999996577","","","","Images/NewTrialWC.png","","1"
"image-button-response","231","423410","0.0-13.0-1.57","55","High_HMMActual","","","","","","null","","","","Images/BlackBeadChoice.png","","null"
"image-button-response","232","423912","0.0-13.0-2.57","55","High_HMMActual","","","","","","null","","","","Images/BlackBeadChoiceCorrect.png","","null"
"image-button-response","233","425216","0.0-13.0-0.58","55","High_HMMActual","","","","","","1301.9800000002142","","","","Images/NewTrialBC.png","","2"
"image-button-response","234","425517","0.0-13.0-1.58","55","High_HMMActual","","","","","","null","","","","Images/WhiteBeadChoice.png","","null"
"image-button-response","235","426018","0.0-13.0-2.58","55","High_HMMActual","","","","","","null","","","","Images/WhiteBeadChoiceCorrect.png","","null"
"image-button-response","236","427321","0.0-13.0-0.59","55","High_HMMActual","","","","","","1301.7449999988312","","","","Images/NewTrialWC.png","","0"
"image-button-response","237","427623","0.0-13.0-1.59","55","High_HMMActual","","","","","","null","","","","Images/BlackBeadChoice.png","","null"
"image-button-response","238","428125","0.0-13.0-2.59","55","High_HMMActual","","","","","","null","","","","Images/BlackBeadChoiceCorrect.png","","null"
"image-button-response","239","429461","0.0-13.0-0.60","55","High_HMMActual","","","","","","1335.1499999989755","","","","Images/NewTrialBC.png","","2"
"image-button-response","240","429764","0.0-13.0-1.60","55","High_HMMActual","","","","","","null","","","","Images/WhiteBeadChoice.png","","null"
"image-button-response","241","430266","0.0-13.0-2.60","55","High_HMMActual","","","","","","null","","","","Images/WhiteBeadChoiceCorrect.png","","null"
"image-button-response","242","431769","0.0-13.0-0.61","55","High_HMMActual","","","","","","1501.2449999994715","","","","Images/NewTrialWC.png","","2"
"image-button-response","243","432071","0.0-13.0-1.61","55","High_HMMActual","","","","","","null","","","","Images/WhiteBeadChoice.png","","null"
"image-button-response","244","432573","0.0-13.0-2.61","55","High_HMMActual","","","","","","null","","","","Images/WhiteBeadChoiceWrong.png","","null"
"image-button-response","245","434268","0.0-13.0-0.62","55","High_HMMActual","","","","","","1693.0750000010594","","","","Images/NewTrialBC.png","","0"
"image-button-response","246","434570","0.0-13.0-1.62","55","High_HMMActual","","","","","","null","","","","Images/BlackBeadChoice.png","","null"
"image-button-response","247","435072","0.0-13.0-2.62","55","High_HMMActual","","","","","","null","","","","Images/BlackBeadChoiceWrong.png","","null"
"image-button-response","248","435567","0.0-13.0-0.63","55","High_HMMActual","","","","","","493.96000000159256","","","","Images/NewTrialWC.png","","0"
"image-button-response","249","435869","0.0-13.0-1.63","55","High_HMMActual","","","","","","null","","","","Images/BlackBeadChoice.png","","null"
"image-button-response","250","436370","0.0-13.0-2.63","55","High_HMMActual","","","","","","null","","","","Images/BlackBeadChoiceCorrect.png","","null"
"image-button-response","251","437218","0.0-13.0-0.64","55","High_HMMActual","","","","","","846.0049999994226","","","","Images/NewTrialBC.png","","0"
"image-button-response","252","437520","0.0-13.0-1.64","55","High_HMMActual","","","","","","null","","","","Images/BlackBeadChoice.png","","null"
"image-button-response","253","438021","0.0-13.0-2.64","55","High_HMMActual","","","","","","null","","","","Images/BlackBeadChoiceWrong.png","","null"
"image-button-response","254","438788","0.0-13.0-0.65","55","High_HMMActual","","","","","","765.0250000006054","","","","Images/NewTrialWC.png","","2"
"image-button-response","255","439090","0.0-13.0-1.65","55","High_HMMActual","","","","","","null","","","","Images/WhiteBeadChoice.png","","null"
"image-button-response","256","439592","0.0-13.0-2.65","55","High_HMMActual","","","","","","null","","","","Images/WhiteBeadChoiceCorrect.png","","null"
"image-button-response","257","440303","0.0-13.0-0.66","55","High_HMMActual","","","","","","709.8249999998952","","","","Images/NewTrialWC.png","","2"
"image-button-response","258","440605","0.0-13.0-1.66","55","High_HMMActual","","","","","","null","","","","Images/WhiteBeadChoice.png","","null"
"image-button-response","259","441107","0.0-13.0-2.66","55","High_HMMActual","","","","","","null","","","","Images/WhiteBeadChoiceWrong.png","","null"
"image-button-response","260","442225","0.0-13.0-0.67","55","High_HMMActual","","","","","","1117.0449999990524","","","","Images/NewTrialBC.png","","0"
"image-button-response","261","442528","0.0-13.0-1.67","55","High_HMMActual","","","","","","null","","","","Images/BlackBeadChoice.png","","null"
"image-button-response","262","443030","0.0-13.0-2.67","55","High_HMMActual","","","","","","null","","","","Images/BlackBeadChoiceCorrect.png","","null"
"image-button-response","263","443877","0.0-13.0-0.68","55","High_HMMActual","","","","","","845.9099999999744","","","","Images/NewTrialBC.png","","0"
"image-button-response","264","444179","0.0-13.0-1.68","55","High_HMMActual","","","","","","null","","","","Images/BlackBeadChoice.png","","null"
"image-button-response","265","444681","0.0-13.0-2.68","55","High_HMMActual","","","","","","null","","","","Images/BlackBeadChoiceCorrect.png","","null"
"image-button-response","266","445649","0.0-13.0-0.69","55","High_HMMActual","","","","","","966.2550000011688","","","","Images/NewTrialBC.png","","0"
"image-button-response","267","445951","0.0-13.0-1.69","55","High_HMMActual","","","","","","null","","","","Images/BlackBeadChoice.png","","null"
"image-button-response","268","446452","0.0-13.0-2.69","55","High_HMMActual","","","","","","null","","","","Images/BlackBeadChoiceWrong.png","","null"
"image-button-response","269","447219","0.0-13.0-0.70","55","High_HMMActual","","","","","","764.820000000298","","","","Images/NewTrialWC.png","","3"
"image-button-response","270","447523","0.0-13.0-1.70","55","High_HMMActual","","","","","","null","","","","Images/WhiteBeadChoice.png","","null"
"image-button-response","271","448026","0.0-13.0-2.70","55","High_HMMActual","","","","","","null","","","","Images/WhiteBeadChoiceWrong.png","","null"
"image-button-response","272","450609","0.0-13.0-0.71","55","High_HMMActual","","","","","","2581.884999999602","","","","Images/NewTrialBC.png","","3"
"image-button-response","273","450912","0.0-13.0-1.71","55","High_HMMActual","","","","","","null","","","","Images/WhiteBeadChoice.png","","null"
"image-button-response","274","451414","0.0-13.0-2.71","55","High_HMMActual","","","","","","null","","","","Images/WhiteBeadChoiceCorrect.png","","null"
"image-button-response","275","452379","0.0-13.0-0.72","55","High_HMMActual","","","","","","963.1300000000629","","","","Images/NewTrialWC.png","","2"
"image-button-response","276","452681","0.0-13.0-1.72","55","High_HMMActual","","","","","","null","","","","Images/WhiteBeadChoice.png","","null"
"image-button-response","277","453184","0.0-13.0-2.72","55","High_HMMActual","","","","","","null","","","","Images/WhiteBeadChoiceWrong.png","","null"
"image-button-response","278","454943","0.0-13.0-0.73","55","High_HMMActual","","","","","","1756.6800000004587","","","","Images/NewTrialBC.png","","0"
"image-button-response","279","455245","0.0-13.0-1.73","55","High_HMMActual","","","","","","null","","","","Images/BlackBeadChoice.png","","null"
"image-button-response","280","455747","0.0-13.0-2.73","55","High_HMMActual","","","","","","null","","","","Images/BlackBeadChoiceWrong.png","","null"
"image-button-response","281","458887","0.0-13.0-0.74","55","High_HMMActual","","","","","","3138.839999999618","","","","Images/NewTrialWC.png","","0"
"image-button-response","282","459190","0.0-13.0-1.74","55","High_HMMActual","","","","","","null","","","","Images/BlackBeadChoice.png","","null"
"image-button-response","283","459692","0.0-13.0-2.74","55","High_HMMActual","","","","","","null","","","","Images/BlackBeadChoiceWrong.png","","null"
"image-button-response","284","460908","0.0-13.0-0.75","55","High_HMMActual","","","","","","1214.2000000003027","","","","Images/NewTrialWC.png","","3"
"image-button-response","285","461210","0.0-13.0-1.75","55","High_HMMActual","","","","","","null","","","","Images/WhiteBeadChoice.png","","null"
"image-button-response","286","461712","0.0-13.0-2.75","55","High_HMMActual","","","","","","null","","","","Images/WhiteBeadChoiceCorrect.png","","null"
"image-button-response","287","462381","0.0-13.0-0.76","55","High_HMMActual","","","","","","667.7950000012061","","","","Images/NewTrialWC.png","","3"
"image-button-response","288","462683","0.0-13.0-1.76","55","High_HMMActual","","","","","","null","","","","Images/WhiteBeadChoice.png","","null"
"image-button-response","289","463191","0.0-13.0-2.76","55","High_HMMActual","","","","","","null","","","","Images/WhiteBeadChoiceWrong.png","","null"
"image-button-response","290","463903","0.0-13.0-0.77","55","High_HMMActual","","","","","","710.6100000001024","","","","Images/NewTrialBC.png","","1"
"image-button-response","291","464205","0.0-13.0-1.77","55","High_HMMActual","","","","","","null","","","","Images/BlackBeadChoice.png","","null"
"image-button-response","292","464708","0.0-13.0-2.77","55","High_HMMActual","","","","","","null","","","","Images/BlackBeadChoiceWrong.png","","null"
"image-button-response","293","472041","0.0-13.0-0.78","55","High_HMMActual","","","","","","7331.834999999031","","","","Images/NewTrialWC.png","","1"
"image-button-response","294","472343","0.0-13.0-1.78","55","High_HMMActual","","","","","","null","","","","Images/BlackBeadChoice.png","","null"
"image-button-response","295","472844","0.0-13.0-2.78","55","High_HMMActual","","","","","","null","","","","Images/BlackBeadChoiceCorrect.png","","null"
"image-button-response","296","473973","0.0-13.0-0.79","55","High_HMMActual","","","","","","1127.4549999997835","","","","Images/NewTrialBC.png","","1"
"image-button-response","297","474277","0.0-13.0-1.79","55","High_HMMActual","","","","","","null","","","","Images/BlackBeadChoice.png","","null"
"image-button-response","298","474779","0.0-13.0-2.79","55","High_HMMActual","","","","","","null","","","","Images/BlackBeadChoiceWrong.png","","null"
"image-button-response","299","475561","0.0-13.0-0.80","55","High_HMMActual","","","","","","780.1300000009942","","","","Images/NewTrialWC.png","","1"
"image-button-response","300","475863","0.0-13.0-1.80","55","High_HMMActual","","","","","","null","","","","Images/BlackBeadChoice.png","","null"
"image-button-response","301","476365","0.0-13.0-2.80","55","High_HMMActual","","","","","","null","","","","Images/BlackBeadChoiceCorrect.png","","null"
"image-button-response","302","477301","0.0-13.0-0.81","55","High_HMMActual","","","","","","934.889999998617","","","","Images/NewTrialBC.png","","1"
"image-button-response","303","477603","0.0-13.0-1.81","55","High_HMMActual","","","","","","null","","","","Images/BlackBeadChoice.png","","null"
"image-button-response","304","478105","0.0-13.0-2.81","55","High_HMMActual","","","","","","null","","","","Images/BlackBeadChoiceWrong.png","","null"
"image-button-response","305","478728","0.0-13.0-0.82","55","High_HMMActual","","","","","","619.6849999996484","","","","Images/NewTrialWC.png","","3"
"image-button-response","306","479029","0.0-13.0-1.82","55","High_HMMActual","","","","","","null","","","","Images/WhiteBeadChoice.png","","null"
"image-button-response","307","479532","0.0-13.0-2.82","55","High_HMMActual","","","","","","null","","","","Images/WhiteBeadChoiceWrong.png","","null"
"image-button-response","308","486679","0.0-13.0-0.83","55","High_HMMActual","","","","","","7145.805000000109","","","","Images/NewTrialBC.png","","1"
"image-button-response","309","486980","0.0-13.0-1.83","55","High_HMMActual","","","","","","null","","","","Images/BlackBeadChoice.png","","null"
"image-button-response","310","487482","0.0-13.0-2.83","55","High_HMMActual","","","","","","null","","","","Images/BlackBeadChoiceWrong.png","","null"
"image-button-response","311","489941","0.0-13.0-0.84","55","High_HMMActual","","","","","","2457.0800000001327","","","","Images/NewTrialWC.png","","3"
"image-button-response","312","490243","0.0-13.0-1.84","55","High_HMMActual","","","","","","null","","","","Images/WhiteBeadChoice.png","","null"
"image-button-response","313","490745","0.0-13.0-2.84","55","High_HMMActual","","","","","","null","","","","Images/WhiteBeadChoiceWrong.png","","null"
"image-button-response","314","491103","0.0-13.0-0.85","55","High_HMMActual","","","","","","357.20500000024913","","","","Images/NewTrialBC.png","","3"
"image-button-response","315","491406","0.0-13.0-1.85","55","High_HMMActual","","","","","","null","","","","Images/WhiteBeadChoice.png","","null"
"image-button-response","316","491913","0.0-13.0-2.85","55","High_HMMActual","","","","","","null","","","","Images/WhiteBeadChoiceCorrect.png","","null"
"image-button-response","317","492931","0.0-13.0-0.86","55","High_HMMActual","","","","","","1016.5450000003912","","","","Images/NewTrialWC.png","","3"
"image-button-response","318","493233","0.0-13.0-1.86","55","High_HMMActual","","","","","","null","","","","Images/WhiteBeadChoice.png","","null"
"image-button-response","319","493735","0.0-13.0-2.86","55","High_HMMActual","","","","","","null","","","","Images/WhiteBeadChoiceWrong.png","","null"
"image-button-response","320","495578","0.0-13.0-0.87","55","High_HMMActual","","","","","","1841.1550000000861","","","","Images/NewTrialBC.png","","1"
"image-button-response","321","495880","0.0-13.0-1.87","55","High_HMMActual","","","","","","null","","","","Images/BlackBeadChoice.png","","null"
"image-button-response","322","496382","0.0-13.0-2.87","55","High_HMMActual","","","","","","null","","","","Images/BlackBeadChoiceCorrect.png","","null"
"image-button-response","323","497115","0.0-13.0-0.88","55","High_HMMActual","","","","","","730.9800000002724","","","","Images/NewTrialBC.png","","1"
"image-button-response","324","497425","0.0-13.0-1.88","55","High_HMMActual","","","","","","null","","","","Images/BlackBeadChoice.png","","null"
"image-button-response","325","497927","0.0-13.0-2.88","55","High_HMMActual","","","","","","null","","","","Images/BlackBeadChoiceCorrect.png","","null"
"image-button-response","326","499665","0.0-13.0-0.89","55","High_HMMActual","","","","","","1736.16500000027","","","","Images/NewTrialBC.png","","1"
"image-button-response","327","499968","0.0-13.0-1.89","55","High_HMMActual","","","","","","null","","","","Images/BlackBeadChoice.png","","null"
"image-button-response","328","500470","0.0-13.0-2.89","55","High_HMMActual","","","","","","null","","","","Images/BlackBeadChoiceWrong.png","","null"
"image-button-response","329","502325","0.0-13.0-0.90","55","High_HMMActual","","","","","","1853.8300000000163","","","","Images/NewTrialWC.png","","3"
"image-button-response","330","502628","0.0-13.0-1.90","55","High_HMMActual","","","","","","null","","","","Images/WhiteBeadChoice.png","","null"
"image-button-response","331","503130","0.0-13.0-2.90","55","High_HMMActual","","","","","","null","","","","Images/WhiteBeadChoiceCorrect.png","","null"
"image-button-response","332","503431","0.0-13.0-0.91","55","High_HMMActual","","","","","","297.3149999997695","","","","Images/NewTrialWC.png","","3"
"image-button-response","333","503747","0.0-13.0-1.91","55","High_HMMActual","","","","","","null","","","","Images/WhiteBeadChoice.png","","null"
"image-button-response","334","504249","0.0-13.0-2.91","55","High_HMMActual","","","","","","null","","","","Images/WhiteBeadChoiceCorrect.png","","null"
"image-button-response","335","504993","0.0-13.0-0.92","55","High_HMMActual","","","","","","742.949999999837","","","","Images/NewTrialWC.png","","3"
"image-button-response","336","505303","0.0-13.0-1.92","55","High_HMMActual","","","","","","null","","","","Images/WhiteBeadChoice.png","","null"
"image-button-response","337","505805","0.0-13.0-2.92","55","High_HMMActual","","","","","","null","","","","Images/WhiteBeadChoiceWrong.png","","null"
"image-button-response","338","506419","0.0-13.0-0.93","55","High_HMMActual","","","","","","612.3400000014808","","","","Images/NewTrialBC.png","","0"
"image-button-response","339","506721","0.0-13.0-1.93","55","High_HMMActual","","","","","","null","","","","Images/BlackBeadChoice.png","","null"
"image-button-response","340","507223","0.0-13.0-2.93","55","High_HMMActual","","","","","","null","","","","Images/BlackBeadChoiceWrong.png","","null"
"image-button-response","341","507815","0.0-13.0-0.94","55","High_HMMActual","","","","","","590.6300000005867","","","","Images/NewTrialWC.png","","0"
"image-button-response","342","508118","0.0-13.0-1.94","55","High_HMMActual","","","","","","null","","","","Images/BlackBeadChoice.png","","null"
"image-button-response","343","508621","0.0-13.0-2.94","55","High_HMMActual","","","","","","null","","","","Images/BlackBeadChoiceCorrect.png","","null"
"image-button-response","344","508985","0.0-13.0-0.95","55","High_HMMActual","","","","","","362.6150000000489","","","","Images/NewTrialBC.png","","0"
"image-button-response","345","509287","0.0-13.0-1.95","55","High_HMMActual","","","","","","null","","","","Images/BlackBeadChoice.png","","null"
"image-button-response","346","509790","0.0-13.0-2.95","55","High_HMMActual","","","","","","null","","","","Images/BlackBeadChoiceCorrect.png","","null"
"image-button-response","347","510573","0.0-13.0-0.96","55","High_HMMActual","","","","","","781.7950000007404","","","","Images/NewTrialBC.png","","0"
"image-button-response","348","510889","0.0-13.0-1.96","55","High_HMMActual","","","","","","null","","","","Images/BlackBeadChoice.png","","null"
"image-button-response","349","511391","0.0-13.0-2.96","55","High_HMMActual","","","","","","null","","","","Images/BlackBeadChoiceCorrect.png","","null"
"image-button-response","350","512177","0.0-13.0-0.97","55","High_HMMActual","","","","","","785.0350000007893","","","","Images/NewTrialBC.png","","0"
"image-button-response","351","512487","0.0-13.0-1.97","55","High_HMMActual","","","","","","null","","","","Images/BlackBeadChoice.png","","null"
"image-button-response","352","512990","0.0-13.0-2.97","55","High_HMMActual","","","","","","null","","","","Images/BlackBeadChoiceWrong.png","","null"
"image-button-response","353","514701","0.0-13.0-0.98","55","High_HMMActual","","","","","","1709.9999999991269","","","","Images/NewTrialWC.png","","2"
"image-button-response","354","515003","0.0-13.0-1.98","55","High_HMMActual","","","","","","null","","","","Images/WhiteBeadChoice.png","","null"
"image-button-response","355","515505","0.0-13.0-2.98","55","High_HMMActual","","","","","","null","","","","Images/WhiteBeadChoiceWrong.png","","null"
"image-button-response","356","518443","0.0-13.0-0.99","55","High_HMMActual","","","","","","2936.5749999997206","","","","Images/NewTrialBC.png","","2"
"image-button-response","357","518745","0.0-13.0-1.99","55","High_HMMActual","","","","","","null","","","","Images/WhiteBeadChoice.png","","null"
"image-button-response","358","519247","0.0-13.0-2.99","55","High_HMMActual","","","","","","null","","","","Images/WhiteBeadChoiceWrong.png","","null"
"image-button-response","359","519909","0.0-13.0-0.100","55","High_HMMActual","","","","","","659.9900000001071","","","","Images/NewTrialBC.png","","0"
"image-button-response","360","520210","0.0-13.0-1.100","55","High_HMMActual","","","","","","null","","","","Images/BlackBeadChoice.png","","null"
"image-button-response","361","520712","0.0-13.0-2.100","55","High_HMMActual","","","","","","null","","","","Images/BlackBeadChoiceCorrect.png","","null"
"image-button-response","362","521647","0.0-13.0-0.101","55","High_HMMActual","","","","","","933.315000000177","","","","Images/NewTrialBC.png","","2"
"image-button-response","363","521950","0.0-13.0-1.101","55","High_HMMActual","","","","","","null","","","","Images/WhiteBeadChoice.png","","null"
"image-button-response","364","522452","0.0-13.0-2.101","55","High_HMMActual","","","","","","null","","","","Images/WhiteBeadChoiceWrong.png","","null"
"image-button-response","365","522929","0.0-13.0-0.102","55","High_HMMActual","","","","","","467.9199999991688","","","","Images/NewTrialBC.png","","0"
"image-button-response","366","523232","0.0-13.0-1.102","55","High_HMMActual","","","","","","null","","","","Images/BlackBeadChoice.png","","null"
"image-button-response","367","523733","0.0-13.0-2.102","55","High_HMMActual","","","","","","null","","","","Images/BlackBeadChoiceCorrect.png","","null"
"image-button-response","368","524267","0.0-13.0-0.103","55","High_HMMActual","","","","","","532.4000000000233","","","","Images/NewTrialBC.png","","0"
"image-button-response","369","524570","0.0-13.0-1.103","55","High_HMMActual","","","","","","null","","","","Images/BlackBeadChoice.png","","null"
"image-button-response","370","525072","0.0-13.0-2.103","55","High_HMMActual","","","","","","null","","","","Images/BlackBeadChoiceWrong.png","","null"
"image-button-response","371","525725","0.0-13.0-0.104","55","High_HMMActual","","","","","","650.9949999999953","","","","Images/NewTrialWC.png","","2"
"image-button-response","372","526027","0.0-13.0-1.104","55","High_HMMActual","","","","","","null","","","","Images/WhiteBeadChoice.png","","null"
"image-button-response","373","526529","0.0-13.0-2.104","55","High_HMMActual","","","","","","null","","","","Images/WhiteBeadChoiceWrong.png","","null"
"image-button-response","374","526775","0.0-13.0-0.105","55","High_HMMActual","","","","","","237.38500000035856","","","","Images/NewTrialBC.png","","2"
"image-button-response","375","527078","0.0-13.0-1.105","55","High_HMMActual","","","","","","null","","","","Images/WhiteBeadChoice.png","","null"
"image-button-response","376","527595","0.0-13.0-2.105","55","High_HMMActual","","","","","","null","","","","Images/WhiteBeadChoiceCorrect.png","","null"
"image-button-response","377","528467","0.0-13.0-0.106","55","High_HMMActual","","","","","","870.8200000000652","","","","Images/NewTrialWC.png","","2"
"image-button-response","378","528770","0.0-13.0-1.106","55","High_HMMActual","","","","","","null","","","","Images/WhiteBeadChoice.png","","null"
"image-button-response","379","529271","0.0-13.0-2.106","55","High_HMMActual","","","","","","null","","","","Images/WhiteBeadChoiceWrong.png","","null"
"image-button-response","380","530855","0.0-13.0-0.107","55","High_HMMActual","","","","","","1582.629999998957","","","","Images/NewTrialBC.png","","0"
"image-button-response","381","531158","0.0-13.0-1.107","55","High_HMMActual","","","","","","null","","","","Images/BlackBeadChoice.png","","null"
"image-button-response","382","531660","0.0-13.0-2.107","55","High_HMMActual","","","","","","null","","","","Images/BlackBeadChoiceWrong.png","","null"
"image-button-response","383","533091","0.0-13.0-0.108","55","High_HMMActual","","","","","","1429.7099999985658","","","","Images/NewTrialWC.png","","0"
"image-button-response","384","533393","0.0-13.0-1.108","55","High_HMMActual","","","","","","null","","","","Images/BlackBeadChoice.png","","null"
"image-button-response","385","533895","0.0-13.0-2.108","55","High_HMMActual","","","","","","null","","","","Images/BlackBeadChoiceCorrect.png","","null"
"image-button-response","386","534293","0.0-13.0-0.109","55","High_HMMActual","","","","","","396.2150000006659","","","","Images/NewTrialBC.png","","0"
"image-button-response","387","534596","0.0-13.0-1.109","55","High_HMMActual","","","","","","null","","","","Images/BlackBeadChoice.png","","null"
"image-button-response","388","535098","0.0-13.0-2.109","55","High_HMMActual","","","","","","null","","","","Images/BlackBeadChoiceWrong.png","","null"
"image-button-response","389","537323","0.0-13.0-0.110","55","High_HMMActual","","","","","","2223.210000000079","","","","Images/NewTrialWC.png","","2"
"image-button-response","390","537625","0.0-13.0-1.110","55","High_HMMActual","","","","","","null","","","","Images/WhiteBeadChoice.png","","null"
"image-button-response","391","538127","0.0-13.0-2.110","55","High_HMMActual","","","","","","null","","","","Images/WhiteBeadChoiceWrong.png","","null"
"image-button-response","392","538364","0.0-13.0-0.111","55","High_HMMActual","","","","","","228.04999999969732","","","","Images/NewTrialBC.png","","2"
"image-button-response","393","538666","0.0-13.0-1.111","55","High_HMMActual","","","","","","null","","","","Images/WhiteBeadChoice.png","","null"
"image-button-response","394","539170","0.0-13.0-2.111","55","High_HMMActual","","","","","","null","","","","Images/WhiteBeadChoiceCorrect.png","","null"
"image-button-response","395","540177","0.0-13.0-0.112","55","High_HMMActual","","","","","","1006.6299999998882","","","","Images/NewTrialWC.png","","2"
"image-button-response","396","540479","0.0-13.0-1.112","55","High_HMMActual","","","","","","null","","","","Images/WhiteBeadChoice.png","","null"
"image-button-response","397","540982","0.0-13.0-2.112","55","High_HMMActual","","","","","","null","","","","Images/WhiteBeadChoiceWrong.png","","null"
"image-button-response","398","542493","0.0-13.0-0.113","55","High_HMMActual","","","","","","1509.2800000002608","","","","Images/NewTrialBC.png","","0"
"image-button-response","399","542795","0.0-13.0-1.113","55","High_HMMActual","","","","","","null","","","","Images/BlackBeadChoice.png","","null"
"image-button-response","400","543297","0.0-13.0-2.113","55","High_HMMActual","","","","","","null","","","","Images/BlackBeadChoiceWrong.png","","null"
"image-button-response","401","543399","0.0-13.0-0.114","55","High_HMMActual","","","","","","99.94000000006054","","","","Images/NewTrialWC.png","","0"
"image-button-response","402","543700","0.0-13.0-1.114","55","High_HMMActual","","","","","","null","","","","Images/BlackBeadChoice.png","","null"
"image-button-response","403","544202","0.0-13.0-2.114","55","High_HMMActual","","","","","","null","","","","Images/BlackBeadChoiceCorrect.png","","null"
"image-button-response","404","544407","0.0-13.0-0.115","55","High_HMMActual","","","","","","203.17500000051223","","","","Images/NewTrialBC.png","","0"
"image-button-response","405","544709","0.0-13.0-1.115","55","High_HMMActual","","","","","","null","","","","Images/BlackBeadChoice.png","","null"
"image-button-response","406","545211","0.0-13.0-2.115","55","High_HMMActual","","","","","","null","","","","Images/BlackBeadChoiceWrong.png","","null"
"image-button-response","407","546203","0.0-13.0-0.116","55","High_HMMActual","","","","","","989.7450000008103","","","","Images/NewTrialWC.png","","2"
"image-button-response","408","546505","0.0-13.0-1.116","55","High_HMMActual","","","","","","null","","","","Images/WhiteBeadChoice.png","","null"
"image-button-response","409","547012","0.0-13.0-2.116","55","High_HMMActual","","","","","","null","","","","Images/WhiteBeadChoiceWrong.png","","null"
"image-button-response","410","547197","0.0-13.0-0.117","55","High_HMMActual","","","","","","183.59500000043772","","","","Images/NewTrialBC.png","","2"
"image-button-response","411","547499","0.0-13.0-1.117","55","High_HMMActual","","","","","","null","","","","Images/WhiteBeadChoice.png","","null"
"image-button-response","412","548001","0.0-13.0-2.117","55","High_HMMActual","","","","","","null","","","","Images/WhiteBeadChoiceCorrect.png","","null"
"image-button-response","413","548825","0.0-13.0-0.118","55","High_HMMActual","","","","","","815.5000000006985","","","","Images/NewTrialWC.png","","2"
"image-button-response","414","549128","0.0-13.0-1.118","55","High_HMMActual","","","","","","null","","","","Images/WhiteBeadChoice.png","","null"
"image-button-response","415","549629","0.0-13.0-2.118","55","High_HMMActual","","","","","","null","","","","Images/WhiteBeadChoiceWrong.png","","null"
"image-button-response","416","551019","0.0-13.0-0.119","55","High_HMMActual","","","","","","1387.494999999064","","","","Images/NewTrialBC.png","","0"
"image-button-response","417","551320","0.0-13.0-1.119","55","High_HMMActual","","","","","","null","","","","Images/BlackBeadChoice.png","","null"
"image-button-response","418","551821","0.0-13.0-2.119","55","High_HMMActual","","","","","","null","","","","Images/BlackBeadChoiceWrong.png","","null"
"image-button-response","419","554281","0.0-13.0-0.120","55","High_HMMActual","","","","","","2458.409999999334","","","","Images/NewTrialWC.png","","1"
"image-button-response","420","554585","0.0-13.0-1.120","55","High_HMMActual","","","","","","null","","","","Images/BlackBeadChoice.png","","null"
"image-button-response","421","555086","0.0-13.0-2.120","55","High_HMMActual","","","","","","null","","","","Images/BlackBeadChoiceWrong.png","","null"
"image-button-response","422","556455","0.0-13.0-0.121","55","High_HMMActual","","","","","","1360.2350000001024","","","","Images/NewTrialWC.png","","3"
"image-button-response","423","556757","0.0-13.0-1.121","55","High_HMMActual","","","","","","null","","","","Images/WhiteBeadChoice.png","","null"
"image-button-response","424","557260","0.0-13.0-2.121","55","High_HMMActual","","","","","","null","","","","Images/WhiteBeadChoiceCorrect.png","","null"
"image-button-response","425","557865","0.0-13.0-0.122","55","High_HMMActual","","","","","","603.4149999995716","","","","Images/NewTrialWC.png","","3"
"image-button-response","426","558167","0.0-13.0-1.122","55","High_HMMActual","","","","","","null","","","","Images/WhiteBeadChoice.png","","null"
"image-button-response","427","558669","0.0-13.0-2.122","55","High_HMMActual","","","","","","null","","","","Images/WhiteBeadChoiceCorrect.png","","null"
"image-button-response","428","559861","0.0-13.0-0.123","55","High_HMMActual","","","","","","1189.0499999991152","","","","Images/NewTrialWC.png","","1"
"image-button-response","429","560164","0.0-13.0-1.123","55","High_HMMActual","","","","","","null","","","","Images/BlackBeadChoice.png","","null"
"image-button-response","430","560666","0.0-13.0-2.123","55","High_HMMActual","","","","","","null","","","","Images/BlackBeadChoiceWrong.png","","null"
"image-button-response","431","561647","0.0-13.0-0.124","55","High_HMMActual","","","","","","979.5350000003818","","","","Images/NewTrialWC.png","","3"
"image-button-response","432","561950","0.0-13.0-1.124","55","High_HMMActual","","","","","","null","","","","Images/WhiteBeadChoice.png","","null"
"image-button-response","433","562452","0.0-13.0-2.124","55","High_HMMActual","","","","","","null","","","","Images/WhiteBeadChoiceCorrect.png","","null"
"image-button-response","434","562881","0.0-13.0-0.125","55","High_HMMActual","","","","","","427.9999999998836","","","","Images/NewTrialWC.png","","3"
"image-button-response","435","563192","0.0-13.0-1.125","55","High_HMMActual","","","","","","null","","","","Images/WhiteBeadChoice.png","","null"
"image-button-response","436","563721","0.0-13.0-2.125","55","High_HMMActual","","","","","","null","","","","Images/WhiteBeadChoiceCorrect.png","","null"
"image-button-response","437","564645","0.0-13.0-0.126","55","High_HMMActual","","","","","","922.1950000009965","","","","Images/NewTrialWC.png","","3"
"image-button-response","438","564948","0.0-13.0-1.126","55","High_HMMActual","","","","","","null","","","","Images/WhiteBeadChoice.png","","null"
"image-button-response","439","565449","0.0-13.0-2.126","55","High_HMMActual","","","","","","null","","","","Images/WhiteBeadChoiceWrong.png","","null"
"image-button-response","440","566038","0.0-13.0-0.127","55","High_HMMActual","","","","","","587.4199999999255","","","","Images/NewTrialBC.png","","1"
"image-button-response","441","566340","0.0-13.0-1.127","55","High_HMMActual","","","","","","null","","","","Images/BlackBeadChoice.png","","null"
"image-button-response","442","566842","0.0-13.0-2.127","55","High_HMMActual","","","","","","null","","","","Images/BlackBeadChoiceWrong.png","","null"
"image-button-response","443","568099","0.0-13.0-0.128","55","High_HMMActual","","","","","","1255.3499999993946","","","","Images/NewTrialWC.png","","3"
"image-button-response","444","568401","0.0-13.0-1.128","55","High_HMMActual","","","","","","null","","","","Images/WhiteBeadChoice.png","","null"
"image-button-response","445","568903","0.0-13.0-2.128","55","High_HMMActual","","","","","","null","","","","Images/WhiteBeadChoiceWrong.png","","null"
"image-button-response","446","569397","0.0-13.0-0.129","55","High_HMMActual","","","","","","492.5050000002375","","","","Images/NewTrialBC.png","","3"
"image-button-response","447","569699","0.0-13.0-1.129","55","High_HMMActual","","","","","","null","","","","Images/WhiteBeadChoice.png","","null"
"image-button-response","448","570201","0.0-13.0-2.129","55","High_HMMActual","","","","","","null","","","","Images/WhiteBeadChoiceWrong.png","","null"
"image-button-response","449","570495","0.0-13.0-0.130","55","High_HMMActual","","","","","","292.25000000046566","","","","Images/NewTrialBC.png","","3"
"image-button-response","450","570796","0.0-13.0-1.130","55","High_HMMActual","","","","","","null","","","","Images/WhiteBeadChoice.png","","null"
"image-button-response","451","571299","0.0-13.0-2.130","55","High_HMMActual","","","","","","null","","","","Images/WhiteBeadChoiceWrong.png","","null"
"image-button-response","452","572331","0.0-13.0-0.131","55","High_HMMActual","","","","","","1031.0000000009313","","","","Images/NewTrialBC.png","","3"
"image-button-response","453","572634","0.0-13.0-1.131","55","High_HMMActual","","","","","","null","","","","Images/WhiteBeadChoice.png","","null"
"image-button-response","454","573136","0.0-13.0-2.131","55","High_HMMActual","","","","","","null","","","","Images/WhiteBeadChoiceCorrect.png","","null"
"image-button-response","455","573629","0.0-13.0-0.132","55","High_HMMActual","","","","","","490.5699999999488","","","","Images/NewTrialWC.png","","3"
"image-button-response","456","573931","0.0-13.0-1.132","55","High_HMMActual","","","","","","null","","","","Images/WhiteBeadChoice.png","","null"
"image-button-response","457","574434","0.0-13.0-2.132","55","High_HMMActual","","","","","","null","","","","Images/WhiteBeadChoiceCorrect.png","","null"
"image-button-response","458","575103","0.0-13.0-0.133","55","High_HMMActual","","","","","","668.0749999996042","","","","Images/NewTrialWC.png","","3"
"image-button-response","459","575405","0.0-13.0-1.133","55","High_HMMActual","","","","","","null","","","","Images/WhiteBeadChoice.png","","null"
"image-button-response","460","575907","0.0-13.0-2.133","55","High_HMMActual","","","","","","null","","","","Images/WhiteBeadChoiceCorrect.png","","null"
"image-button-response","461","576971","0.0-13.0-0.134","55","High_HMMActual","","","","","","1062.2950000015553","","","","Images/NewTrialWC.png","","3"
"image-button-response","462","577273","0.0-13.0-1.134","55","High_HMMActual","","","","","","null","","","","Images/WhiteBeadChoice.png","","null"
"image-button-response","463","577776","0.0-13.0-2.134","55","High_HMMActual","","","","","","null","","","","Images/WhiteBeadChoiceWrong.png","","null"
"image-button-response","464","578783","0.0-13.0-0.135","55","High_HMMActual","","","","","","1005.4699999982258","","","","Images/NewTrialBC.png","","1"
"image-button-response","465","579086","0.0-13.0-1.135","55","High_HMMActual","","","","","","null","","","","Images/BlackBeadChoice.png","","null"
"image-button-response","466","579587","0.0-13.0-2.135","55","High_HMMActual","","","","","","null","","","","Images/BlackBeadChoiceWrong.png","","null"
"image-button-response","467","582058","0.0-13.0-0.136","55","High_HMMActual","","","","","","2462.5849999993807","","","","Images/NewTrialWC.png","","1"
"image-button-response","468","582361","0.0-13.0-1.136","55","High_HMMActual","","","","","","null","","","","Images/BlackBeadChoice.png","","null"
"image-button-response","469","582863","0.0-13.0-2.136","55","High_HMMActual","","","","","","null","","","","Images/BlackBeadChoiceCorrect.png","","null"
"image-button-response","470","584471","0.0-13.0-0.137","55","High_HMMActual","","","","","","1606.6599999994505","","","","Images/NewTrialBC.png","","1"
"image-button-response","471","584773","0.0-13.0-1.137","55","High_HMMActual","","","","","","null","","","","Images/BlackBeadChoice.png","","null"
"image-button-response","472","585275","0.0-13.0-2.137","55","High_HMMActual","","","","","","null","","","","Images/BlackBeadChoiceCorrect.png","","null"
"image-button-response","473","585921","0.0-13.0-0.138","55","High_HMMActual","","","","","","643.5500000007451","","","","Images/NewTrialBC.png","","1"
"image-button-response","474","586224","0.0-13.0-1.138","55","High_HMMActual","","","","","","null","","","","Images/BlackBeadChoice.png","","null"
"image-button-response","475","586732","0.0-13.0-2.138","55","High_HMMActual","","","","","","null","","","","Images/BlackBeadChoiceWrong.png","","null"
"image-button-response","476","587035","0.0-13.0-0.139","55","High_HMMActual","","","","","","301.2899999994552","","","","Images/NewTrialWC.png","","3"
"image-button-response","477","587338","0.0-13.0-1.139","55","High_HMMActual","","","","","","null","","","","Images/WhiteBeadChoice.png","","null"
"image-button-response","478","587840","0.0-13.0-2.139","55","High_HMMActual","","","","","","null","","","","Images/WhiteBeadChoiceCorrect.png","","null"
"image-button-response","479","588218","0.0-13.0-0.140","55","High_HMMActual","","","","","","377.18500000122003","","","","Images/NewTrialWC.png","","3"
"image-button-response","480","588522","0.0-13.0-1.140","55","High_HMMActual","","","","","","null","","","","Images/WhiteBeadChoice.png","","null"
"image-button-response","481","589023","0.0-13.0-2.140","55","High_HMMActual","","","","","","null","","","","Images/WhiteBeadChoiceWrong.png","","null"
"image-button-response","482","590191","0.0-13.0-0.141","55","High_HMMActual","","","","","","1165.940000000759","","","","Images/NewTrialBC.png","","1"
"image-button-response","483","590493","0.0-13.0-1.141","55","High_HMMActual","","","","","","null","","","","Images/BlackBeadChoice.png","","null"
"image-button-response","484","590995","0.0-13.0-2.141","55","High_HMMActual","","","","","","null","","","","Images/BlackBeadChoiceWrong.png","","null"
"image-button-response","485","591191","0.0-13.0-0.142","55","High_HMMActual","","","","","","194.52499999897555","","","","Images/NewTrialWC.png","","1"
"image-button-response","486","591493","0.0-13.0-1.142","55","High_HMMActual","","","","","","null","","","","Images/BlackBeadChoice.png","","null"
"image-button-response","487","592000","0.0-13.0-2.142","55","High_HMMActual","","","","","","null","","","","Images/BlackBeadChoiceCorrect.png","","null"
"image-button-response","488","592675","0.0-13.0-0.143","55","High_HMMActual","","","","","","673.7350000003353","","","","Images/NewTrialBC.png","","0"
"image-button-response","489","592977","0.0-13.0-1.143","55","High_HMMActual","","","","","","null","","","","Images/BlackBeadChoice.png","","null"
"image-button-response","490","593479","0.0-13.0-2.143","55","High_HMMActual","","","","","","null","","","","Images/BlackBeadChoiceCorrect.png","","null"
"image-button-response","491","594253","0.0-13.0-0.144","55","High_HMMActual","","","","","","772.6400000010617","","","","Images/NewTrialBC.png","","1"
"image-button-response","492","594562","0.0-13.0-1.144","55","High_HMMActual","","","","","","null","","","","Images/BlackBeadChoice.png","","null"
"image-button-response","493","595065","0.0-13.0-2.144","55","High_HMMActual","","","","","","null","","","","Images/BlackBeadChoiceCorrect.png","","null"
"image-button-response","494","597500","0.0-13.0-0.145","55","High_HMMActual","","","","","","2434.4349999991246","","","","Images/NewTrialBC.png","","1"
"image-button-response","495","597803","0.0-13.0-1.145","55","High_HMMActual","","","","","","null","","","","Images/BlackBeadChoice.png","","null"
"image-button-response","496","598304","0.0-13.0-2.145","55","High_HMMActual","","","","","","null","","","","Images/BlackBeadChoiceWrong.png","","null"
"image-button-response","497","599159","0.0-13.0-0.146","55","High_HMMActual","","","","","","852.0149999985006","","","","Images/NewTrialWC.png","","3"
"image-button-response","498","599465","0.0-13.0-1.146","55","High_HMMActual","","","","","","null","","","","Images/WhiteBeadChoice.png","","null"
"image-button-response","499","599969","0.0-13.0-2.146","55","High_HMMActual","","","","","","null","","","","Images/WhiteBeadChoiceWrong.png","","null"
"image-button-response","500","600321","0.0-13.0-0.147","55","High_HMMActual","","","","","","350.64000000047963","","","","Images/NewTrialBC.png","","3"
"image-button-response","501","600623","0.0-13.0-1.147","55","High_HMMActual","","","","","","null","","","","Images/WhiteBeadChoice.png","","null"
"image-button-response","502","601126","0.0-13.0-2.147","55","High_HMMActual","","","","","","null","","","","Images/WhiteBeadChoiceCorrect.png","","null"
"image-button-response","503","601989","0.0-13.0-0.148","55","High_HMMActual","","","","","","860.9899999992922","","","","Images/NewTrialWC.png","","2"
"image-button-response","504","602291","0.0-13.0-1.148","55","High_HMMActual","","","","","","null","","","","Images/WhiteBeadChoice.png","","null"
"image-button-response","505","602793","0.0-13.0-2.148","55","High_HMMActual","","","","","","null","","","","Images/WhiteBeadChoiceWrong.png","","null"
"image-button-response","506","603921","0.0-13.0-0.149","55","High_HMMActual","","","","","","1125.08499999973","","","","Images/NewTrialBC.png","","3"
"image-button-response","507","604223","0.0-13.0-1.149","55","High_HMMActual","","","","","","null","","","","Images/WhiteBeadChoice.png","","null"
"image-button-response","508","604726","0.0-13.0-2.149","55","High_HMMActual","","","","","","null","","","","Images/WhiteBeadChoiceWrong.png","","null"
"image-button-response","509","605530","0.0-13.0-0.150","55","High_HMMActual","","","","","","795.9150000006193","","","","Images/NewTrialBC.png","","0"
"image-button-response","510","605832","0.0-13.0-1.150","55","High_HMMActual","","","","","","null","","","","Images/BlackBeadChoice.png","","null"
"image-button-response","511","606334","0.0-13.0-2.150","55","High_HMMActual","","","","","","null","","","","Images/BlackBeadChoiceCorrect.png","","null"
"image-button-response","512","606998","0.0-13.0-0.151","55","High_HMMActual","","","","","","661.9250000002794","","","","Images/NewTrialBC.png","","0"
"image-button-response","513","607300","0.0-13.0-1.151","55","High_HMMActual","","","","","","null","","","","Images/BlackBeadChoice.png","","null"
"image-button-response","514","607803","0.0-13.0-2.151","55","High_HMMActual","","","","","","null","","","","Images/BlackBeadChoiceWrong.png","","null"
"image-button-response","515","608159","0.0-13.0-0.152","55","High_HMMActual","","","","","","354.58499999914784","","","","Images/NewTrialWC.png","","3"
"image-button-response","516","608460","0.0-13.0-1.152","55","High_HMMActual","","","","","","null","","","","Images/WhiteBeadChoice.png","","null"
"image-button-response","517","608962","0.0-13.0-2.152","55","High_HMMActual","","","","","","null","","","","Images/WhiteBeadChoiceWrong.png","","null"
"image-button-response","518","610475","0.0-13.0-0.153","55","High_HMMActual","","","","","","1512.0600000008708","","","","Images/NewTrialBC.png","","0"
"image-button-response","519","610777","0.0-13.0-1.153","55","High_HMMActual","","","","","","null","","","","Images/BlackBeadChoice.png","","null"
"image-button-response","520","611279","0.0-13.0-2.153","55","High_HMMActual","","","","","","null","","","","Images/BlackBeadChoiceWrong.png","","null"
"image-button-response","521","613151","0.0-13.0-0.154","55","High_HMMActual","","","","","","1870.9550000003073","","","","Images/NewTrialWC.png","","1"
"image-button-response","522","613453","0.0-13.0-1.154","55","High_HMMActual","","","","","","null","","","","Images/BlackBeadChoice.png","","null"
"image-button-response","523","613955","0.0-13.0-2.154","55","High_HMMActual","","","","","","null","","","","Images/BlackBeadChoiceCorrect.png","","null"
"image-button-response","524","614921","0.0-13.0-0.155","55","High_HMMActual","","","","","","963.5949999992736","","","","Images/NewTrialBC.png","","0"
"image-button-response","525","615224","0.0-13.0-1.155","55","High_HMMActual","","","","","","null","","","","Images/BlackBeadChoice.png","","null"
"image-button-response","526","615730","0.0-13.0-2.155","55","High_HMMActual","","","","","","null","","","","Images/BlackBeadChoiceWrong.png","","null"
"image-button-response","527","616771","0.0-13.0-0.156","55","High_HMMActual","","","","","","1040.1000000000931","","","","Images/NewTrialWC.png","","1"
"image-button-response","528","617073","0.0-13.0-1.156","55","High_HMMActual","","","","","","null","","","","Images/BlackBeadChoice.png","","null"
"image-button-response","529","617576","0.0-13.0-2.156","55","High_HMMActual","","","","","","null","","","","Images/BlackBeadChoiceCorrect.png","","null"
"image-button-response","530","618855","0.0-13.0-0.157","55","High_HMMActual","","","","","","1278.105000001262","","","","Images/NewTrialBC.png","","3"
"image-button-response","531","619157","0.0-13.0-1.157","55","High_HMMActual","","","","","","null","","","","Images/WhiteBeadChoice.png","","null"
"image-button-response","532","619673","0.0-13.0-2.157","55","High_HMMActual","","","","","","null","","","","Images/WhiteBeadChoiceCorrect.png","","null"
"image-button-response","533","621707","0.0-13.0-0.158","55","High_HMMActual","","","","","","2032.5800000010058","","","","Images/NewTrialWC.png","","0"
"image-button-response","534","622009","0.0-13.0-1.158","55","High_HMMActual","","","","","","null","","","","Images/BlackBeadChoice.png","","null"
"image-button-response","535","622512","0.0-13.0-2.158","55","High_HMMActual","","","","","","null","","","","Images/BlackBeadChoiceCorrect.png","","null"
"image-button-response","536","623725","0.0-13.0-0.159","55","High_HMMActual","","","","","","1211.970000000205","","","","Images/NewTrialBC.png","","2"
"image-button-response","537","624028","0.0-13.0-1.159","55","High_HMMActual","","","","","","null","","","","Images/WhiteBeadChoice.png","","null"
"image-button-response","538","624529","0.0-13.0-2.159","55","High_HMMActual","","","","","","null","","","","Images/WhiteBeadChoiceCorrect.png","","null"
"image-button-response","539","626185","0.0-13.0-0.160","55","High_HMMActual","","","","","","1653.859999998589","","","","Images/NewTrialWC.png","","0"
"image-button-response","540","626488","0.0-13.0-1.160","55","High_HMMActual","","","","","","null","","","","Images/BlackBeadChoice.png","","null"
"image-button-response","541","626991","0.0-13.0-2.160","55","High_HMMActual","","","","","","null","","","","Images/BlackBeadChoiceCorrect.png","","null"
"image-button-response","542","628389","0.0-13.0-0.161","55","High_HMMActual","","","","","","1395.7150000005495","","","","Images/NewTrialBC.png","","2"
"image-button-response","543","628691","0.0-13.0-1.161","55","High_HMMActual","","","","","","null","","","","Images/WhiteBeadChoice.png","","null"
"image-button-response","544","629193","0.0-13.0-2.161","55","High_HMMActual","","","","","","null","","","","Images/WhiteBeadChoiceCorrect.png","","null"
"image-button-response","545","630681","0.0-13.0-0.162","55","High_HMMActual","","","","","","1479.9100000000326","","","","Images/NewTrialWC.png","","0"
"image-button-response","546","630984","0.0-13.0-1.162","55","High_HMMActual","","","","","","null","","","","Images/BlackBeadChoice.png","","null"
"image-button-response","547","631485","0.0-13.0-2.162","55","High_HMMActual","","","","","","null","","","","Images/BlackBeadChoiceCorrect.png","","null"
"image-button-response","548","632195","0.0-13.0-0.163","55","High_HMMActual","","","","","","708.5000000005821","","","","Images/NewTrialBC.png","","2"
"image-button-response","549","632497","0.0-13.0-1.163","55","High_HMMActual","","","","","","null","","","","Images/WhiteBeadChoice.png","","null"
"image-button-response","550","633000","0.0-13.0-2.163","55","High_HMMActual","","","","","","null","","","","Images/WhiteBeadChoiceCorrect.png","","null"
"image-button-response","551","634252","0.0-13.0-0.164","55","High_HMMActual","","","","","","1250.6600000014296","","","","Images/NewTrialWC.png","","0"
"image-button-response","552","634554","0.0-13.0-1.164","55","High_HMMActual","","","","","","null","","","","Images/BlackBeadChoice.png","","null"
"image-button-response","553","635056","0.0-13.0-2.164","55","High_HMMActual","","","","","","null","","","","Images/BlackBeadChoiceCorrect.png","","null"
"image-button-response","554","636297","0.0-13.0-0.165","55","High_HMMActual","","","","","","1239.884999999078","","","","Images/NewTrialBC.png","","2"
"image-button-response","555","636600","0.0-13.0-1.165","55","High_HMMActual","","","","","","null","","","","Images/WhiteBeadChoice.png","","null"
"image-button-response","556","637101","0.0-13.0-2.165","55","High_HMMActual","","","","","","null","","","","Images/WhiteBeadChoiceCorrect.png","","null"
"image-button-response","557","638235","0.0-13.0-0.166","55","High_HMMActual","","","","","","1131.8499999997439","","","","Images/NewTrialWC.png","","0"
"image-button-response","558","638538","0.0-13.0-1.166","55","High_HMMActual","","","","","","null","","","","Images/BlackBeadChoice.png","","null"
"image-button-response","559","639040","0.0-13.0-2.166","55","High_HMMActual","","","","","","null","","","","Images/BlackBeadChoiceCorrect.png","","null"
"image-button-response","560","640639","0.0-13.0-0.167","55","High_HMMActual","","","","","","1597.7549999988405","","","","Images/NewTrialBC.png","","2"
"image-button-response","561","640941","0.0-13.0-1.167","55","High_HMMActual","","","","","","null","","","","Images/WhiteBeadChoice.png","","null"
"image-button-response","562","641443","0.0-13.0-2.167","55","High_HMMActual","","","","","","null","","","","Images/WhiteBeadChoiceCorrect.png","","null"
"image-button-response","563","642409","0.0-13.0-0.168","55","High_HMMActual","","","","","","964.2800000001444","","","","Images/NewTrialWC.png","","0"
"image-button-response","564","642710","0.0-13.0-1.168","55","High_HMMActual","","","","","","null","","","","Images/BlackBeadChoice.png","","null"
"image-button-response","565","643211","0.0-13.0-2.168","55","High_HMMActual","","","","","","null","","","","Images/BlackBeadChoiceWrong.png","","null"
"image-button-response","566","646295","0.0-13.0-0.169","55","High_HMMActual","","","","","","3081.9350000001723","","","","Images/NewTrialWC.png","","3"
"image-button-response","567","646598","0.0-13.0-1.169","55","High_HMMActual","","","","","","null","","","","Images/WhiteBeadChoice.png","","null"
"image-button-response","568","647101","0.0-13.0-2.169","55","High_HMMActual","","","","","","null","","","","Images/WhiteBeadChoiceCorrect.png","","null"
"image-button-response","569","648281","0.0-13.0-0.170","55","High_HMMActual","","","","","","1179.2299999997485","","","","Images/NewTrialWC.png","","0"
"image-button-response","570","648583","0.0-13.0-1.170","55","High_HMMActual","","","","","","null","","","","Images/BlackBeadChoice.png","","null"
"image-button-response","571","649085","0.0-13.0-2.170","55","High_HMMActual","","","","","","null","","","","Images/BlackBeadChoiceCorrect.png","","null"
"image-button-response","572","650077","0.0-13.0-0.171","55","High_HMMActual","","","","","","983.1749999993481","","","","Images/NewTrialBC.png","","2"
"image-button-response","573","650379","0.0-13.0-1.171","55","High_HMMActual","","","","","","null","","","","Images/WhiteBeadChoice.png","","null"
"image-button-response","574","650881","0.0-13.0-2.171","55","High_HMMActual","","","","","","null","","","","Images/WhiteBeadChoiceCorrect.png","","null"
"image-button-response","575","651639","0.0-13.0-0.172","55","High_HMMActual","","","","","","755.8349999999627","","","","Images/NewTrialWC.png","","0"
"image-button-response","576","651941","0.0-13.0-1.172","55","High_HMMActual","","","","","","null","","","","Images/BlackBeadChoice.png","","null"
"image-button-response","577","652443","0.0-13.0-2.172","55","High_HMMActual","","","","","","null","","","","Images/BlackBeadChoiceCorrect.png","","null"
"image-button-response","578","652817","0.0-13.0-0.173","55","High_HMMActual","","","","","","371.6549999989802","","","","Images/NewTrialBC.png","","2"
"image-button-response","579","653119","0.0-13.0-1.173","55","High_HMMActual","","","","","","null","","","","Images/WhiteBeadChoice.png","","null"
"image-button-response","580","653628","0.0-13.0-2.173","55","High_HMMActual","","","","","","null","","","","Images/WhiteBeadChoiceCorrect.png","","null"
"image-button-response","581","653969","0.0-13.0-0.174","55","High_HMMActual","","","","","","339.23499999940395","","","","Images/NewTrialWC.png","","0"
"image-button-response","582","654270","0.0-13.0-1.174","55","High_HMMActual","","","","","","null","","","","Images/BlackBeadChoice.png","","null"
"image-button-response","583","654771","0.0-13.0-2.174","55","High_HMMActual","","","","","","null","","","","Images/BlackBeadChoiceCorrect.png","","null"
"image-button-response","584","654883","0.0-13.0-0.175","55","High_HMMActual","","","","","","110.25999999942724","","","","Images/NewTrialBC.png","","2"
"image-button-response","585","655186","0.0-13.0-1.175","55","High_HMMActual","","","","","","null","","","","Images/WhiteBeadChoice.png","","null"
"image-button-response","586","655689","0.0-13.0-2.175","55","High_HMMActual","","","","","","null","","","","Images/WhiteBeadChoiceCorrect.png","","null"
"image-button-response","587","657311","0.0-13.0-0.176","55","High_HMMActual","","","","","","1620.9950000011595","","","","Images/NewTrialWC.png","","0"
"image-button-response","588","657613","0.0-13.0-1.176","55","High_HMMActual","","","","","","null","","","","Images/BlackBeadChoice.png","","null"
"image-button-response","589","658116","0.0-13.0-2.176","55","High_HMMActual","","","","","","null","","","","Images/BlackBeadChoiceCorrect.png","","null"
"image-button-response","590","663231","0.0-13.0-0.177","55","High_HMMActual","","","","","","5113.605000000447","","","","Images/NewTrialBC.png","","2"
"image-button-response","591","663534","0.0-13.0-1.177","55","High_HMMActual","","","","","","null","","","","Images/WhiteBeadChoice.png","","null"
"image-button-response","592","664036","0.0-13.0-2.177","55","High_HMMActual","","","","","","null","","","","Images/WhiteBeadChoiceCorrect.png","","null"
"image-button-response","593","666780","0.0-13.0-0.178","55","High_HMMActual","","","","","","2743.9299999986542","","","","Images/NewTrialWC.png","","0"
"image-button-response","594","667083","0.0-13.0-1.178","55","High_HMMActual","","","","","","null","","","","Images/BlackBeadChoice.png","","null"
"image-button-response","595","667585","0.0-13.0-2.178","55","High_HMMActual","","","","","","null","","","","Images/BlackBeadChoiceCorrect.png","","null"
"image-button-response","596","669532","0.0-13.0-0.179","55","High_HMMActual","","","","","","1945.894999998971","","","","Images/NewTrialBC.png","","0"
"image-button-response","597","669835","0.0-13.0-1.179","55","High_HMMActual","","","","","","null","","","","Images/BlackBeadChoice.png","","null"
"image-button-response","598","670337","0.0-13.0-2.179","55","High_HMMActual","","","","","","null","","","","Images/BlackBeadChoiceWrong.png","","null"
"image-button-response","599","672304","0.0-13.0-0.180","55","High_HMMActual","","","","","","1966.3600000004517","","","","Images/NewTrialWC.png","","0"
"image-button-response","600","672608","0.0-13.0-1.180","55","High_HMMActual","","","","","","null","","","","Images/BlackBeadChoice.png","","null"
"image-button-response","601","673109","0.0-13.0-2.180","55","High_HMMActual","","","","","","null","","","","Images/BlackBeadChoiceCorrect.png","","null"
"image-button-response","602","673562","0.0-13.0-0.181","55","High_HMMActual","","","","","","451.835000001709","","","","Images/NewTrialBC.png","","2"
"image-button-response","603","673864","0.0-13.0-1.181","55","High_HMMActual","","","","","","null","","","","Images/WhiteBeadChoice.png","","null"
"image-button-response","604","674366","0.0-13.0-2.181","55","High_HMMActual","","","","","","null","","","","Images/WhiteBeadChoiceCorrect.png","","null"
"image-button-response","605","674837","0.0-13.0-0.182","55","High_HMMActual","","","","","","468.5599999993574","","","","Images/NewTrialWC.png","","0"
"image-button-response","606","675138","0.0-13.0-1.182","55","High_HMMActual","","","","","","null","","","","Images/BlackBeadChoice.png","","null"
"image-button-response","607","675641","0.0-13.0-2.182","55","High_HMMActual","","","","","","null","","","","Images/BlackBeadChoiceCorrect.png","","null"
"image-button-response","608","675828","0.0-13.0-0.183","55","High_HMMActual","","","","","","184.62999999977183","","","","Images/NewTrialBC.png","","2"
"image-button-response","609","676129","0.0-13.0-1.183","55","High_HMMActual","","","","","","null","","","","Images/WhiteBeadChoice.png","","null"
"image-button-response","610","676631","0.0-13.0-2.183","55","High_HMMActual","","","","","","null","","","","Images/WhiteBeadChoiceCorrect.png","","null"
"image-button-response","611","676758","0.0-13.0-0.184","55","High_HMMActual","","","","","","125.00499999988824","","","","Images/NewTrialWC.png","","0"
"image-button-response","612","677061","0.0-13.0-1.184","55","High_HMMActual","","","","","","null","","","","Images/BlackBeadChoice.png","","null"
"image-button-response","613","677562","0.0-13.0-2.184","55","High_HMMActual","","","","","","null","","","","Images/BlackBeadChoiceWrong.png","","null"
"image-button-response","614","679988","0.0-13.0-0.185","55","High_HMMActual","","","","","","2423.8750000004657","","","","Images/NewTrialWC.png","","2"
"image-button-response","615","680291","0.0-13.0-1.185","55","High_HMMActual","","","","","","null","","","","Images/WhiteBeadChoice.png","","null"
"image-button-response","616","680793","0.0-13.0-2.185","55","High_HMMActual","","","","","","null","","","","Images/WhiteBeadChoiceCorrect.png","","null"
"image-button-response","617","680950","0.0-13.0-0.186","55","High_HMMActual","","","","","","155.0750000005355","","","","Images/NewTrialWC.png","","2"
"image-button-response","618","681252","0.0-13.0-1.186","55","High_HMMActual","","","","","","null","","","","Images/WhiteBeadChoice.png","","null"
"image-button-response","619","681754","0.0-13.0-2.186","55","High_HMMActual","","","","","","null","","","","Images/WhiteBeadChoiceCorrect.png","","null"
"image-button-response","620","682442","0.0-13.0-0.187","55","High_HMMActual","","","","","","686.7949999995762","","","","Images/NewTrialWC.png","","2"
"image-button-response","621","682744","0.0-13.0-1.187","55","High_HMMActual","","","","","","null","","","","Images/WhiteBeadChoice.png","","null"
"image-button-response","622","683246","0.0-13.0-2.187","55","High_HMMActual","","","","","","null","","","","Images/WhiteBeadChoiceCorrect.png","","null"
"image-button-response","623","684094","0.0-13.0-0.188","55","High_HMMActual","","","","","","846.835000000312","","","","Images/NewTrialWC.png","","2"
"image-button-response","624","684398","0.0-13.0-1.188","55","High_HMMActual","","","","","","null","","","","Images/WhiteBeadChoice.png","","null"
"image-button-response","625","684900","0.0-13.0-2.188","55","High_HMMActual","","","","","","null","","","","Images/WhiteBeadChoiceWrong.png","","null"
"image-button-response","626","686112","0.0-13.0-0.189","55","High_HMMActual","","","","","","1211.444999998901","","","","Images/NewTrialBC.png","","1"
"image-button-response","627","686415","0.0-13.0-1.189","55","High_HMMActual","","","","","","null","","","","Images/BlackBeadChoice.png","","null"
"image-button-response","628","686918","0.0-13.0-2.189","55","High_HMMActual","","","","","","null","","","","Images/BlackBeadChoiceWrong.png","","null"
"image-button-response","629","687964","0.0-13.0-0.190","55","High_HMMActual","","","","","","1044.8350000006612","","","","Images/NewTrialWC.png","","1"
"image-button-response","630","688266","0.0-13.0-1.190","55","High_HMMActual","","","","","","null","","","","Images/BlackBeadChoice.png","","null"
"image-button-response","631","688768","0.0-13.0-2.190","55","High_HMMActual","","","","","","null","","","","Images/BlackBeadChoiceCorrect.png","","null"
"image-button-response","632","689470","0.0-13.0-0.191","55","High_HMMActual","","","","","","701.1149999998743","","","","Images/NewTrialBC.png","","0"
"image-button-response","633","689774","0.0-13.0-1.191","55","High_HMMActual","","","","","","null","","","","Images/BlackBeadChoice.png","","null"
"image-button-response","634","690277","0.0-13.0-2.191","55","High_HMMActual","","","","","","null","","","","Images/BlackBeadChoiceCorrect.png","","null"
"image-button-response","635","691104","0.0-13.0-0.192","55","High_HMMActual","","","","","","826.3100000004051","","","","Images/NewTrialBC.png","","0"
"image-button-response","636","691407","0.0-13.0-1.192","55","High_HMMActual","","","","","","null","","","","Images/BlackBeadChoice.png","","null"
"image-button-response","637","691908","0.0-13.0-2.192","55","High_HMMActual","","","","","","null","","","","Images/BlackBeadChoiceCorrect.png","","null"
"image-button-response","638","693342","0.0-13.0-0.193","55","High_HMMActual","","","","","","1432.2850000008475","","","","Images/NewTrialBC.png","","0"
"image-button-response","639","693652","0.0-13.0-1.193","55","High_HMMActual","","","","","","null","","","","Images/BlackBeadChoice.png","","null"
"image-button-response","640","694155","0.0-13.0-2.193","55","High_HMMActual","","","","","","null","","","","Images/BlackBeadChoiceWrong.png","","null"
"image-button-response","641","697252","0.0-13.0-0.194","55","High_HMMActual","","","","","","3096.024999998859","","","","Images/NewTrialWC.png","","3"
"image-button-response","642","697555","0.0-13.0-1.194","55","High_HMMActual","","","","","","null","","","","Images/WhiteBeadChoice.png","","null"
"image-button-response","643","698056","0.0-13.0-2.194","55","High_HMMActual","","","","","","null","","","","Images/WhiteBeadChoiceWrong.png","","null"
"image-button-response","644","698704","0.0-13.0-0.195","55","High_HMMActual","","","","","","645.5300000016578","","","","Images/NewTrialBC.png","","2"
"image-button-response","645","699007","0.0-13.0-1.195","55","High_HMMActual","","","","","","null","","","","Images/WhiteBeadChoice.png","","null"
"image-button-response","646","699508","0.0-13.0-2.195","55","High_HMMActual","","","","","","null","","","","Images/WhiteBeadChoiceCorrect.png","","null"
"image-button-response","647","700474","0.0-13.0-0.196","55","High_HMMActual","","","","","","964.6750000010943","","","","Images/NewTrialWC.png","","0"
"image-button-response","648","700776","0.0-13.0-1.196","55","High_HMMActual","","","","","","null","","","","Images/BlackBeadChoice.png","","null"
"image-button-response","649","701278","0.0-13.0-2.196","55","High_HMMActual","","","","","","null","","","","Images/BlackBeadChoiceCorrect.png","","null"
"image-button-response","650","701756","0.0-13.0-0.197","55","High_HMMActual","","","","","","476.7250000004424","","","","Images/NewTrialBC.png","","0"
"image-button-response","651","702058","0.0-13.0-1.197","55","High_HMMActual","","","","","","null","","","","Images/BlackBeadChoice.png","","null"
"image-button-response","652","702561","0.0-13.0-2.197","55","High_HMMActual","","","","","","null","","","","Images/BlackBeadChoiceCorrect.png","","null"
"image-button-response","653","703135","0.0-13.0-0.198","55","High_HMMActual","","","","","","571.6649999994552","","","","Images/NewTrialBC.png","","0"
