"trial_type","trial_index","time_elapsed","internal_node_id","Script_Picker","Block_Type","success","timeout","failed_images","failed_audio","failed_video","rt","url","responses","question_order","stimulus","key_press","response"
"pavlovia","0","10","0.0-0.0","157","Low_HMMActual","","","","","","","","","","","",""
"preload","1","15","0.0-1.0","157","Low_HMMActual","true","false","[]","[]","[]","","","","","","",""
"external-html","2","31526","0.0-2.0-0.0","157","Low_HMMActual","","","","","","31369","consent.html","","","","",""
"survey-multi-choice","3","72802","0.0-2.0-1.0","157","Low_HMMActual","","","","","","41269","","{""Q0"":""Male"",""Q1"":""White""}","[0,1]","","",""
"survey-text","4","84663","0.0-2.0-2.0","157","Low_HMMActual","","","","","","11855","","{""Q0"":""25""}","","","",""
"survey-text","5","91169","0.0-2.0-3.0","157","Low_HMMActual","","","","","","6399","","{""Q0"":""5e864bd263e1792768911573""}","","","",""
"image-keyboard-response","6","129167","0.0-3.0-0.0","157","Low_HMMActual","","","","","","37888","","","","tutorial/tutorial1.png"," ",""
"image-keyboard-response","7","351218","0.0-3.0-0.1","157","Low_HMMActual","","","","","","222042","","","","tutorial/tutorial2.png"," ",""
"image-keyboard-response","8","356134","0.0-3.0-0.2","157","Low_HMMActual","","","","","","4914","","","","tutorial/tutorial3.png"," ",""
"image-keyboard-response","9","357285","0.0-3.0-0.3","157","Low_HMMActual","","","","","","1148","","","","tutorial/tutorial4.png"," ",""
"image-keyboard-response","10","361656","0.0-3.0-0.4","157","Low_HMMActual","","","","","","4369","","","","tutorial/tutorial5.png"," ",""
"image-keyboard-response","11","379007","0.0-3.0-0.5","157","Low_HMMActual","","","","","","17350","","","","tutorial/tutorial6.png"," ",""
"image-keyboard-response","12","383327","0.0-3.0-0.6","157","Low_HMMActual","","","","","","4318","","","","tutorial/tutorial7.png"," ",""
"image-keyboard-response","13","435596","0.0-3.0-0.7","157","Low_HMMActual","","","","","","52267","","","","tutorial/tutorial8.png"," ",""
"image-keyboard-response","14","446810","0.0-3.0-0.8","157","Low_HMMActual","","","","","","11213","","","","tutorial/tutorial9.png"," ",""
"image-keyboard-response","15","457760","0.0-3.0-0.9","157","Low_HMMActual","","","","","","10947","","","","tutorial/tutorial10.png"," ",""
"image-keyboard-response","16","459848","0.0-3.0-0.10","157","Low_HMMActual","","","","","","2085","","","","tutorial/tutorial11.png"," ",""
"image-keyboard-response","17","476157","0.0-3.0-0.11","157","Low_HMMActual","","","","","","16306","","","","tutorial/tutorial12.png"," ",""
"image-keyboard-response","18","510140","0.0-3.0-0.12","157","Low_HMMActual","","","","","","33980","","","","tutorial/tutorial13.png"," ",""
"image-keyboard-response","19","528502","0.0-3.0-0.13","157","Low_HMMActual","","","","","","18361","","","","tutorial/tutorial14.png"," ",""
"image-keyboard-response","20","532010","0.0-3.0-0.14","157","Low_HMMActual","","","","","","3507","","","","tutorial/tutorial15.png"," ",""
"image-keyboard-response","21","544689","0.0-4.0","157","Low_HMMActual","","","","","","12676","","","","tutorial/tutorial16.png","arrowup",""
"image-keyboard-response","22","551907","0.0-5.0","157","Low_HMMActual","","","","","","6142","","","","tutorial/tutorial17.png","arrowright",""
"image-keyboard-response","23","556522","0.0-6.0","157","Low_HMMActual","","","","","","3819","","","","tutorial/tutorial18.png","arrowleft",""
"image-keyboard-response","24","591831","0.0-7.0","157","Low_HMMActual","","","","","","34798","","","","tutorial/tutorial19.png"," ",""
"html-keyboard-response","25","603922","0.0-8.0","157","Low_HMMActual","","","","","","12088","","","","<div class=""container"" style=""height:800px;width:800px;display:flex;flex-direction:column;justify-content:center;align-items:center;text-align:center;font-weight:normal;font-family:Arial;font-size:20px""><p>Loading episode&hellip;</p><div>"," ",""
"image-button-response","26","622067","0.0-9.0-0.0","157","Low_HMMActual","","","","","","18139","","","","Images/NoChoice.png","","1"
"image-button-response","27","622386","0.0-9.0-1.0","157","Low_HMMActual","","","","","","null","","","","Images/BlackBeadChoice.png","","null"
"image-button-response","28","622903","0.0-9.0-2.0","157","Low_HMMActual","","","","","","null","","","","Images/BlackBeadChoiceWrong.png","","null"
"image-button-response","29","634678","0.0-9.0-0.1","157","Low_HMMActual","","","","","","11772","","","","Images/NewTrialWC.png","","2"
"image-button-response","30","634990","0.0-9.0-1.1","157","Low_HMMActual","","","","","","null","","","","Images/WhiteBeadChoice.png","","null"
"image-button-response","31","635507","0.0-9.0-2.1","157","Low_HMMActual","","","","","","null","","","","Images/WhiteBeadChoiceWrong.png","","null"
"image-button-response","32","646823","0.0-9.0-0.2","157","Low_HMMActual","","","","","","11312","","","","Images/NewTrialBC.png","","3"
"image-button-response","33","647132","0.0-9.0-1.2","157","Low_HMMActual","","","","","","null","","","","Images/WhiteBeadChoice.png","","null"
"image-button-response","34","647648","0.0-9.0-2.2","157","Low_HMMActual","","","","","","null","","","","Images/WhiteBeadChoiceCorrect.png","","null"
"image-button-response","35","651184","0.0-9.0-0.3","157","Low_HMMActual","","","","","","3535","","","","Images/NewTrialWC.png","","2"
"image-button-response","36","651501","0.0-9.0-1.3","157","Low_HMMActual","","","","","","null","","","","Images/WhiteBeadChoice.png","","null"
"image-button-response","37","652005","0.0-9.0-2.3","157","Low_HMMActual","","","","","","null","","","","Images/WhiteBeadChoiceWrong.png","","null"
"image-button-response","38","657545","0.0-9.0-0.4","157","Low_HMMActual","","","","","","5539","","","","Images/NewTrialBC.png","","3"
"image-button-response","39","657854","0.0-9.0-1.4","157","Low_HMMActual","","","","","","null","","","","Images/WhiteBeadChoice.png","","null"
"image-button-response","40","658369","0.0-9.0-2.4","157","Low_HMMActual","","","","","","null","","","","Images/WhiteBeadChoiceWrong.png","","null"
"image-button-response","41","667259","0.0-9.0-0.5","157","Low_HMMActual","","","","","","8887","","","","Images/NewTrialBC.png","","0"
"image-button-response","42","667567","0.0-9.0-1.5","157","Low_HMMActual","","","","","","null","","","","Images/BlackBeadChoice.png","","null"
"image-button-response","43","668084","0.0-9.0-2.5","157","Low_HMMActual","","","","","","null","","","","Images/BlackBeadChoiceCorrect.png","","null"
"image-button-response","44","669093","0.0-9.0-0.6","157","Low_HMMActual","","","","","","1006","","","","Images/NewTrialBC.png","","0"
"image-button-response","45","669404","0.0-9.0-1.6","157","Low_HMMActual","","","","","","null","","","","Images/BlackBeadChoice.png","","null"
"image-button-response","46","669907","0.0-9.0-2.6","157","Low_HMMActual","","","","","","null","","","","Images/BlackBeadChoiceCorrect.png","","null"
"image-button-response","47","670042","0.0-9.0-0.7","157","Low_HMMActual","","","","","","132","","","","Images/NewTrialBC.png","","0"
"image-button-response","48","670345","0.0-9.0-1.7","157","Low_HMMActual","","","","","","null","","","","Images/BlackBeadChoice.png","","null"
"image-button-response","49","670849","0.0-9.0-2.7","157","Low_HMMActual","","","","","","null","","","","Images/BlackBeadChoiceCorrect.png","","null"
"image-button-response","50","671110","0.0-9.0-0.8","157","Low_HMMActual","","","","","","260","","","","Images/NewTrialBC.png","","0"
"image-button-response","51","671415","0.0-9.0-1.8","157","Low_HMMActual","","","","","","null","","","","Images/BlackBeadChoice.png","","null"
"image-button-response","52","671933","0.0-9.0-2.8","157","Low_HMMActual","","","","","","null","","","","Images/BlackBeadChoiceWrong.png","","null"
"image-button-response","53","672525","0.0-9.0-0.9","157","Low_HMMActual","","","","","","591","","","","Images/NewTrialWC.png","","0"
"image-button-response","54","672842","0.0-9.0-1.9","157","Low_HMMActual","","","","","","null","","","","Images/BlackBeadChoice.png","","null"
"image-button-response","55","673359","0.0-9.0-2.9","157","Low_HMMActual","","","","","","null","","","","Images/BlackBeadChoiceCorrect.png","","null"
"html-keyboard-response","56","677347","0.0-10.0","157","Low_HMMActual","","","","","","3986","","","",""," ",""
"image-keyboard-response","57","681446","0.0-11.0","157","Low_HMMActual","","","","","","4096","","","","tutorial/tutorial20.png"," ",""
"html-keyboard-response","58","687952","0.0-12.0","157","Low_HMMActual","","","","","","6505","","","","<div class=""container"" style=""height:800px;width:800px;display:flex;flex-direction:column;justify-content:center;align-items:center;text-align:center;font-weight:normal;font-family:Arial;font-size:20px""><p>Loading episode&hellip;</p><div>"," ",""
"image-button-response","59","691590","0.0-13.0-0.0","157","Low_HMMActual","","","","","","3636","","","","Images/NoChoice.png","","1"
"image-button-response","60","691907","0.0-13.0-1.0","157","Low_HMMActual","","","","","","null","","","","Images/BlackBeadChoice.png","","null"
"image-button-response","61","692424","0.0-13.0-2.0","157","Low_HMMActual","","","","","","null","","","","Images/BlackBeadChoiceWrong.png","","null"
"image-button-response","62","695346","0.0-13.0-0.1","157","Low_HMMActual","","","","","","2918","","","","Images/NewTrialWC.png","","2"
"image-button-response","63","695654","0.0-13.0-1.1","157","Low_HMMActual","","","","","","null","","","","Images/WhiteBeadChoice.png","","null"
"image-button-response","64","696169","0.0-13.0-2.1","157","Low_HMMActual","","","","","","null","","","","Images/WhiteBeadChoiceWrong.png","","null"
"image-button-response","65","697228","0.0-13.0-0.2","157","Low_HMMActual","","","","","","1056","","","","Images/NewTrialBC.png","","3"
"image-button-response","66","697536","0.0-13.0-1.2","157","Low_HMMActual","","","","","","null","","","","Images/WhiteBeadChoice.png","","null"
"image-button-response","67","698042","0.0-13.0-2.2","157","Low_HMMActual","","","","","","null","","","","Images/WhiteBeadChoiceCorrect.png","","null"
"image-button-response","68","699548","0.0-13.0-0.3","157","Low_HMMActual","","","","","","1503","","","","Images/NewTrialWC.png","","2"
"image-button-response","69","699859","0.0-13.0-1.3","157","Low_HMMActual","","","","","","null","","","","Images/WhiteBeadChoice.png","","null"
"image-button-response","70","700364","0.0-13.0-2.3","157","Low_HMMActual","","","","","","null","","","","Images/WhiteBeadChoiceWrong.png","","null"
"image-button-response","71","708795","0.0-13.0-0.4","157","Low_HMMActual","","","","","","8426","","","","Images/NewTrialBC.png","","3"
"image-button-response","72","709111","0.0-13.0-1.4","157","Low_HMMActual","","","","","","null","","","","Images/WhiteBeadChoice.png","","null"
"image-button-response","73","709624","0.0-13.0-2.4","157","Low_HMMActual","","","","","","null","","","","Images/WhiteBeadChoiceWrong.png","","null"
"image-button-response","74","710576","0.0-13.0-0.5","157","Low_HMMActual","","","","","","950","","","","Images/NewTrialBC.png","","0"
"image-button-response","75","710882","0.0-13.0-1.5","157","Low_HMMActual","","","","","","null","","","","Images/BlackBeadChoice.png","","null"
"image-button-response","76","711384","0.0-13.0-2.5","157","Low_HMMActual","","","","","","null","","","","Images/BlackBeadChoiceCorrect.png","","null"
"image-button-response","77","711598","0.0-13.0-0.6","157","Low_HMMActual","","","","","","211","","","","Images/NewTrialBC.png","","0"
"image-button-response","78","711901","0.0-13.0-1.6","157","Low_HMMActual","","","","","","null","","","","Images/BlackBeadChoice.png","","null"
"image-button-response","79","712418","0.0-13.0-2.6","157","Low_HMMActual","","","","","","389","","","","Images/BlackBeadChoiceCorrect.png","","0"
"image-button-response","80","713673","0.0-13.0-0.7","157","Low_HMMActual","","","","","","1253","","","","Images/NewTrialBC.png","","0"
"image-button-response","81","713984","0.0-13.0-1.7","157","Low_HMMActual","","","","","","null","","","","Images/BlackBeadChoice.png","","null"
"image-button-response","82","714499","0.0-13.0-2.7","157","Low_HMMActual","","","","","","393","","","","Images/BlackBeadChoiceCorrect.png","","0"
"image-button-response","83","715441","0.0-13.0-0.8","157","Low_HMMActual","","","","","","935","","","","Images/NewTrialBC.png","","0"
"image-button-response","84","715749","0.0-13.0-1.8","157","Low_HMMActual","","","","","","null","","","","Images/BlackBeadChoice.png","","null"
"image-button-response","85","716265","0.0-13.0-2.8","157","Low_HMMActual","","","","","","null","","","","Images/BlackBeadChoiceWrong.png","","null"
"image-button-response","86","716849","0.0-13.0-0.9","157","Low_HMMActual","","","","","","581","","","","Images/NewTrialWC.png","","0"
"image-button-response","87","717159","0.0-13.0-1.9","157","Low_HMMActual","","","","","","null","","","","Images/BlackBeadChoice.png","","null"
"image-button-response","88","717675","0.0-13.0-2.9","157","Low_HMMActual","","","","","","null","","","","Images/BlackBeadChoiceCorrect.png","","null"
"image-button-response","89","718006","0.0-13.0-0.10","157","Low_HMMActual","","","","","","330","","","","Images/NewTrialBC.png","","0"
"image-button-response","90","718319","0.0-13.0-1.10","157","Low_HMMActual","","","","","","null","","","","Images/BlackBeadChoice.png","","null"
"image-button-response","91","718821","0.0-13.0-2.10","157","Low_HMMActual","","","","","","480","","","","Images/BlackBeadChoiceCorrect.png","","0"
"image-button-response","92","719513","0.0-13.0-0.11","157","Low_HMMActual","","","","","","689","","","","Images/NewTrialBC.png","","0"
"image-button-response","93","719826","0.0-13.0-1.11","157","Low_HMMActual","","","","","","null","","","","Images/BlackBeadChoice.png","","null"
"image-button-response","94","720340","0.0-13.0-2.11","157","Low_HMMActual","","","","","","null","","","","Images/BlackBeadChoiceCorrect.png","","null"
"image-button-response","95","720916","0.0-13.0-0.12","157","Low_HMMActual","","","","","","574","","","","Images/NewTrialBC.png","","0"
"image-button-response","96","721229","0.0-13.0-1.12","157","Low_HMMActual","","","","","","null","","","","Images/BlackBeadChoice.png","","null"
"image-button-response","97","721744","0.0-13.0-2.12","157","Low_HMMActual","","","","","","null","","","","Images/BlackBeadChoiceCorrect.png","","null"
"image-button-response","98","722018","0.0-13.0-0.13","157","Low_HMMActual","","","","","","269","","","","Images/NewTrialBC.png","","0"
"image-button-response","99","722324","0.0-13.0-1.13","157","Low_HMMActual","","","","","","null","","","","Images/BlackBeadChoice.png","","null"
"image-button-response","100","722828","0.0-13.0-2.13","157","Low_HMMActual","","","","","","null","","","","Images/BlackBeadChoiceWrong.png","","null"
"image-button-response","101","723516","0.0-13.0-0.14","157","Low_HMMActual","","","","","","686","","","","Images/NewTrialWC.png","","0"
"image-button-response","102","723833","0.0-13.0-1.14","157","Low_HMMActual","","","","","","null","","","","Images/BlackBeadChoice.png","","null"
"image-button-response","103","724335","0.0-13.0-2.14","157","Low_HMMActual","","","","","","null","","","","Images/BlackBeadChoiceCorrect.png","","null"
"image-button-response","104","724950","0.0-13.0-0.15","157","Low_HMMActual","","","","","","612","","","","Images/NewTrialBC.png","","0"
"image-button-response","105","725256","0.0-13.0-1.15","157","Low_HMMActual","","","","","","null","","","","Images/BlackBeadChoice.png","","null"
"image-button-response","106","725771","0.0-13.0-2.15","157","Low_HMMActual","","","","","","null","","","","Images/BlackBeadChoiceCorrect.png","","null"
"image-button-response","107","726574","0.0-13.0-0.16","157","Low_HMMActual","","","","","","802","","","","Images/NewTrialBC.png","","0"
"image-button-response","108","726884","0.0-13.0-1.16","157","Low_HMMActual","","","","","","null","","","","Images/BlackBeadChoice.png","","null"
"image-button-response","109","727399","0.0-13.0-2.16","157","Low_HMMActual","","","","","","null","","","","Images/BlackBeadChoiceWrong.png","","null"
"image-button-response","110","727829","0.0-13.0-0.17","157","Low_HMMActual","","","","","","429","","","","Images/NewTrialWC.png","","0"
"image-button-response","111","728137","0.0-13.0-1.17","157","Low_HMMActual","","","","","","null","","","","Images/BlackBeadChoice.png","","null"
"image-button-response","112","728652","0.0-13.0-2.17","157","Low_HMMActual","","","","","","null","","","","Images/BlackBeadChoiceCorrect.png","","null"
"image-button-response","113","729306","0.0-13.0-0.18","157","Low_HMMActual","","","","","","651","","","","Images/NewTrialBC.png","","0"
"image-button-response","114","729622","0.0-13.0-1.18","157","Low_HMMActual","","","","","","null","","","","Images/BlackBeadChoice.png","","null"
"image-button-response","115","730124","0.0-13.0-2.18","157","Low_HMMActual","","","","","","null","","","","Images/BlackBeadChoiceCorrect.png","","null"
"image-button-response","116","730764","0.0-13.0-0.19","157","Low_HMMActual","","","","","","636","","","","Images/NewTrialBC.png","","0"
"image-button-response","117","731084","0.0-13.0-1.19","157","Low_HMMActual","","","","","","null","","","","Images/BlackBeadChoice.png","","null"
"image-button-response","118","731601","0.0-13.0-2.19","157","Low_HMMActual","","","","","","null","","","","Images/BlackBeadChoiceWrong.png","","null"
"image-button-response","119","732224","0.0-13.0-0.20","157","Low_HMMActual","","","","","","620","","","","Images/NewTrialWC.png","","0"
"image-button-response","120","732526","0.0-13.0-1.20","157","Low_HMMActual","","","","","","null","","","","Images/BlackBeadChoice.png","","null"
"image-button-response","121","733040","0.0-13.0-2.20","157","Low_HMMActual","","","","","","null","","","","Images/BlackBeadChoiceWrong.png","","null"
"image-button-response","122","733970","0.0-13.0-0.21","157","Low_HMMActual","","","","","","928","","","","Images/NewTrialWC.png","","0"
"image-button-response","123","734278","0.0-13.0-1.21","157","Low_HMMActual","","","","","","null","","","","Images/BlackBeadChoice.png","","null"
"image-button-response","124","734794","0.0-13.0-2.21","157","Low_HMMActual","","","","","","null","","","","Images/BlackBeadChoiceCorrect.png","","null"
"image-button-response","125","735429","0.0-13.0-0.22","157","Low_HMMActual","","","","","","632","","","","Images/NewTrialBC.png","","0"
"image-button-response","126","735738","0.0-13.0-1.22","157","Low_HMMActual","","","","","","null","","","","Images/BlackBeadChoice.png","","null"
"image-button-response","127","736241","0.0-13.0-2.22","157","Low_HMMActual","","","","","","null","","","","Images/BlackBeadChoiceWrong.png","","null"
"image-button-response","128","737412","0.0-13.0-0.23","157","Low_HMMActual","","","","","","1168","","","","Images/NewTrialWC.png","","0"
"image-button-response","129","737727","0.0-13.0-1.23","157","Low_HMMActual","","","","","","null","","","","Images/BlackBeadChoice.png","","null"
"image-button-response","130","738239","0.0-13.0-2.23","157","Low_HMMActual","","","","","","null","","","","Images/BlackBeadChoiceWrong.png","","null"
"image-button-response","131","739197","0.0-13.0-0.24","157","Low_HMMActual","","","","","","955","","","","Images/NewTrialWC.png","","1"
"image-button-response","132","739510","0.0-13.0-1.24","157","Low_HMMActual","","","","","","null","","","","Images/BlackBeadChoice.png","","null"
"image-button-response","133","740012","0.0-13.0-2.24","157","Low_HMMActual","","","","","","null","","","","Images/BlackBeadChoiceWrong.png","","null"
"image-button-response","134","741921","0.0-13.0-0.25","157","Low_HMMActual","","","","","","1908","","","","Images/NewTrialWC.png","","1"
"image-button-response","135","742226","0.0-13.0-1.25","157","Low_HMMActual","","","","","","null","","","","Images/BlackBeadChoice.png","","null"
"image-button-response","136","742742","0.0-13.0-2.25","157","Low_HMMActual","","","","","","null","","","","Images/BlackBeadChoiceWrong.png","","null"
"image-button-response","137","744370","0.0-13.0-0.26","157","Low_HMMActual","","","","","","1627","","","","Images/NewTrialWC.png","","3"
"image-button-response","138","744674","0.0-13.0-1.26","157","Low_HMMActual","","","","","","null","","","","Images/WhiteBeadChoice.png","","null"
"image-button-response","139","745189","0.0-13.0-2.26","157","Low_HMMActual","","","","","","null","","","","Images/WhiteBeadChoiceCorrect.png","","null"
"image-button-response","140","745885","0.0-13.0-0.27","157","Low_HMMActual","","","","","","695","","","","Images/NewTrialWC.png","","2"
"image-button-response","141","746193","0.0-13.0-1.27","157","Low_HMMActual","","","","","","null","","","","Images/WhiteBeadChoice.png","","null"
"image-button-response","142","746711","0.0-13.0-2.27","157","Low_HMMActual","","","","","","null","","","","Images/WhiteBeadChoiceCorrect.png","","null"
"image-button-response","143","747284","0.0-13.0-0.28","157","Low_HMMActual","","","","","","571","","","","Images/NewTrialWC.png","","2"
"image-button-response","144","747588","0.0-13.0-1.28","157","Low_HMMActual","","","","","","null","","","","Images/WhiteBeadChoice.png","","null"
"image-button-response","145","748105","0.0-13.0-2.28","157","Low_HMMActual","","","","","","null","","","","Images/WhiteBeadChoiceCorrect.png","","null"
"image-button-response","146","748692","0.0-13.0-0.29","157","Low_HMMActual","","","","","","586","","","","Images/NewTrialWC.png","","2"
"image-button-response","147","748998","0.0-13.0-1.29","157","Low_HMMActual","","","","","","null","","","","Images/WhiteBeadChoice.png","","null"
"image-button-response","148","749514","0.0-13.0-2.29","157","Low_HMMActual","","","","","","null","","","","Images/WhiteBeadChoiceCorrect.png","","null"
"image-button-response","149","749756","0.0-13.0-0.30","157","Low_HMMActual","","","","","","241","","","","Images/NewTrialWC.png","","2"
"image-button-response","150","750060","0.0-13.0-1.30","157","Low_HMMActual","","","","","","null","","","","Images/WhiteBeadChoice.png","","null"
"image-button-response","151","750577","0.0-13.0-2.30","157","Low_HMMActual","","","","","","null","","","","Images/WhiteBeadChoiceCorrect.png","","null"
"image-button-response","152","750852","0.0-13.0-0.31","157","Low_HMMActual","","","","","","274","","","","Images/NewTrialWC.png","","2"
"image-button-response","153","751159","0.0-13.0-1.31","157","Low_HMMActual","","","","","","null","","","","Images/WhiteBeadChoice.png","","null"
"image-button-response","154","751675","0.0-13.0-2.31","157","Low_HMMActual","","","","","","null","","","","Images/WhiteBeadChoiceCorrect.png","","null"
"image-button-response","155","752201","0.0-13.0-0.32","157","Low_HMMActual","","","","","","525","","","","Images/NewTrialWC.png","","2"
"image-button-response","156","752509","0.0-13.0-1.32","157","Low_HMMActual","","","","","","null","","","","Images/WhiteBeadChoice.png","","null"
"image-button-response","157","753024","0.0-13.0-2.32","157","Low_HMMActual","","","","","","null","","","","Images/WhiteBeadChoiceCorrect.png","","null"
"image-button-response","158","753389","0.0-13.0-0.33","157","Low_HMMActual","","","","","","359","","","","Images/NewTrialWC.png","","2"
"image-button-response","159","753693","0.0-13.0-1.33","157","Low_HMMActual","","","","","","null","","","","Images/WhiteBeadChoice.png","","null"
"image-button-response","160","754209","0.0-13.0-2.33","157","Low_HMMActual","","","","","","null","","","","Images/WhiteBeadChoiceCorrect.png","","null"
"image-button-response","161","754595","0.0-13.0-0.34","157","Low_HMMActual","","","","","","384","","","","Images/NewTrialWC.png","","2"
"image-button-response","162","754911","0.0-13.0-1.34","157","Low_HMMActual","","","","","","null","","","","Images/WhiteBeadChoice.png","","null"
"image-button-response","163","755428","0.0-13.0-2.34","157","Low_HMMActual","","","","","","null","","","","Images/WhiteBeadChoiceCorrect.png","","null"
"image-button-response","164","755635","0.0-13.0-0.35","157","Low_HMMActual","","","","","","205","","","","Images/NewTrialWC.png","","2"
"image-button-response","165","755948","0.0-13.0-1.35","157","Low_HMMActual","","","","","","null","","","","Images/WhiteBeadChoice.png","","null"
"image-button-response","166","756453","0.0-13.0-2.35","157","Low_HMMActual","","","","","","452","","","","Images/WhiteBeadChoiceCorrect.png","","2"
"image-button-response","167","756958","0.0-13.0-0.36","157","Low_HMMActual","","","","","","502","","","","Images/NewTrialWC.png","","2"
"image-button-response","168","757267","0.0-13.0-1.36","157","Low_HMMActual","","","","","","null","","","","Images/WhiteBeadChoice.png","","null"
"image-button-response","169","757785","0.0-13.0-2.36","157","Low_HMMActual","","","","","","null","","","","Images/WhiteBeadChoiceWrong.png","","null"
"image-button-response","170","758281","0.0-13.0-0.37","157","Low_HMMActual","","","","","","490","","","","Images/NewTrialBC.png","","2"
"image-button-response","171","758598","0.0-13.0-1.37","157","Low_HMMActual","","","","","","null","","","","Images/WhiteBeadChoice.png","","null"
"image-button-response","172","759112","0.0-13.0-2.37","157","Low_HMMActual","","","","","","null","","","","Images/WhiteBeadChoiceCorrect.png","","null"
"image-button-response","173","759476","0.0-13.0-0.38","157","Low_HMMActual","","","","","","361","","","","Images/NewTrialWC.png","","2"
"image-button-response","174","759786","0.0-13.0-1.38","157","Low_HMMActual","","","","","","null","","","","Images/WhiteBeadChoice.png","","null"
"image-button-response","175","760299","0.0-13.0-2.38","157","Low_HMMActual","","","","","","null","","","","Images/WhiteBeadChoiceWrong.png","","null"
"image-button-response","176","760760","0.0-13.0-0.39","157","Low_HMMActual","","","","","","459","","","","Images/NewTrialBC.png","","2"
"image-button-response","177","761072","0.0-13.0-1.39","157","Low_HMMActual","","","","","","null","","","","Images/WhiteBeadChoice.png","","null"
"image-button-response","178","761578","0.0-13.0-2.39","157","Low_HMMActual","","","","","","null","","","","Images/WhiteBeadChoiceCorrect.png","","null"
"image-button-response","179","762012","0.0-13.0-0.40","157","Low_HMMActual","","","","","","430","","","","Images/NewTrialWC.png","","2"
"image-button-response","180","762317","0.0-13.0-1.40","157","Low_HMMActual","","","","","","null","","","","Images/WhiteBeadChoice.png","","null"
"image-button-response","181","762833","0.0-13.0-2.40","157","Low_HMMActual","","","","","","null","","","","Images/WhiteBeadChoiceCorrect.png","","null"
"image-button-response","182","763186","0.0-13.0-0.41","157","Low_HMMActual","","","","","","352","","","","Images/NewTrialWC.png","","2"
"image-button-response","183","763492","0.0-13.0-1.41","157","Low_HMMActual","","","","","","null","","","","Images/WhiteBeadChoice.png","","null"
"image-button-response","184","764008","0.0-13.0-2.41","157","Low_HMMActual","","","","","","null","","","","Images/WhiteBeadChoiceCorrect.png","","null"
"image-button-response","185","764345","0.0-13.0-0.42","157","Low_HMMActual","","","","","","334","","","","Images/NewTrialWC.png","","2"
"image-button-response","186","764652","0.0-13.0-1.42","157","Low_HMMActual","","","","","","null","","","","Images/WhiteBeadChoice.png","","null"
"image-button-response","187","765167","0.0-13.0-2.42","157","Low_HMMActual","","","","","","null","","","","Images/WhiteBeadChoiceWrong.png","","null"
"image-button-response","188","765532","0.0-13.0-0.43","157","Low_HMMActual","","","","","","362","","","","Images/NewTrialBC.png","","2"
"image-button-response","189","765843","0.0-13.0-1.43","157","Low_HMMActual","","","","","","null","","","","Images/WhiteBeadChoice.png","","null"
"image-button-response","190","766348","0.0-13.0-2.43","157","Low_HMMActual","","","","","","null","","","","Images/WhiteBeadChoiceCorrect.png","","null"
"image-button-response","191","766579","0.0-13.0-0.44","157","Low_HMMActual","","","","","","227","","","","Images/NewTrialWC.png","","2"
"image-button-response","192","766883","0.0-13.0-1.44","157","Low_HMMActual","","","","","","null","","","","Images/WhiteBeadChoice.png","","null"
"image-button-response","193","767397","0.0-13.0-2.44","157","Low_HMMActual","","","","","","null","","","","Images/WhiteBeadChoiceCorrect.png","","null"
"image-button-response","194","767686","0.0-13.0-0.45","157","Low_HMMActual","","","","","","284","","","","Images/NewTrialWC.png","","2"
"image-button-response","195","767992","0.0-13.0-1.45","157","Low_HMMActual","","","","","","null","","","","Images/WhiteBeadChoice.png","","null"
"image-button-response","196","768511","0.0-13.0-2.45","157","Low_HMMActual","","","","","","null","","","","Images/WhiteBeadChoiceCorrect.png","","null"
"image-button-response","197","768743","0.0-13.0-0.46","157","Low_HMMActual","","","","","","231","","","","Images/NewTrialWC.png","","2"
"image-button-response","198","769046","0.0-13.0-1.46","157","Low_HMMActual","","","","","","null","","","","Images/WhiteBeadChoice.png","","null"
"image-button-response","199","769561","0.0-13.0-2.46","157","Low_HMMActual","","","","","","null","","","","Images/WhiteBeadChoiceCorrect.png","","null"
"image-button-response","200","769713","0.0-13.0-0.47","157","Low_HMMActual","","","","","","143","","","","Images/NewTrialWC.png","","2"
"image-button-response","201","770019","0.0-13.0-1.47","157","Low_HMMActual","","","","","","null","","","","Images/WhiteBeadChoice.png","","null"
"image-button-response","202","770532","0.0-13.0-2.47","157","Low_HMMActual","","","","","","null","","","","Images/WhiteBeadChoiceWrong.png","","null"
"image-button-response","203","770888","0.0-13.0-0.48","157","Low_HMMActual","","","","","","355","","","","Images/NewTrialBC.png","","2"
"image-button-response","204","771199","0.0-13.0-1.48","157","Low_HMMActual","","","","","","null","","","","Images/WhiteBeadChoice.png","","null"
"image-button-response","205","771703","0.0-13.0-2.48","157","Low_HMMActual","","","","","","null","","","","Images/WhiteBeadChoiceWrong.png","","null"
"image-button-response","206","771947","0.0-13.0-0.49","157","Low_HMMActual","","","","","","243","","","","Images/NewTrialBC.png","","2"
"image-button-response","207","772250","0.0-13.0-1.49","157","Low_HMMActual","","","","","","null","","","","Images/WhiteBeadChoice.png","","null"
"image-button-response","208","772767","0.0-13.0-2.49","157","Low_HMMActual","","","","","","null","","","","Images/WhiteBeadChoiceCorrect.png","","null"
"image-button-response","209","773374","0.0-13.0-0.50","157","Low_HMMActual","","","","","","602","","","","Images/NewTrialWC.png","","2"
"image-button-response","210","773686","0.0-13.0-1.50","157","Low_HMMActual","","","","","","null","","","","Images/WhiteBeadChoice.png","","null"
"image-button-response","211","774189","0.0-13.0-2.50","157","Low_HMMActual","","","","","","null","","","","Images/WhiteBeadChoiceCorrect.png","","null"
"image-button-response","212","774468","0.0-13.0-0.51","157","Low_HMMActual","","","","","","273","","","","Images/NewTrialWC.png","","2"
"image-button-response","213","774786","0.0-13.0-1.51","157","Low_HMMActual","","","","","","null","","","","Images/WhiteBeadChoice.png","","null"
"image-button-response","214","775292","0.0-13.0-2.51","157","Low_HMMActual","","","","","","null","","","","Images/WhiteBeadChoiceWrong.png","","null"
"image-button-response","215","775650","0.0-13.0-0.52","157","Low_HMMActual","","","","","","356","","","","Images/NewTrialBC.png","","2"
"image-button-response","216","775964","0.0-13.0-1.52","157","Low_HMMActual","","","","","","null","","","","Images/WhiteBeadChoice.png","","null"
"image-button-response","217","776478","0.0-13.0-2.52","157","Low_HMMActual","","","","","","null","","","","Images/WhiteBeadChoiceCorrect.png","","null"
"image-button-response","218","777021","0.0-13.0-0.53","157","Low_HMMActual","","","","","","540","","","","Images/NewTrialWC.png","","2"
"image-button-response","219","777327","0.0-13.0-1.53","157","Low_HMMActual","","","","","","null","","","","Images/WhiteBeadChoice.png","","null"
"image-button-response","220","777842","0.0-13.0-2.53","157","Low_HMMActual","","","","","","null","","","","Images/WhiteBeadChoiceWrong.png","","null"
"image-button-response","221","777992","0.0-13.0-0.54","157","Low_HMMActual","","","","","","147","","","","Images/NewTrialBC.png","","2"
"image-button-response","222","778296","0.0-13.0-1.54","157","Low_HMMActual","","","","","","294","","","","Images/WhiteBeadChoice.png","","2"
"image-button-response","223","778813","0.0-13.0-2.54","157","Low_HMMActual","","","","","","397","","","","Images/WhiteBeadChoiceCorrect.png","","2"
"image-button-response","224","778921","0.0-13.0-0.55","157","Low_HMMActual","","","","","","104","","","","Images/NewTrialWC.png","","2"
"image-button-response","225","779237","0.0-13.0-1.55","157","Low_HMMActual","","","","","","null","","","","Images/WhiteBeadChoice.png","","null"
"image-button-response","226","779755","0.0-13.0-2.55","157","Low_HMMActual","","","","","","null","","","","Images/WhiteBeadChoiceWrong.png","","null"
"image-button-response","227","780349","0.0-13.0-0.56","157","Low_HMMActual","","","","","","590","","","","Images/NewTrialBC.png","","2"
"image-button-response","228","780662","0.0-13.0-1.56","157","Low_HMMActual","","","","","","null","","","","Images/WhiteBeadChoice.png","","null"
"image-button-response","229","781168","0.0-13.0-2.56","157","Low_HMMActual","","","","","","null","","","","Images/WhiteBeadChoiceWrong.png","","null"
"image-button-response","230","785936","0.0-13.0-0.57","157","Low_HMMActual","","","","","","4766","","","","Images/NewTrialBC.png","","2"
"image-button-response","231","786248","0.0-13.0-1.57","157","Low_HMMActual","","","","","","null","","","","Images/WhiteBeadChoice.png","","null"
"image-button-response","232","786751","0.0-13.0-2.57","157","Low_HMMActual","","","","","","null","","","","Images/WhiteBeadChoiceWrong.png","","null"
"image-button-response","233","787791","0.0-13.0-0.58","157","Low_HMMActual","","","","","","1038","","","","Images/NewTrialBC.png","","0"
"image-button-response","234","788107","0.0-13.0-1.58","157","Low_HMMActual","","","","","","null","","","","Images/BlackBeadChoice.png","","null"
"image-button-response","235","788625","0.0-13.0-2.58","157","Low_HMMActual","","","","","","null","","","","Images/BlackBeadChoiceCorrect.png","","null"
"image-button-response","236","788869","0.0-13.0-0.59","157","Low_HMMActual","","","","","","243","","","","Images/NewTrialBC.png","","0"
"image-button-response","237","789176","0.0-13.0-1.59","157","Low_HMMActual","","","","","","299","","","","Images/BlackBeadChoice.png","","0"
"image-button-response","238","789694","0.0-13.0-2.59","157","Low_HMMActual","","","","","","null","","","","Images/BlackBeadChoiceWrong.png","","null"
"image-button-response","239","791675","0.0-13.0-0.60","157","Low_HMMActual","","","","","","1980","","","","Images/NewTrialWC.png","","0"
"image-button-response","240","791980","0.0-13.0-1.60","157","Low_HMMActual","","","","","","null","","","","Images/BlackBeadChoice.png","","null"
"image-button-response","241","792496","0.0-13.0-2.60","157","Low_HMMActual","","","","","","null","","","","Images/BlackBeadChoiceWrong.png","","null"
"image-button-response","242","793578","0.0-13.0-0.61","157","Low_HMMActual","","","","","","1082","","","","Images/NewTrialWC.png","","3"
"image-button-response","243","793888","0.0-13.0-1.61","157","Low_HMMActual","","","","","","null","","","","Images/WhiteBeadChoice.png","","null"
"image-button-response","244","794403","0.0-13.0-2.61","157","Low_HMMActual","","","","","","null","","","","Images/WhiteBeadChoiceCorrect.png","","null"
"image-button-response","245","795100","0.0-13.0-0.62","157","Low_HMMActual","","","","","","692","","","","Images/NewTrialWC.png","","2"
"image-button-response","246","795405","0.0-13.0-1.62","157","Low_HMMActual","","","","","","null","","","","Images/WhiteBeadChoice.png","","null"
"image-button-response","247","795923","0.0-13.0-2.62","157","Low_HMMActual","","","","","","null","","","","Images/WhiteBeadChoiceCorrect.png","","null"
"image-button-response","248","796452","0.0-13.0-0.63","157","Low_HMMActual","","","","","","525","","","","Images/NewTrialWC.png","","2"
"image-button-response","249","796764","0.0-13.0-1.63","157","Low_HMMActual","","","","","","null","","","","Images/WhiteBeadChoice.png","","null"
"image-button-response","250","797284","0.0-13.0-2.63","157","Low_HMMActual","","","","","","399","","","","Images/WhiteBeadChoiceCorrect.png","","2"
"image-button-response","251","797429","0.0-13.0-0.64","157","Low_HMMActual","","","","","","143","","","","Images/NewTrialWC.png","","2"
"image-button-response","252","797739","0.0-13.0-1.64","157","Low_HMMActual","","","","","","null","","","","Images/WhiteBeadChoice.png","","null"
"image-button-response","253","798241","0.0-13.0-2.64","157","Low_HMMActual","","","","","","null","","","","Images/WhiteBeadChoiceWrong.png","","null"
"image-button-response","254","800056","0.0-13.0-0.65","157","Low_HMMActual","","","","","","1812","","","","Images/NewTrialBC.png","","3"
"image-button-response","255","800371","0.0-13.0-1.65","157","Low_HMMActual","","","","","","null","","","","Images/WhiteBeadChoice.png","","null"
"image-button-response","256","800880","0.0-13.0-2.65","157","Low_HMMActual","","","","","","null","","","","Images/WhiteBeadChoiceWrong.png","","null"
"image-button-response","257","801691","0.0-13.0-0.66","157","Low_HMMActual","","","","","","810","","","","Images/NewTrialBC.png","","1"
"image-button-response","258","801996","0.0-13.0-1.66","157","Low_HMMActual","","","","","","null","","","","Images/BlackBeadChoice.png","","null"
"image-button-response","259","802509","0.0-13.0-2.66","157","Low_HMMActual","","","","","","null","","","","Images/BlackBeadChoiceCorrect.png","","null"
"image-button-response","260","803099","0.0-13.0-0.67","157","Low_HMMActual","","","","","","588","","","","Images/NewTrialBC.png","","1"
"image-button-response","261","803415","0.0-13.0-1.67","157","Low_HMMActual","","","","","","null","","","","Images/BlackBeadChoice.png","","null"
"image-button-response","262","803919","0.0-13.0-2.67","157","Low_HMMActual","","","","","","null","","","","Images/BlackBeadChoiceCorrect.png","","null"
"image-button-response","263","804377","0.0-13.0-0.68","157","Low_HMMActual","","","","","","455","","","","Images/NewTrialBC.png","","0"
"image-button-response","264","804687","0.0-13.0-1.68","157","Low_HMMActual","","","","","","null","","","","Images/BlackBeadChoice.png","","null"
"image-button-response","265","805203","0.0-13.0-2.68","157","Low_HMMActual","","","","","","null","","","","Images/BlackBeadChoiceCorrect.png","","null"
"image-button-response","266","805462","0.0-13.0-0.69","157","Low_HMMActual","","","","","","257","","","","Images/NewTrialBC.png","","0"
"image-button-response","267","805769","0.0-13.0-1.69","157","Low_HMMActual","","","","","","null","","","","Images/BlackBeadChoice.png","","null"
"image-button-response","268","806286","0.0-13.0-2.69","157","Low_HMMActual","","","","","","null","","","","Images/BlackBeadChoiceCorrect.png","","null"
"image-button-response","269","806447","0.0-13.0-0.70","157","Low_HMMActual","","","","","","155","","","","Images/NewTrialBC.png","","0"
"image-button-response","270","806758","0.0-13.0-1.70","157","Low_HMMActual","","","","","","null","","","","Images/BlackBeadChoice.png","","null"
"image-button-response","271","807275","0.0-13.0-2.70","157","Low_HMMActual","","","","","","null","","","","Images/BlackBeadChoiceWrong.png","","null"
"image-button-response","272","808695","0.0-13.0-0.71","157","Low_HMMActual","","","","","","1417","","","","Images/NewTrialWC.png","","0"
"image-button-response","273","809010","0.0-13.0-1.71","157","Low_HMMActual","","","","","","null","","","","Images/BlackBeadChoice.png","","null"
"image-button-response","274","809515","0.0-13.0-2.71","157","Low_HMMActual","","","","","","null","","","","Images/BlackBeadChoiceCorrect.png","","null"
"image-button-response","275","810084","0.0-13.0-0.72","157","Low_HMMActual","","","","","","564","","","","Images/NewTrialBC.png","","0"
"image-button-response","276","810393","0.0-13.0-1.72","157","Low_HMMActual","","","","","","null","","","","Images/BlackBeadChoice.png","","null"
"image-button-response","277","810899","0.0-13.0-2.72","157","Low_HMMActual","","","","","","null","","","","Images/BlackBeadChoiceCorrect.png","","null"
"image-button-response","278","811214","0.0-13.0-0.73","157","Low_HMMActual","","","","","","311","","","","Images/NewTrialBC.png","","0"
"image-button-response","279","811525","0.0-13.0-1.73","157","Low_HMMActual","","","","","","null","","","","Images/BlackBeadChoice.png","","null"
"image-button-response","280","812030","0.0-13.0-2.73","157","Low_HMMActual","","","","","","null","","","","Images/BlackBeadChoiceWrong.png","","null"
"image-button-response","281","812591","0.0-13.0-0.74","157","Low_HMMActual","","","","","","558","","","","Images/NewTrialWC.png","","0"
"image-button-response","282","812908","0.0-13.0-1.74","157","Low_HMMActual","","","","","","null","","","","Images/BlackBeadChoice.png","","null"
"image-button-response","283","813413","0.0-13.0-2.74","157","Low_HMMActual","","","","","","null","","","","Images/BlackBeadChoiceCorrect.png","","null"
"image-button-response","284","813542","0.0-13.0-0.75","157","Low_HMMActual","","","","","","128","","","","Images/NewTrialBC.png","","0"
"image-button-response","285","813852","0.0-13.0-1.75","157","Low_HMMActual","","","","","","null","","","","Images/BlackBeadChoice.png","","null"
"image-button-response","286","814369","0.0-13.0-2.75","157","Low_HMMActual","","","","","","null","","","","Images/BlackBeadChoiceCorrect.png","","null"
"image-button-response","287","814942","0.0-13.0-0.76","157","Low_HMMActual","","","","","","571","","","","Images/NewTrialBC.png","","0"
"image-button-response","288","815245","0.0-13.0-1.76","157","Low_HMMActual","","","","","","null","","","","Images/BlackBeadChoice.png","","null"
"image-button-response","289","815762","0.0-13.0-2.76","157","Low_HMMActual","","","","","","null","","","","Images/BlackBeadChoiceCorrect.png","","null"
"image-button-response","290","816030","0.0-13.0-0.77","157","Low_HMMActual","","","","","","267","","","","Images/NewTrialBC.png","","0"
"image-button-response","291","816343","0.0-13.0-1.77","157","Low_HMMActual","","","","","","null","","","","Images/BlackBeadChoice.png","","null"
"image-button-response","292","816847","0.0-13.0-2.77","157","Low_HMMActual","","","","","","null","","","","Images/BlackBeadChoiceCorrect.png","","null"
"image-button-response","293","817044","0.0-13.0-0.78","157","Low_HMMActual","","","","","","193","","","","Images/NewTrialBC.png","","0"
"image-button-response","294","817363","0.0-13.0-1.78","157","Low_HMMActual","","","","","","null","","","","Images/BlackBeadChoice.png","","null"
"image-button-response","295","817868","0.0-13.0-2.78","157","Low_HMMActual","","","","","","null","","","","Images/BlackBeadChoiceCorrect.png","","null"
"image-button-response","296","818038","0.0-13.0-0.79","157","Low_HMMActual","","","","","","166","","","","Images/NewTrialBC.png","","0"
"image-button-response","297","818352","0.0-13.0-1.79","157","Low_HMMActual","","","","","","null","","","","Images/BlackBeadChoice.png","","null"
"image-button-response","298","818869","0.0-13.0-2.79","157","Low_HMMActual","","","","","","null","","","","Images/BlackBeadChoiceCorrect.png","","null"
"image-button-response","299","819389","0.0-13.0-0.80","157","Low_HMMActual","","","","","","516","","","","Images/NewTrialBC.png","","0"
"image-button-response","300","819697","0.0-13.0-1.80","157","Low_HMMActual","","","","","","null","","","","Images/BlackBeadChoice.png","","null"
"image-button-response","301","820212","0.0-13.0-2.80","157","Low_HMMActual","","","","","","null","","","","Images/BlackBeadChoiceCorrect.png","","null"
"image-button-response","302","820392","0.0-13.0-0.81","157","Low_HMMActual","","","","","","176","","","","Images/NewTrialBC.png","","0"
"image-button-response","303","820697","0.0-13.0-1.81","157","Low_HMMActual","","","","","","null","","","","Images/BlackBeadChoice.png","","null"
"image-button-response","304","821212","0.0-13.0-2.81","157","Low_HMMActual","","","","","","null","","","","Images/BlackBeadChoiceCorrect.png","","null"
"image-button-response","305","821405","0.0-13.0-0.82","157","Low_HMMActual","","","","","","189","","","","Images/NewTrialBC.png","","0"
"image-button-response","306","821712","0.0-13.0-1.82","157","Low_HMMActual","","","","","","null","","","","Images/BlackBeadChoice.png","","null"
"image-button-response","307","822215","0.0-13.0-2.82","157","Low_HMMActual","","","","","","null","","","","Images/BlackBeadChoiceCorrect.png","","null"
"image-button-response","308","822831","0.0-13.0-0.83","157","Low_HMMActual","","","","","","612","","","","Images/NewTrialBC.png","","0"
"image-button-response","309","823141","0.0-13.0-1.83","157","Low_HMMActual","","","","","","null","","","","Images/BlackBeadChoice.png","","null"
"image-button-response","310","823658","0.0-13.0-2.83","157","Low_HMMActual","","","","","","null","","","","Images/BlackBeadChoiceCorrect.png","","null"
"image-button-response","311","823826","0.0-13.0-0.84","157","Low_HMMActual","","","","","","165","","","","Images/NewTrialBC.png","","0"
"image-button-response","312","824131","0.0-13.0-1.84","157","Low_HMMActual","","","","","","null","","","","Images/BlackBeadChoice.png","","null"
"image-button-response","313","824636","0.0-13.0-2.84","157","Low_HMMActual","","","","","","null","","","","Images/BlackBeadChoiceCorrect.png","","null"
"image-button-response","314","825188","0.0-13.0-0.85","157","Low_HMMActual","","","","","","549","","","","Images/NewTrialBC.png","","0"
"image-button-response","315","825498","0.0-13.0-1.85","157","Low_HMMActual","","","","","","null","","","","Images/BlackBeadChoice.png","","null"
"image-button-response","316","826004","0.0-13.0-2.85","157","Low_HMMActual","","","","","","null","","","","Images/BlackBeadChoiceCorrect.png","","null"
"image-button-response","317","826214","0.0-13.0-0.86","157","Low_HMMActual","","","","","","209","","","","Images/NewTrialBC.png","","0"
"image-button-response","318","826519","0.0-13.0-1.86","157","Low_HMMActual","","","","","","null","","","","Images/BlackBeadChoice.png","","null"
"image-button-response","319","827022","0.0-13.0-2.86","157","Low_HMMActual","","","","","","null","","","","Images/BlackBeadChoiceWrong.png","","null"
"image-button-response","320","827210","0.0-13.0-0.87","157","Low_HMMActual","","","","","","187","","","","Images/NewTrialWC.png","","0"
"image-button-response","321","827525","0.0-13.0-1.87","157","Low_HMMActual","","","","","","null","","","","Images/BlackBeadChoice.png","","null"
"image-button-response","322","828027","0.0-13.0-2.87","157","Low_HMMActual","","","","","","null","","","","Images/BlackBeadChoiceCorrect.png","","null"
"image-button-response","323","828643","0.0-13.0-0.88","157","Low_HMMActual","","","","","","612","","","","Images/NewTrialBC.png","","0"
"image-button-response","324","828951","0.0-13.0-1.88","157","Low_HMMActual","","","","","","null","","","","Images/BlackBeadChoice.png","","null"
"image-button-response","325","829468","0.0-13.0-2.88","157","Low_HMMActual","","","","","","null","","","","Images/BlackBeadChoiceCorrect.png","","null"
"image-button-response","326","829660","0.0-13.0-0.89","157","Low_HMMActual","","","","","","186","","","","Images/NewTrialBC.png","","0"
"image-button-response","327","829973","0.0-13.0-1.89","157","Low_HMMActual","","","","","","null","","","","Images/BlackBeadChoice.png","","null"
"image-button-response","328","830489","0.0-13.0-2.89","157","Low_HMMActual","","","","","","null","","","","Images/BlackBeadChoiceCorrect.png","","null"
"image-button-response","329","830802","0.0-13.0-0.90","157","Low_HMMActual","","","","","","310","","","","Images/NewTrialBC.png","","0"
"image-button-response","330","831116","0.0-13.0-1.90","157","Low_HMMActual","","","","","","null","","","","Images/BlackBeadChoice.png","","null"
"image-button-response","331","831635","0.0-13.0-2.90","157","Low_HMMActual","","","","","","null","","","","Images/BlackBeadChoiceCorrect.png","","null"
"image-button-response","332","832275","0.0-13.0-0.91","157","Low_HMMActual","","","","","","638","","","","Images/NewTrialBC.png","","0"
"image-button-response","333","832592","0.0-13.0-1.91","157","Low_HMMActual","","","","","","null","","","","Images/BlackBeadChoice.png","","null"
"image-button-response","334","833106","0.0-13.0-2.91","157","Low_HMMActual","","","","","","null","","","","Images/BlackBeadChoiceWrong.png","","null"
"image-button-response","335","833790","0.0-13.0-0.92","157","Low_HMMActual","","","","","","679","","","","Images/NewTrialWC.png","","0"
"image-button-response","336","834106","0.0-13.0-1.92","157","Low_HMMActual","","","","","","null","","","","Images/BlackBeadChoice.png","","null"
"image-button-response","337","834621","0.0-13.0-2.92","157","Low_HMMActual","","","","","","null","","","","Images/BlackBeadChoiceWrong.png","","null"
"image-button-response","338","836668","0.0-13.0-0.93","157","Low_HMMActual","","","","","","2042","","","","Images/NewTrialWC.png","","0"
"image-button-response","339","836971","0.0-13.0-1.93","157","Low_HMMActual","","","","","","null","","","","Images/BlackBeadChoice.png","","null"
"image-button-response","340","837473","0.0-13.0-2.93","157","Low_HMMActual","","","","","","null","","","","Images/BlackBeadChoiceCorrect.png","","null"
"image-button-response","341","838014","0.0-13.0-0.94","157","Low_HMMActual","","","","","","539","","","","Images/NewTrialBC.png","","0"
"image-button-response","342","838324","0.0-13.0-1.94","157","Low_HMMActual","","","","","","null","","","","Images/BlackBeadChoice.png","","null"
"image-button-response","343","838840","0.0-13.0-2.94","157","Low_HMMActual","","","","","","null","","","","Images/BlackBeadChoiceCorrect.png","","null"
"image-button-response","344","839392","0.0-13.0-0.95","157","Low_HMMActual","","","","","","549","","","","Images/NewTrialBC.png","","0"
"image-button-response","345","839702","0.0-13.0-1.95","157","Low_HMMActual","","","","","","null","","","","Images/BlackBeadChoice.png","","null"
"image-button-response","346","840217","0.0-13.0-2.95","157","Low_HMMActual","","","","","","null","","","","Images/BlackBeadChoiceWrong.png","","null"
"image-button-response","347","840629","0.0-13.0-0.96","157","Low_HMMActual","","","","","","410","","","","Images/NewTrialWC.png","","0"
"image-button-response","348","840939","0.0-13.0-1.96","157","Low_HMMActual","","","","","","null","","","","Images/BlackBeadChoice.png","","null"
"image-button-response","349","841455","0.0-13.0-2.96","157","Low_HMMActual","","","","","","null","","","","Images/BlackBeadChoiceCorrect.png","","null"
"image-button-response","350","841954","0.0-13.0-0.97","157","Low_HMMActual","","","","","","497","","","","Images/NewTrialBC.png","","0"
"image-button-response","351","842267","0.0-13.0-1.97","157","Low_HMMActual","","","","","","null","","","","Images/BlackBeadChoice.png","","null"
"image-button-response","352","842783","0.0-13.0-2.97","157","Low_HMMActual","","","","","","null","","","","Images/BlackBeadChoiceCorrect.png","","null"
"image-button-response","353","843330","0.0-13.0-0.98","157","Low_HMMActual","","","","","","545","","","","Images/NewTrialBC.png","","0"
"image-button-response","354","843650","0.0-13.0-1.98","157","Low_HMMActual","","","","","","null","","","","Images/BlackBeadChoice.png","","null"
"image-button-response","355","844165","0.0-13.0-2.98","157","Low_HMMActual","","","","","","null","","","","Images/BlackBeadChoiceCorrect.png","","null"
"image-button-response","356","844352","0.0-13.0-0.99","157","Low_HMMActual","","","","","","185","","","","Images/NewTrialBC.png","","0"
"image-button-response","357","844668","0.0-13.0-1.99","157","Low_HMMActual","","","","","","null","","","","Images/BlackBeadChoice.png","","null"
"image-button-response","358","845171","0.0-13.0-2.99","157","Low_HMMActual","","","","","","null","","","","Images/BlackBeadChoiceCorrect.png","","null"
"image-button-response","359","845674","0.0-13.0-0.100","157","Low_HMMActual","","","","","","500","","","","Images/NewTrialBC.png","","0"
"image-button-response","360","845987","0.0-13.0-1.100","157","Low_HMMActual","","","","","","null","","","","Images/BlackBeadChoice.png","","null"
"image-button-response","361","846504","0.0-13.0-2.100","157","Low_HMMActual","","","","","","null","","","","Images/BlackBeadChoiceCorrect.png","","null"
"image-button-response","362","846758","0.0-13.0-0.101","157","Low_HMMActual","","","","","","254","","","","Images/NewTrialBC.png","","0"
"image-button-response","363","847068","0.0-13.0-1.101","157","Low_HMMActual","","","","","","null","","","","Images/BlackBeadChoice.png","","null"
"image-button-response","364","847572","0.0-13.0-2.101","157","Low_HMMActual","","","","","","null","","","","Images/BlackBeadChoiceCorrect.png","","null"
"image-button-response","365","848101","0.0-13.0-0.102","157","Low_HMMActual","","","","","","527","","","","Images/NewTrialBC.png","","0"
"image-button-response","366","848416","0.0-13.0-1.102","157","Low_HMMActual","","","","","","null","","","","Images/BlackBeadChoice.png","","null"
"image-button-response","367","848932","0.0-13.0-2.102","157","Low_HMMActual","","","","","","null","","","","Images/BlackBeadChoiceCorrect.png","","null"
"image-button-response","368","849194","0.0-13.0-0.103","157","Low_HMMActual","","","","","","261","","","","Images/NewTrialBC.png","","0"
"image-button-response","369","849511","0.0-13.0-1.103","157","Low_HMMActual","","","","","","null","","","","Images/BlackBeadChoice.png","","null"
"image-button-response","370","850024","0.0-13.0-2.103","157","Low_HMMActual","","","","","","null","","","","Images/BlackBeadChoiceCorrect.png","","null"
"image-button-response","371","850610","0.0-13.0-0.104","157","Low_HMMActual","","","","","","585","","","","Images/NewTrialBC.png","","0"
"image-button-response","372","850920","0.0-13.0-1.104","157","Low_HMMActual","","","","","","null","","","","Images/BlackBeadChoice.png","","null"
"image-button-response","373","851424","0.0-13.0-2.104","157","Low_HMMActual","","","","","","null","","","","Images/BlackBeadChoiceCorrect.png","","null"
"image-button-response","374","851651","0.0-13.0-0.105","157","Low_HMMActual","","","","","","219","","","","Images/NewTrialBC.png","","0"
"image-button-response","375","851956","0.0-13.0-1.105","157","Low_HMMActual","","","","","","null","","","","Images/BlackBeadChoice.png","","null"
"image-button-response","376","852461","0.0-13.0-2.105","157","Low_HMMActual","","","","","","null","","","","Images/BlackBeadChoiceCorrect.png","","null"
"image-button-response","377","853020","0.0-13.0-0.106","157","Low_HMMActual","","","","","","557","","","","Images/NewTrialBC.png","","0"
"image-button-response","378","853324","0.0-13.0-1.106","157","Low_HMMActual","","","","","","null","","","","Images/BlackBeadChoice.png","","null"
"image-button-response","379","853825","0.0-13.0-2.106","157","Low_HMMActual","","","","","","null","","","","Images/BlackBeadChoiceWrong.png","","null"
"image-button-response","380","854569","0.0-13.0-0.107","157","Low_HMMActual","","","","","","740","","","","Images/NewTrialWC.png","","0"
"image-button-response","381","854875","0.0-13.0-1.107","157","Low_HMMActual","","","","","","null","","","","Images/BlackBeadChoice.png","","null"
"image-button-response","382","855378","0.0-13.0-2.107","157","Low_HMMActual","","","","","","null","","","","Images/BlackBeadChoiceWrong.png","","null"
"image-button-response","383","856467","0.0-13.0-0.108","157","Low_HMMActual","","","","","","1087","","","","Images/NewTrialWC.png","","0"
"image-button-response","384","856773","0.0-13.0-1.108","157","Low_HMMActual","","","","","","null","","","","Images/BlackBeadChoice.png","","null"
"image-button-response","385","857278","0.0-13.0-2.108","157","Low_HMMActual","","","","","","null","","","","Images/BlackBeadChoiceWrong.png","","null"
"image-button-response","386","857650","0.0-13.0-0.109","157","Low_HMMActual","","","","","","371","","","","Images/NewTrialWC.png","","2"
"image-button-response","387","857965","0.0-13.0-1.109","157","Low_HMMActual","","","","","","null","","","","Images/WhiteBeadChoice.png","","null"
"image-button-response","388","858482","0.0-13.0-2.109","157","Low_HMMActual","","","","","","null","","","","Images/WhiteBeadChoiceCorrect.png","","null"
"image-button-response","389","858707","0.0-13.0-0.110","157","Low_HMMActual","","","","","","222","","","","Images/NewTrialWC.png","","2"
"image-button-response","390","859016","0.0-13.0-1.110","157","Low_HMMActual","","","","","","null","","","","Images/WhiteBeadChoice.png","","null"
"image-button-response","391","859533","0.0-13.0-2.110","157","Low_HMMActual","","","","","","null","","","","Images/WhiteBeadChoiceCorrect.png","","null"
"image-button-response","392","859806","0.0-13.0-0.111","157","Low_HMMActual","","","","","","273","","","","Images/NewTrialWC.png","","2"
"image-button-response","393","860122","0.0-13.0-1.111","157","Low_HMMActual","","","","","","null","","","","Images/WhiteBeadChoice.png","","null"
"image-button-response","394","860640","0.0-13.0-2.111","157","Low_HMMActual","","","","","","null","","","","Images/WhiteBeadChoiceWrong.png","","null"
"image-button-response","395","863416","0.0-13.0-0.112","157","Low_HMMActual","","","","","","2774","","","","Images/NewTrialBC.png","","3"
"image-button-response","396","863723","0.0-13.0-1.112","157","Low_HMMActual","","","","","","null","","","","Images/WhiteBeadChoice.png","","null"
"image-button-response","397","864224","0.0-13.0-2.112","157","Low_HMMActual","","","","","","null","","","","Images/WhiteBeadChoiceWrong.png","","null"
"image-button-response","398","864926","0.0-13.0-0.113","157","Low_HMMActual","","","","","","700","","","","Images/NewTrialBC.png","","1"
"image-button-response","399","865243","0.0-13.0-1.113","157","Low_HMMActual","","","","","","null","","","","Images/BlackBeadChoice.png","","null"
"image-button-response","400","865759","0.0-13.0-2.113","157","Low_HMMActual","","","","","","null","","","","Images/BlackBeadChoiceWrong.png","","null"
"image-button-response","401","867907","0.0-13.0-0.114","157","Low_HMMActual","","","","","","2144","","","","Images/NewTrialWC.png","","0"
"image-button-response","402","868213","0.0-13.0-1.114","157","Low_HMMActual","","","","","","null","","","","Images/BlackBeadChoice.png","","null"
"image-button-response","403","868731","0.0-13.0-2.114","157","Low_HMMActual","","","","","","null","","","","Images/BlackBeadChoiceWrong.png","","null"
"image-button-response","404","870576","0.0-13.0-0.115","157","Low_HMMActual","","","","","","1841","","","","Images/NewTrialWC.png","","2"
"image-button-response","405","870887","0.0-13.0-1.115","157","Low_HMMActual","","","","","","null","","","","Images/WhiteBeadChoice.png","","null"
"image-button-response","406","871406","0.0-13.0-2.115","157","Low_HMMActual","","","","","","445","","","","Images/WhiteBeadChoiceCorrect.png","","2"
"image-button-response","407","871631","0.0-13.0-0.116","157","Low_HMMActual","","","","","","219","","","","Images/NewTrialWC.png","","2"
"image-button-response","408","871939","0.0-13.0-1.116","157","Low_HMMActual","","","","","","null","","","","Images/WhiteBeadChoice.png","","null"
"image-button-response","409","872446","0.0-13.0-2.116","157","Low_HMMActual","","","","","","402","","","","Images/WhiteBeadChoiceCorrect.png","","2"
"image-button-response","410","872913","0.0-13.0-0.117","157","Low_HMMActual","","","","","","463","","","","Images/NewTrialWC.png","","2"
"image-button-response","411","873228","0.0-13.0-1.117","157","Low_HMMActual","","","","","","null","","","","Images/WhiteBeadChoice.png","","null"
"image-button-response","412","873744","0.0-13.0-2.117","157","Low_HMMActual","","","","","","null","","","","Images/WhiteBeadChoiceCorrect.png","","null"
"image-button-response","413","873996","0.0-13.0-0.118","157","Low_HMMActual","","","","","","250","","","","Images/NewTrialWC.png","","2"
"image-button-response","414","874311","0.0-13.0-1.118","157","Low_HMMActual","","","","","","null","","","","Images/WhiteBeadChoice.png","","null"
"image-button-response","415","874817","0.0-13.0-2.118","157","Low_HMMActual","","","","","","null","","","","Images/WhiteBeadChoiceCorrect.png","","null"
"image-button-response","416","874979","0.0-13.0-0.119","157","Low_HMMActual","","","","","","161","","","","Images/NewTrialWC.png","","2"
"image-button-response","417","875286","0.0-13.0-1.119","157","Low_HMMActual","","","","","","null","","","","Images/WhiteBeadChoice.png","","null"
"image-button-response","418","875801","0.0-13.0-2.119","157","Low_HMMActual","","","","","","null","","","","Images/WhiteBeadChoiceCorrect.png","","null"
"image-button-response","419","876281","0.0-13.0-0.120","157","Low_HMMActual","","","","","","478","","","","Images/NewTrialWC.png","","2"
"image-button-response","420","876583","0.0-13.0-1.120","157","Low_HMMActual","","","","","","null","","","","Images/WhiteBeadChoice.png","","null"
"image-button-response","421","877086","0.0-13.0-2.120","157","Low_HMMActual","","","","","","null","","","","Images/WhiteBeadChoiceCorrect.png","","null"
"image-button-response","422","877405","0.0-13.0-0.121","157","Low_HMMActual","","","","","","317","","","","Images/NewTrialWC.png","","2"
"image-button-response","423","877713","0.0-13.0-1.121","157","Low_HMMActual","","","","","","null","","","","Images/WhiteBeadChoice.png","","null"
"image-button-response","424","878215","0.0-13.0-2.121","157","Low_HMMActual","","","","","","null","","","","Images/WhiteBeadChoiceCorrect.png","","null"
"image-button-response","425","878593","0.0-13.0-0.122","157","Low_HMMActual","","","","","","375","","","","Images/NewTrialWC.png","","2"
"image-button-response","426","878903","0.0-13.0-1.122","157","Low_HMMActual","","","","","","null","","","","Images/WhiteBeadChoice.png","","null"
"image-button-response","427","879407","0.0-13.0-2.122","157","Low_HMMActual","","","","","","null","","","","Images/WhiteBeadChoiceWrong.png","","null"
"image-button-response","428","880354","0.0-13.0-0.123","157","Low_HMMActual","","","","","","946","","","","Images/NewTrialBC.png","","2"
"image-button-response","429","880664","0.0-13.0-1.123","157","Low_HMMActual","","","","","","null","","","","Images/WhiteBeadChoice.png","","null"
"image-button-response","430","881174","0.0-13.0-2.123","157","Low_HMMActual","","","","","","null","","","","Images/WhiteBeadChoiceCorrect.png","","null"
"image-button-response","431","881409","0.0-13.0-0.124","157","Low_HMMActual","","","","","","230","","","","Images/NewTrialWC.png","","2"
"image-button-response","432","881726","0.0-13.0-1.124","157","Low_HMMActual","","","","","","202","","","","Images/WhiteBeadChoice.png","","2"
"image-button-response","433","882229","0.0-13.0-2.124","157","Low_HMMActual","","","","","","352","","","","Images/WhiteBeadChoiceCorrect.png","","2"
"image-button-response","434","882398","0.0-13.0-0.125","157","Low_HMMActual","","","","","","165","","","","Images/NewTrialWC.png","","2"
"image-button-response","435","882710","0.0-13.0-1.125","157","Low_HMMActual","","","","","","null","","","","Images/WhiteBeadChoice.png","","null"
"image-button-response","436","883226","0.0-13.0-2.125","157","Low_HMMActual","","","","","","null","","","","Images/WhiteBeadChoiceCorrect.png","","null"
"image-button-response","437","883817","0.0-13.0-0.126","157","Low_HMMActual","","","","","","588","","","","Images/NewTrialWC.png","","2"
"image-button-response","438","884121","0.0-13.0-1.126","157","Low_HMMActual","","","","","","null","","","","Images/WhiteBeadChoice.png","","null"
"image-button-response","439","884637","0.0-13.0-2.126","157","Low_HMMActual","","","","","","401","","","","Images/WhiteBeadChoiceCorrect.png","","2"
"image-button-response","440","884976","0.0-13.0-0.127","157","Low_HMMActual","","","","","","335","","","","Images/NewTrialWC.png","","2"
"image-button-response","441","885281","0.0-13.0-1.127","157","Low_HMMActual","","","","","","null","","","","Images/WhiteBeadChoice.png","","null"
"image-button-response","442","885799","0.0-13.0-2.127","157","Low_HMMActual","","","","","","null","","","","Images/WhiteBeadChoiceCorrect.png","","null"
"image-button-response","443","886067","0.0-13.0-0.128","157","Low_HMMActual","","","","","","262","","","","Images/NewTrialWC.png","","2"
"image-button-response","444","886376","0.0-13.0-1.128","157","Low_HMMActual","","","","","","null","","","","Images/WhiteBeadChoice.png","","null"
"image-button-response","445","886881","0.0-13.0-2.128","157","Low_HMMActual","","","","","","null","","","","Images/WhiteBeadChoiceCorrect.png","","null"
"image-button-response","446","887299","0.0-13.0-0.129","157","Low_HMMActual","","","","","","413","","","","Images/NewTrialWC.png","","2"
"image-button-response","447","887611","0.0-13.0-1.129","157","Low_HMMActual","","","","","","null","","","","Images/WhiteBeadChoice.png","","null"
"image-button-response","448","888114","0.0-13.0-2.129","157","Low_HMMActual","","","","","","null","","","","Images/WhiteBeadChoiceCorrect.png","","null"
"image-button-response","449","888618","0.0-13.0-0.130","157","Low_HMMActual","","","","","","501","","","","Images/NewTrialWC.png","","2"
"image-button-response","450","888928","0.0-13.0-1.130","157","Low_HMMActual","","","","","","null","","","","Images/WhiteBeadChoice.png","","null"
"image-button-response","451","889430","0.0-13.0-2.130","157","Low_HMMActual","","","","","","null","","","","Images/WhiteBeadChoiceCorrect.png","","null"
"image-button-response","452","890202","0.0-13.0-0.131","157","Low_HMMActual","","","","","","769","","","","Images/NewTrialWC.png","","2"
"image-button-response","453","890509","0.0-13.0-1.131","157","Low_HMMActual","","","","","","null","","","","Images/WhiteBeadChoice.png","","null"
"image-button-response","454","891026","0.0-13.0-2.131","157","Low_HMMActual","","","","","","null","","","","Images/WhiteBeadChoiceWrong.png","","null"
"image-button-response","455","891397","0.0-13.0-0.132","157","Low_HMMActual","","","","","","369","","","","Images/NewTrialBC.png","","2"
"image-button-response","456","891714","0.0-13.0-1.132","157","Low_HMMActual","","","","","","null","","","","Images/WhiteBeadChoice.png","","null"
"image-button-response","457","892219","0.0-13.0-2.132","157","Low_HMMActual","","","","","","null","","","","Images/WhiteBeadChoiceCorrect.png","","null"
"image-button-response","458","892896","0.0-13.0-0.133","157","Low_HMMActual","","","","","","674","","","","Images/NewTrialWC.png","","2"
"image-button-response","459","893205","0.0-13.0-1.133","157","Low_HMMActual","","","","","","null","","","","Images/WhiteBeadChoice.png","","null"
"image-button-response","460","893719","0.0-13.0-2.133","157","Low_HMMActual","","","","","","null","","","","Images/WhiteBeadChoiceCorrect.png","","null"
"image-button-response","461","894128","0.0-13.0-0.134","157","Low_HMMActual","","","","","","407","","","","Images/NewTrialWC.png","","2"
"image-button-response","462","894442","0.0-13.0-1.134","157","Low_HMMActual","","","","","","null","","","","Images/WhiteBeadChoice.png","","null"
"image-button-response","463","894960","0.0-13.0-2.134","157","Low_HMMActual","","","","","","null","","","","Images/WhiteBeadChoiceCorrect.png","","null"
"image-button-response","464","895522","0.0-13.0-0.135","157","Low_HMMActual","","","","","","557","","","","Images/NewTrialWC.png","","2"
"image-button-response","465","895828","0.0-13.0-1.135","157","Low_HMMActual","","","","","","null","","","","Images/WhiteBeadChoice.png","","null"
"image-button-response","466","896343","0.0-13.0-2.135","157","Low_HMMActual","","","","","","null","","","","Images/WhiteBeadChoiceCorrect.png","","null"
"image-button-response","467","896812","0.0-13.0-0.136","157","Low_HMMActual","","","","","","464","","","","Images/NewTrialWC.png","","2"
"image-button-response","468","897126","0.0-13.0-1.136","157","Low_HMMActual","","","","","","null","","","","Images/WhiteBeadChoice.png","","null"
"image-button-response","469","897631","0.0-13.0-2.136","157","Low_HMMActual","","","","","","null","","","","Images/WhiteBeadChoiceCorrect.png","","null"
"image-button-response","470","897864","0.0-13.0-0.137","157","Low_HMMActual","","","","","","231","","","","Images/NewTrialWC.png","","2"
"image-button-response","471","898176","0.0-13.0-1.137","157","Low_HMMActual","","","","","","null","","","","Images/WhiteBeadChoice.png","","null"
"image-button-response","472","898691","0.0-13.0-2.137","157","Low_HMMActual","","","","","","null","","","","Images/WhiteBeadChoiceWrong.png","","null"
"image-button-response","473","899352","0.0-13.0-0.138","157","Low_HMMActual","","","","","","657","","","","Images/NewTrialBC.png","","2"
"image-button-response","474","899658","0.0-13.0-1.138","157","Low_HMMActual","","","","","","null","","","","Images/WhiteBeadChoice.png","","null"
"image-button-response","475","900175","0.0-13.0-2.138","157","Low_HMMActual","","","","","","null","","","","Images/WhiteBeadChoiceCorrect.png","","null"
"image-button-response","476","900625","0.0-13.0-0.139","157","Low_HMMActual","","","","","","450","","","","Images/NewTrialWC.png","","2"
"image-button-response","477","900940","0.0-13.0-1.139","157","Low_HMMActual","","","","","","null","","","","Images/WhiteBeadChoice.png","","null"
"image-button-response","478","901457","0.0-13.0-2.139","157","Low_HMMActual","","","","","","null","","","","Images/WhiteBeadChoiceCorrect.png","","null"
"image-button-response","479","901988","0.0-13.0-0.140","157","Low_HMMActual","","","","","","524","","","","Images/NewTrialWC.png","","2"
"image-button-response","480","902305","0.0-13.0-1.140","157","Low_HMMActual","","","","","","null","","","","Images/WhiteBeadChoice.png","","null"
"image-button-response","481","902820","0.0-13.0-2.140","157","Low_HMMActual","","","","","","506","","","","Images/WhiteBeadChoiceCorrect.png","","2"
"image-button-response","482","903141","0.0-13.0-0.141","157","Low_HMMActual","","","","","","319","","","","Images/NewTrialWC.png","","2"
"image-button-response","483","903450","0.0-13.0-1.141","157","Low_HMMActual","","","","","","null","","","","Images/WhiteBeadChoice.png","","null"
"image-button-response","484","903966","0.0-13.0-2.141","157","Low_HMMActual","","","","","","null","","","","Images/WhiteBeadChoiceCorrect.png","","null"
"image-button-response","485","904250","0.0-13.0-0.142","157","Low_HMMActual","","","","","","280","","","","Images/NewTrialWC.png","","2"
"image-button-response","486","904562","0.0-13.0-1.142","157","Low_HMMActual","","","","","","null","","","","Images/WhiteBeadChoice.png","","null"
"image-button-response","487","905065","0.0-13.0-2.142","157","Low_HMMActual","","","","","","null","","","","Images/WhiteBeadChoiceWrong.png","","null"
"image-button-response","488","905282","0.0-13.0-0.143","157","Low_HMMActual","","","","","","214","","","","Images/NewTrialBC.png","","2"
"image-button-response","489","905596","0.0-13.0-1.143","157","Low_HMMActual","","","","","","null","","","","Images/WhiteBeadChoice.png","","null"
"image-button-response","490","906110","0.0-13.0-2.143","157","Low_HMMActual","","","","","","null","","","","Images/WhiteBeadChoiceCorrect.png","","null"
"image-button-response","491","906984","0.0-13.0-0.144","157","Low_HMMActual","","","","","","870","","","","Images/NewTrialWC.png","","2"
"image-button-response","492","907300","0.0-13.0-1.144","157","Low_HMMActual","","","","","","null","","","","Images/WhiteBeadChoice.png","","null"
"image-button-response","493","907815","0.0-13.0-2.144","157","Low_HMMActual","","","","","","null","","","","Images/WhiteBeadChoiceWrong.png","","null"
"image-button-response","494","909823","0.0-13.0-0.145","157","Low_HMMActual","","","","","","2005","","","","Images/NewTrialBC.png","","2"
"image-button-response","495","910134","0.0-13.0-1.145","157","Low_HMMActual","","","","","","null","","","","Images/WhiteBeadChoice.png","","null"
"image-button-response","496","910650","0.0-13.0-2.145","157","Low_HMMActual","","","","","","null","","","","Images/WhiteBeadChoiceWrong.png","","null"
"image-button-response","497","910850","0.0-13.0-0.146","157","Low_HMMActual","","","","","","199","","","","Images/NewTrialBC.png","","2"
"image-button-response","498","911153","0.0-13.0-1.146","157","Low_HMMActual","","","","","","null","","","","Images/WhiteBeadChoice.png","","null"
"image-button-response","499","911668","0.0-13.0-2.146","157","Low_HMMActual","","","","","","null","","","","Images/WhiteBeadChoiceCorrect.png","","null"
"image-button-response","500","912015","0.0-13.0-0.147","157","Low_HMMActual","","","","","","341","","","","Images/NewTrialWC.png","","2"
"image-button-response","501","912326","0.0-13.0-1.147","157","Low_HMMActual","","","","","","null","","","","Images/WhiteBeadChoice.png","","null"
"image-button-response","502","912830","0.0-13.0-2.147","157","Low_HMMActual","","","","","","390","","","","Images/WhiteBeadChoiceCorrect.png","","2"
"image-button-response","503","912979","0.0-13.0-0.148","157","Low_HMMActual","","","","","","146","","","","Images/NewTrialWC.png","","2"
"image-button-response","504","913291","0.0-13.0-1.148","157","Low_HMMActual","","","","","","null","","","","Images/WhiteBeadChoice.png","","null"
"image-button-response","505","913794","0.0-13.0-2.148","157","Low_HMMActual","","","","","","395","","","","Images/WhiteBeadChoiceCorrect.png","","2"
"image-button-response","506","913897","0.0-13.0-0.149","157","Low_HMMActual","","","","","","100","","","","Images/NewTrialWC.png","","2"
"image-button-response","507","914205","0.0-13.0-1.149","157","Low_HMMActual","","","","","","null","","","","Images/WhiteBeadChoice.png","","null"
"image-button-response","508","914710","0.0-13.0-2.149","157","Low_HMMActual","","","","","","364","","","","Images/WhiteBeadChoiceCorrect.png","","2"
"image-button-response","509","915248","0.0-13.0-0.150","157","Low_HMMActual","","","","","","537","","","","Images/NewTrialWC.png","","2"
"image-button-response","510","915560","0.0-13.0-1.150","157","Low_HMMActual","","","","","","null","","","","Images/WhiteBeadChoice.png","","null"
"image-button-response","511","916067","0.0-13.0-2.150","157","Low_HMMActual","","","","","","435","","","","Images/WhiteBeadChoiceCorrect.png","","2"
"image-button-response","512","916214","0.0-13.0-0.151","157","Low_HMMActual","","","","","","144","","","","Images/NewTrialWC.png","","2"
"image-button-response","513","916527","0.0-13.0-1.151","157","Low_HMMActual","","","","","","268","","","","Images/WhiteBeadChoice.png","","2"
"image-button-response","514","917034","0.0-13.0-2.151","157","Low_HMMActual","","","","","","402","","","","Images/WhiteBeadChoiceCorrect.png","","2"
"image-button-response","515","917375","0.0-13.0-0.152","157","Low_HMMActual","","","","","","338","","","","Images/NewTrialWC.png","","2"
"image-button-response","516","917683","0.0-13.0-1.152","157","Low_HMMActual","","","","","","null","","","","Images/WhiteBeadChoice.png","","null"
"image-button-response","517","918193","0.0-13.0-2.152","157","Low_HMMActual","","","","","","null","","","","Images/WhiteBeadChoiceCorrect.png","","null"
"image-button-response","518","918317","0.0-13.0-0.153","157","Low_HMMActual","","","","","","121","","","","Images/NewTrialWC.png","","2"
"image-button-response","519","918620","0.0-13.0-1.153","157","Low_HMMActual","","","","","","null","","","","Images/WhiteBeadChoice.png","","null"
"image-button-response","520","919128","0.0-13.0-2.153","157","Low_HMMActual","","","","","","null","","","","Images/WhiteBeadChoiceCorrect.png","","null"
"image-button-response","521","919533","0.0-13.0-0.154","157","Low_HMMActual","","","","","","403","","","","Images/NewTrialWC.png","","2"
"image-button-response","522","919842","0.0-13.0-1.154","157","Low_HMMActual","","","","","","null","","","","Images/WhiteBeadChoice.png","","null"
"image-button-response","523","920346","0.0-13.0-2.154","157","Low_HMMActual","","","","","","462","","","","Images/WhiteBeadChoiceCorrect.png","","2"
"image-button-response","524","920586","0.0-13.0-0.155","157","Low_HMMActual","","","","","","238","","","","Images/NewTrialWC.png","","2"
"image-button-response","525","920902","0.0-13.0-1.155","157","Low_HMMActual","","","","","","null","","","","Images/WhiteBeadChoice.png","","null"
"image-button-response","526","921419","0.0-13.0-2.155","157","Low_HMMActual","","","","","","475","","","","Images/WhiteBeadChoiceCorrect.png","","2"
"image-button-response","527","921682","0.0-13.0-0.156","157","Low_HMMActual","","","","","","260","","","","Images/NewTrialWC.png","","2"
"image-button-response","528","921991","0.0-13.0-1.156","157","Low_HMMActual","","","","","","233","","","","Images/WhiteBeadChoice.png","","2"
"image-button-response","529","922496","0.0-13.0-2.156","157","Low_HMMActual","","","","","","229","","","","Images/WhiteBeadChoiceCorrect.png","","2"
"image-button-response","530","922709","0.0-13.0-0.157","157","Low_HMMActual","","","","","","211","","","","Images/NewTrialWC.png","","2"
"image-button-response","531","923017","0.0-13.0-1.157","157","Low_HMMActual","","","","","","256","","","","Images/WhiteBeadChoice.png","","2"
"image-button-response","532","923525","0.0-13.0-2.157","157","Low_HMMActual","","","","","","492","","","","Images/WhiteBeadChoiceCorrect.png","","2"
"image-button-response","533","923943","0.0-13.0-0.158","157","Low_HMMActual","","","","","","415","","","","Images/NewTrialWC.png","","2"
"image-button-response","534","924251","0.0-13.0-1.158","157","Low_HMMActual","","","","","","null","","","","Images/WhiteBeadChoice.png","","null"
"image-button-response","535","924760","0.0-13.0-2.158","157","Low_HMMActual","","","","","","null","","","","Images/WhiteBeadChoiceWrong.png","","null"
"image-button-response","536","925479","0.0-13.0-0.159","157","Low_HMMActual","","","","","","719","","","","Images/NewTrialBC.png","","2"
"image-button-response","537","925790","0.0-13.0-1.159","157","Low_HMMActual","","","","","","null","","","","Images/WhiteBeadChoice.png","","null"
"image-button-response","538","926297","0.0-13.0-2.159","157","Low_HMMActual","","","","","","null","","","","Images/WhiteBeadChoiceCorrect.png","","null"
"image-button-response","539","926724","0.0-13.0-0.160","157","Low_HMMActual","","","","","","426","","","","Images/NewTrialWC.png","","2"
"image-button-response","540","927040","0.0-13.0-1.160","157","Low_HMMActual","","","","","","null","","","","Images/WhiteBeadChoice.png","","null"
"image-button-response","541","927549","0.0-13.0-2.160","157","Low_HMMActual","","","","","","null","","","","Images/WhiteBeadChoiceCorrect.png","","null"
"image-button-response","542","927964","0.0-13.0-0.161","157","Low_HMMActual","","","","","","413","","","","Images/NewTrialWC.png","","2"
"image-button-response","543","928275","0.0-13.0-1.161","157","Low_HMMActual","","","","","","null","","","","Images/WhiteBeadChoice.png","","null"
"image-button-response","544","928783","0.0-13.0-2.161","157","Low_HMMActual","","","","","","null","","","","Images/WhiteBeadChoiceWrong.png","","null"
"image-button-response","545","929274","0.0-13.0-0.162","157","Low_HMMActual","","","","","","489","","","","Images/NewTrialBC.png","","2"
"image-button-response","546","929578","0.0-13.0-1.162","157","Low_HMMActual","","","","","","null","","","","Images/WhiteBeadChoice.png","","null"
"image-button-response","547","930087","0.0-13.0-2.162","157","Low_HMMActual","","","","","","null","","","","Images/WhiteBeadChoiceCorrect.png","","null"
"image-button-response","548","930575","0.0-13.0-0.163","157","Low_HMMActual","","","","","","487","","","","Images/NewTrialWC.png","","2"
"image-button-response","549","930893","0.0-13.0-1.163","157","Low_HMMActual","","","","","","null","","","","Images/WhiteBeadChoice.png","","null"
"image-button-response","550","931399","0.0-13.0-2.163","157","Low_HMMActual","","","","","","null","","","","Images/WhiteBeadChoiceCorrect.png","","null"
"image-button-response","551","932044","0.0-13.0-0.164","157","Low_HMMActual","","","","","","643","","","","Images/NewTrialWC.png","","2"
"image-button-response","552","932353","0.0-13.0-1.164","157","Low_HMMActual","","","","","","null","","","","Images/WhiteBeadChoice.png","","null"
"image-button-response","553","932861","0.0-13.0-2.164","157","Low_HMMActual","","","","","","null","","","","Images/WhiteBeadChoiceWrong.png","","null"
"image-button-response","554","933228","0.0-13.0-0.165","157","Low_HMMActual","","","","","","366","","","","Images/NewTrialBC.png","","2"
"image-button-response","555","933531","0.0-13.0-1.165","157","Low_HMMActual","","","","","","null","","","","Images/WhiteBeadChoice.png","","null"
"image-button-response","556","934039","0.0-13.0-2.165","157","Low_HMMActual","","","","","","null","","","","Images/WhiteBeadChoiceCorrect.png","","null"
"image-button-response","557","934566","0.0-13.0-0.166","157","Low_HMMActual","","","","","","523","","","","Images/NewTrialWC.png","","2"
"image-button-response","558","934878","0.0-13.0-1.166","157","Low_HMMActual","","","","","","null","","","","Images/WhiteBeadChoice.png","","null"
"image-button-response","559","935386","0.0-13.0-2.166","157","Low_HMMActual","","","","","","null","","","","Images/WhiteBeadChoiceWrong.png","","null"
"image-button-response","560","935965","0.0-13.0-0.167","157","Low_HMMActual","","","","","","577","","","","Images/NewTrialBC.png","","2"
"image-button-response","561","936272","0.0-13.0-1.167","157","Low_HMMActual","","","","","","null","","","","Images/WhiteBeadChoice.png","","null"
"image-button-response","562","936778","0.0-13.0-2.167","157","Low_HMMActual","","","","","","null","","","","Images/WhiteBeadChoiceCorrect.png","","null"
"image-button-response","563","937351","0.0-13.0-0.168","157","Low_HMMActual","","","","","","570","","","","Images/NewTrialWC.png","","2"
"image-button-response","564","937663","0.0-13.0-1.168","157","Low_HMMActual","","","","","","null","","","","Images/WhiteBeadChoice.png","","null"
"image-button-response","565","938172","0.0-13.0-2.168","157","Low_HMMActual","","","","","","null","","","","Images/WhiteBeadChoiceCorrect.png","","null"
"image-button-response","566","938356","0.0-13.0-0.169","157","Low_HMMActual","","","","","","182","","","","Images/NewTrialWC.png","","2"
"image-button-response","567","938665","0.0-13.0-1.169","157","Low_HMMActual","","","","","","null","","","","Images/WhiteBeadChoice.png","","null"
"image-button-response","568","939174","0.0-13.0-2.169","157","Low_HMMActual","","","","","","null","","","","Images/WhiteBeadChoiceCorrect.png","","null"
"image-button-response","569","939321","0.0-13.0-0.170","157","Low_HMMActual","","","","","","144","","","","Images/NewTrialWC.png","","2"
"image-button-response","570","939636","0.0-13.0-1.170","157","Low_HMMActual","","","","","","null","","","","Images/WhiteBeadChoice.png","","null"
"image-button-response","571","940141","0.0-13.0-2.170","157","Low_HMMActual","","","","","","null","","","","Images/WhiteBeadChoiceCorrect.png","","null"
"image-button-response","572","940536","0.0-13.0-0.171","157","Low_HMMActual","","","","","","392","","","","Images/NewTrialWC.png","","2"
"image-button-response","573","940849","0.0-13.0-1.171","157","Low_HMMActual","","","","","","null","","","","Images/WhiteBeadChoice.png","","null"
"image-button-response","574","941355","0.0-13.0-2.171","157","Low_HMMActual","","","","","","null","","","","Images/WhiteBeadChoiceCorrect.png","","null"
"image-button-response","575","941904","0.0-13.0-0.172","157","Low_HMMActual","","","","","","547","","","","Images/NewTrialWC.png","","2"
"image-button-response","576","942207","0.0-13.0-1.172","157","Low_HMMActual","","","","","","null","","","","Images/WhiteBeadChoice.png","","null"
"image-button-response","577","942717","0.0-13.0-2.172","157","Low_HMMActual","","","","","","null","","","","Images/WhiteBeadChoiceWrong.png","","null"
"image-button-response","578","943260","0.0-13.0-0.173","157","Low_HMMActual","","","","","","540","","","","Images/NewTrialBC.png","","2"
"image-button-response","579","943573","0.0-13.0-1.173","157","Low_HMMActual","","","","","","null","","","","Images/WhiteBeadChoice.png","","null"
"image-button-response","580","944080","0.0-13.0-2.173","157","Low_HMMActual","","","","","","null","","","","Images/WhiteBeadChoiceCorrect.png","","null"
"image-button-response","581","944673","0.0-13.0-0.174","157","Low_HMMActual","","","","","","591","","","","Images/NewTrialWC.png","","2"
"image-button-response","582","944981","0.0-13.0-1.174","157","Low_HMMActual","","","","","","null","","","","Images/WhiteBeadChoice.png","","null"
"image-button-response","583","945485","0.0-13.0-2.174","157","Low_HMMActual","","","","","","452","","","","Images/WhiteBeadChoiceCorrect.png","","2"
"image-button-response","584","945807","0.0-13.0-0.175","157","Low_HMMActual","","","","","","318","","","","Images/NewTrialWC.png","","2"
"image-button-response","585","946121","0.0-13.0-1.175","157","Low_HMMActual","","","","","","null","","","","Images/WhiteBeadChoice.png","","null"
"image-button-response","586","946640","0.0-13.0-2.175","157","Low_HMMActual","","","","","","null","","","","Images/WhiteBeadChoiceCorrect.png","","null"
"image-button-response","587","946948","0.0-13.0-0.176","157","Low_HMMActual","","","","","","306","","","","Images/NewTrialWC.png","","2"
"image-button-response","588","947255","0.0-13.0-1.176","157","Low_HMMActual","","","","","","238","","","","Images/WhiteBeadChoice.png","","2"
"image-button-response","589","947770","0.0-13.0-2.176","157","Low_HMMActual","","","","","","441","","","","Images/WhiteBeadChoiceCorrect.png","","2"
"image-button-response","590","947958","0.0-13.0-0.177","157","Low_HMMActual","","","","","","185","","","","Images/NewTrialWC.png","","2"
"image-button-response","591","948272","0.0-13.0-1.177","157","Low_HMMActual","","","","","","null","","","","Images/WhiteBeadChoice.png","","null"
"image-button-response","592","948790","0.0-13.0-2.177","157","Low_HMMActual","","","","","","null","","","","Images/WhiteBeadChoiceCorrect.png","","null"
"image-button-response","593","949069","0.0-13.0-0.178","157","Low_HMMActual","","","","","","276","","","","Images/NewTrialWC.png","","2"
"image-button-response","594","949384","0.0-13.0-1.178","157","Low_HMMActual","","","","","","null","","","","Images/WhiteBeadChoice.png","","null"
"image-button-response","595","949900","0.0-13.0-2.178","157","Low_HMMActual","","","","","","331","","","","Images/WhiteBeadChoiceCorrect.png","","2"
"image-button-response","596","950202","0.0-13.0-0.179","157","Low_HMMActual","","","","","","298","","","","Images/NewTrialWC.png","","2"
"image-button-response","597","950510","0.0-13.0-1.179","157","Low_HMMActual","","","","","","null","","","","Images/WhiteBeadChoice.png","","null"
"image-button-response","598","951016","0.0-13.0-2.179","157","Low_HMMActual","","","","","","null","","","","Images/WhiteBeadChoiceCorrect.png","","null"
"image-button-response","599","951627","0.0-13.0-0.180","157","Low_HMMActual","","","","","","605","","","","Images/NewTrialWC.png","","2"
"image-button-response","600","951933","0.0-13.0-1.180","157","Low_HMMActual","","","","","","null","","","","Images/WhiteBeadChoice.png","","null"
"image-button-response","601","952449","0.0-13.0-2.180","157","Low_HMMActual","","","","","","449","","","","Images/WhiteBeadChoiceCorrect.png","","2"
"image-button-response","602","952929","0.0-13.0-0.181","157","Low_HMMActual","","","","","","477","","","","Images/NewTrialWC.png","","2"
"image-button-response","603","953231","0.0-13.0-1.181","157","Low_HMMActual","","","","","","null","","","","Images/WhiteBeadChoice.png","","null"
"image-button-response","604","953748","0.0-13.0-2.181","157","Low_HMMActual","","","","","","null","","","","Images/WhiteBeadChoiceCorrect.png","","null"
"image-button-response","605","954649","0.0-13.0-0.182","157","Low_HMMActual","","","","","","897","","","","Images/NewTrialWC.png","","2"
"image-button-response","606","954954","0.0-13.0-1.182","157","Low_HMMActual","","","","","","null","","","","Images/WhiteBeadChoice.png","","null"
"image-button-response","607","955459","0.0-13.0-2.182","157","Low_HMMActual","","","","","","null","","","","Images/WhiteBeadChoiceCorrect.png","","null"
"image-button-response","608","955970","0.0-13.0-0.183","157","Low_HMMActual","","","","","","509","","","","Images/NewTrialWC.png","","2"
"image-button-response","609","956274","0.0-13.0-1.183","157","Low_HMMActual","","","","","","null","","","","Images/WhiteBeadChoice.png","","null"
"image-button-response","610","956792","0.0-13.0-2.183","157","Low_HMMActual","","","","","","null","","","","Images/WhiteBeadChoiceCorrect.png","","null"
"image-button-response","611","957834","0.0-13.0-0.184","157","Low_HMMActual","","","","","","1040","","","","Images/NewTrialWC.png","","2"
"image-button-response","612","958143","0.0-13.0-1.184","157","Low_HMMActual","","","","","","null","","","","Images/WhiteBeadChoice.png","","null"
"image-button-response","613","958659","0.0-13.0-2.184","157","Low_HMMActual","","","","","","514","","","","Images/WhiteBeadChoiceCorrect.png","","2"
"image-button-response","614","958967","0.0-13.0-0.185","157","Low_HMMActual","","","","","","306","","","","Images/NewTrialWC.png","","2"
"image-button-response","615","959273","0.0-13.0-1.185","157","Low_HMMActual","","","","","","null","","","","Images/WhiteBeadChoice.png","","null"
"image-button-response","616","959789","0.0-13.0-2.185","157","Low_HMMActual","","","","","","null","","","","Images/WhiteBeadChoiceCorrect.png","","null"
"image-button-response","617","961747","0.0-13.0-0.186","157","Low_HMMActual","","","","","","1950","","","","Images/NewTrialWC.png","","2"
"image-button-response","618","962059","0.0-13.0-1.186","157","Low_HMMActual","","","","","","null","","","","Images/WhiteBeadChoice.png","","null"
"image-button-response","619","962574","0.0-13.0-2.186","157","Low_HMMActual","","","","","","null","","","","Images/WhiteBeadChoiceWrong.png","","null"
"image-button-response","620","963779","0.0-13.0-0.187","157","Low_HMMActual","","","","","","1200","","","","Images/NewTrialBC.png","","2"
"image-button-response","621","964095","0.0-13.0-1.187","157","Low_HMMActual","","","","","","null","","","","Images/WhiteBeadChoice.png","","null"
"image-button-response","622","964611","0.0-13.0-2.187","157","Low_HMMActual","","","","","","null","","","","Images/WhiteBeadChoiceCorrect.png","","null"
"image-button-response","623","965065","0.0-13.0-0.188","157","Low_HMMActual","","","","","","451","","","","Images/NewTrialWC.png","","2"
"image-button-response","624","965377","0.0-13.0-1.188","157","Low_HMMActual","","","","","","null","","","","Images/WhiteBeadChoice.png","","null"
"image-button-response","625","965886","0.0-13.0-2.188","157","Low_HMMActual","","","","","","241","","","","Images/WhiteBeadChoiceCorrect.png","","2"
"image-button-response","626","966121","0.0-13.0-0.189","157","Low_HMMActual","","","","","","231","","","","Images/NewTrialWC.png","","2"
"image-button-response","627","966439","0.0-13.0-1.189","157","Low_HMMActual","","","","","","null","","","","Images/WhiteBeadChoice.png","","null"
"image-button-response","628","966941","0.0-13.0-2.189","157","Low_HMMActual","","","","","","null","","","","Images/WhiteBeadChoiceCorrect.png","","null"
"image-button-response","629","967445","0.0-13.0-0.190","157","Low_HMMActual","","","","","","501","","","","Images/NewTrialWC.png","","2"
"image-button-response","630","967753","0.0-13.0-1.190","157","Low_HMMActual","","","","","","null","","","","Images/WhiteBeadChoice.png","","null"
"image-button-response","631","968267","0.0-13.0-2.190","157","Low_HMMActual","","","","","","null","","","","Images/WhiteBeadChoiceWrong.png","","null"
"image-button-response","632","969535","0.0-13.0-0.191","157","Low_HMMActual","","","","","","1260","","","","Images/NewTrialBC.png","","2"
"image-button-response","633","969852","0.0-13.0-1.191","157","Low_HMMActual","","","","","","null","","","","Images/WhiteBeadChoice.png","","null"
"image-button-response","634","970359","0.0-13.0-2.191","157","Low_HMMActual","","","","","","null","","","","Images/WhiteBeadChoiceCorrect.png","","null"
"image-button-response","635","970599","0.0-13.0-0.192","157","Low_HMMActual","","","","","","237","","","","Images/NewTrialWC.png","","2"
"image-button-response","636","970906","0.0-13.0-1.192","157","Low_HMMActual","","","","","","null","","","","Images/WhiteBeadChoice.png","","null"
"image-button-response","637","971424","0.0-13.0-2.192","157","Low_HMMActual","","","","","","null","","","","Images/WhiteBeadChoiceWrong.png","","null"
"image-button-response","638","972070","0.0-13.0-0.193","157","Low_HMMActual","","","","","","645","","","","Images/NewTrialBC.png","","2"
"image-button-response","639","972381","0.0-13.0-1.193","157","Low_HMMActual","","","","","","null","","","","Images/WhiteBeadChoice.png","","null"
"image-button-response","640","972896","0.0-13.0-2.193","157","Low_HMMActual","","","","","","null","","","","Images/WhiteBeadChoiceCorrect.png","","null"
"image-button-response","641","973222","0.0-13.0-0.194","157","Low_HMMActual","","","","","","325","","","","Images/NewTrialWC.png","","2"
"image-button-response","642","973533","0.0-13.0-1.194","157","Low_HMMActual","","","","","","null","","","","Images/WhiteBeadChoice.png","","null"
"image-button-response","643","974050","0.0-13.0-2.194","157","Low_HMMActual","","","","","","null","","","","Images/WhiteBeadChoiceCorrect.png","","null"
"image-button-response","644","974795","0.0-13.0-0.195","157","Low_HMMActual","","","","","","743","","","","Images/NewTrialWC.png","","2"
"image-button-response","645","975104","0.0-13.0-1.195","157","Low_HMMActual","","","","","","null","","","","Images/WhiteBeadChoice.png","","null"
"image-button-response","646","975621","0.0-13.0-2.195","157","Low_HMMActual","","","","","","null","","","","Images/WhiteBeadChoiceWrong.png","","null"
"image-button-response","647","976035","0.0-13.0-0.196","157","Low_HMMActual","","","","","","411","","","","Images/NewTrialBC.png","","2"
"image-button-response","648","976338","0.0-13.0-1.196","157","Low_HMMActual","","","","","","null","","","","Images/WhiteBeadChoice.png","","null"
"image-button-response","649","976852","0.0-13.0-2.196","157","Low_HMMActual","","","","","","null","","","","Images/WhiteBeadChoiceCorrect.png","","null"
"image-button-response","650","977097","0.0-13.0-0.197","157","Low_HMMActual","","","","","","239","","","","Images/NewTrialWC.png","","2"
"image-button-response","651","977414","0.0-13.0-1.197","157","Low_HMMActual","","","","","","196","","","","Images/WhiteBeadChoice.png","","2"
"image-button-response","652","977932","0.0-13.0-2.197","157","Low_HMMActual","","","","","","null","","","","Images/WhiteBeadChoiceCorrect.png","","null"
"image-button-response","653","978442","0.0-13.0-0.198","157","Low_HMMActual","","","","","","507","","","","Images/NewTrialWC.png","","2"
"image-button-response","654","978744","0.0-13.0-1.198","157","Low_HMMActual","","","","","","null","","","","Images/WhiteBeadChoice.png","","null"
"image-button-response","655","979261","0.0-13.0-2.198","157","Low_HMMActual","","","","","","null","","","","Images/WhiteBeadChoiceCorrect.png","","null"
"image-button-response","656","979689","0.0-13.0-0.199","157","Low_HMMActual","","","","","","426","","","","Images/NewTrialWC.png","","2"
"image-button-response","657","979998","0.0-13.0-1.199","157","Low_HMMActual","","","","","","null","","","","Images/WhiteBeadChoice.png","","null"
"image-button-response","658","980502","0.0-13.0-2.199","157","Low_HMMActual","","","","","","null","","","","Images/WhiteBeadChoiceWrong.png","","null"
"image-button-response","659","981348","0.0-13.0-0.200","157","Low_HMMActual","","","","","","844","","","","Images/NewTrialBC.png","","2"
"image-button-response","660","981653","0.0-13.0-1.200","157","Low_HMMActual","","","","","","null","","","","Images/WhiteBeadChoice.png","","null"
"image-button-response","661","982165","0.0-13.0-2.200","157","Low_HMMActual","","","","","","null","","","","Images/WhiteBeadChoiceCorrect.png","","null"
"image-button-response","662","982535","0.0-13.0-0.201","157","Low_HMMActual","","","","","","367","","","","Images/NewTrialWC.png","","2"
"image-button-response","663","982849","0.0-13.0-1.201","157","Low_HMMActual","","","","","","null","","","","Images/WhiteBeadChoice.png","","null"
"image-button-response","664","983366","0.0-13.0-2.201","157","Low_HMMActual","","","","","","null","","","","Images/WhiteBeadChoiceCorrect.png","","null"
"image-button-response","665","983986","0.0-13.0-0.202","157","Low_HMMActual","","","","","","619","","","","Images/NewTrialWC.png","","2"
"image-button-response","666","984301","0.0-13.0-1.202","157","Low_HMMActual","","","","","","null","","","","Images/WhiteBeadChoice.png","","null"
"image-button-response","667","984803","0.0-13.0-2.202","157","Low_HMMActual","","","","","","null","","","","Images/WhiteBeadChoiceWrong.png","","null"
"image-button-response","668","985383","0.0-13.0-0.203","157","Low_HMMActual","","","","","","577","","","","Images/NewTrialBC.png","","2"
"image-button-response","669","985694","0.0-13.0-1.203","157","Low_HMMActual","","","","","","null","","","","Images/WhiteBeadChoice.png","","null"
"image-button-response","670","986196","0.0-13.0-2.203","157","Low_HMMActual","","","","","","null","","","","Images/WhiteBeadChoiceCorrect.png","","null"
"image-button-response","671","986581","0.0-13.0-0.204","157","Low_HMMActual","","","","","","382","","","","Images/NewTrialWC.png","","2"
"image-button-response","672","986888","0.0-13.0-1.204","157","Low_HMMActual","","","","","","null","","","","Images/WhiteBeadChoice.png","","null"
"image-button-response","673","987391","0.0-13.0-2.204","157","Low_HMMActual","","","","","","null","","","","Images/WhiteBeadChoiceCorrect.png","","null"
"image-button-response","674","987806","0.0-13.0-0.205","157","Low_HMMActual","","","","","","411","","","","Images/NewTrialWC.png","","2"
"image-button-response","675","988125","0.0-13.0-1.205","157","Low_HMMActual","","","","","","null","","","","Images/WhiteBeadChoice.png","","null"
