"trial_type","trial_index","time_elapsed","internal_node_id","Script_Picker","Block_Type","success","timeout","failed_images","failed_audio","failed_video","rt","url","responses","question_order","stimulus","key_press","response"
"pavlovia","0","12","0.0-0.0","44","Low_HMMActual","","","","","","","","","","","",""
"preload","1","13","0.0-1.0","44","Low_HMMActual","true","false","[]","[]","[]","","","","","","",""
"external-html","2","4465","0.0-2.0-0.0","44","Low_HMMActual","","","","","","4348.5999999996275","consent.html","","","","",""
"survey-multi-choice","3","734735","0.0-2.0-1.0","44","Low_HMMActual","","","","","","730267.0999999996","","{""Q0"":""Male"",""Q1"":""White""}","[0,1]","","",""
"survey-text","4","742588","0.0-2.0-2.0","44","Low_HMMActual","","","","","","7850","","{""Q0"":""41""}","","","",""
"survey-text","5","751683","0.0-2.0-3.0","44","Low_HMMActual","","","","","","8994.199999999255","","{""Q0"":""5f52237276d614488e847c1b""}","","","",""
"image-keyboard-response","6","831068","0.0-3.0-0.0","44","Low_HMMActual","","","","","","79282.69999999925","","","","tutorial/tutorial1.png"," ",""
"image-keyboard-response","7","841131","0.0-3.0-0.1","44","Low_HMMActual","","","","","","10062.5","","","","tutorial/tutorial2.png"," ",""
"image-keyboard-response","8","847939","0.0-3.0-0.2","44","Low_HMMActual","","","","","","6806.799999998882","","","","tutorial/tutorial3.png"," ",""
"image-keyboard-response","9","851779","0.0-3.0-0.3","44","Low_HMMActual","","","","","","3839.60000000149","","","","tutorial/tutorial4.png"," ",""
"image-keyboard-response","10","855746","0.0-3.0-0.4","44","Low_HMMActual","","","","","","3966.89999999851","","","","tutorial/tutorial5.png"," ",""
"image-keyboard-response","11","860714","0.0-3.0-0.5","44","Low_HMMActual","","","","","","4967.60000000149","","","","tutorial/tutorial6.png"," ",""
"image-keyboard-response","12","867851","0.0-3.0-0.6","44","Low_HMMActual","","","","","","7135.799999998882","","","","tutorial/tutorial7.png"," ",""
"image-keyboard-response","13","947504","0.0-3.0-0.7","44","Low_HMMActual","","","","","","79653.59999999963","","","","tutorial/tutorial8.png"," ",""
"image-keyboard-response","14","964736","0.0-3.0-0.8","44","Low_HMMActual","","","","","","17231.300000000745","","","","tutorial/tutorial9.png"," ",""
"image-keyboard-response","15","999536","0.0-3.0-0.9","44","Low_HMMActual","","","","","","34798.79999999888","","","","tutorial/tutorial10.png"," ",""
"image-keyboard-response","16","1011207","0.0-3.0-0.10","44","Low_HMMActual","","","","","","11671.199999999255","","","","tutorial/tutorial11.png"," ",""
"image-keyboard-response","17","1032231","0.0-3.0-0.11","44","Low_HMMActual","","","","","","21023.099999999627","","","","tutorial/tutorial12.png"," ",""
"image-keyboard-response","18","1053846","0.0-3.0-0.12","44","Low_HMMActual","","","","","","21615.099999999627","","","","tutorial/tutorial13.png"," ",""
"image-keyboard-response","19","1076182","0.0-3.0-0.13","44","Low_HMMActual","","","","","","22335.199999999255","","","","tutorial/tutorial14.png"," ",""
"image-keyboard-response","20","1082029","0.0-3.0-0.14","44","Low_HMMActual","","","","","","5846.800000000745","","","","tutorial/tutorial15.png"," ",""
"image-keyboard-response","21","1093101","0.0-4.0","44","Low_HMMActual","","","","","","11071.200000001118","","","","tutorial/tutorial16.png","arrowup",""
"image-keyboard-response","22","1103269","0.0-5.0","44","Low_HMMActual","","","","","","7641.199999999255","","","","tutorial/tutorial17.png","arrowright",""
"image-keyboard-response","23","1115397","0.0-6.0","44","Low_HMMActual","","","","","","6199.699999999255","","","","tutorial/tutorial18.png","arrowleft",""
"image-keyboard-response","24","1153612","0.0-7.0","44","Low_HMMActual","","","","","","36530.40000000037","","","","tutorial/tutorial19.png"," ",""
"html-keyboard-response","25","1168204","0.0-8.0","45","Low_HMMActual","","","","","","14589.400000000373","","","","<div class=""container"" style=""height:800px;width:800px;display:flex;flex-direction:column;justify-content:center;align-items:center;text-align:center;font-weight:normal;font-family:Arial;font-size:20px""><p>Loading episode&hellip;</p><div>"," ",""
"image-button-response","26","1191790","0.0-9.0-0.0","45","Low_HMMActual","","","","","","23584.60000000149","","","","Images/NoChoice.png","","0"
"image-button-response","27","1192092","0.0-9.0-1.0","45","Low_HMMActual","","","","","","null","","","","Images/BlackBeadChoice.png","","null"
"image-button-response","28","1192593","0.0-9.0-2.0","45","Low_HMMActual","","","","","","null","","","","Images/BlackBeadChoiceWrong.png","","null"
"image-button-response","29","1206168","0.0-9.0-0.1","45","Low_HMMActual","","","","","","13574.099999999627","","","","Images/NewTrialWC.png","","0"
"image-button-response","30","1206469","0.0-9.0-1.1","45","Low_HMMActual","","","","","","null","","","","Images/BlackBeadChoice.png","","null"
"image-button-response","31","1206970","0.0-9.0-2.1","45","Low_HMMActual","","","","","","null","","","","Images/BlackBeadChoiceWrong.png","","null"
"image-button-response","32","1209160","0.0-9.0-0.2","45","Low_HMMActual","","","","","","2189.300000000745","","","","Images/NewTrialWC.png","","0"
"image-button-response","33","1209461","0.0-9.0-1.2","45","Low_HMMActual","","","","","","null","","","","Images/BlackBeadChoice.png","","null"
"image-button-response","34","1209963","0.0-9.0-2.2","45","Low_HMMActual","","","","","","null","","","","Images/BlackBeadChoiceWrong.png","","null"
"image-button-response","35","1214050","0.0-9.0-0.3","45","Low_HMMActual","","","","","","4085.2999999988824","","","","Images/NewTrialWC.png","","0"
"image-button-response","36","1214351","0.0-9.0-1.3","45","Low_HMMActual","","","","","","null","","","","Images/BlackBeadChoice.png","","null"
"image-button-response","37","1214852","0.0-9.0-2.3","45","Low_HMMActual","","","","","","null","","","","Images/BlackBeadChoiceCorrect.png","","null"
"image-button-response","38","1222670","0.0-9.0-0.4","45","Low_HMMActual","","","","","","7817.0999999996275","","","","Images/NewTrialBC.png","","0"
"image-button-response","39","1222971","0.0-9.0-1.4","45","Low_HMMActual","","","","","","null","","","","Images/BlackBeadChoice.png","","null"
"image-button-response","40","1223472","0.0-9.0-2.4","45","Low_HMMActual","","","","","","null","","","","Images/BlackBeadChoiceWrong.png","","null"
"image-button-response","41","1225800","0.0-9.0-0.5","45","Low_HMMActual","","","","","","2326.2999999988824","","","","Images/NewTrialWC.png","","0"
"image-button-response","42","1226101","0.0-9.0-1.5","45","Low_HMMActual","","","","","","null","","","","Images/BlackBeadChoice.png","","null"
"image-button-response","43","1226602","0.0-9.0-2.5","45","Low_HMMActual","","","","","","null","","","","Images/BlackBeadChoiceWrong.png","","null"
"image-button-response","44","1227409","0.0-9.0-0.6","45","Low_HMMActual","","","","","","806.5999999996275","","","","Images/NewTrialWC.png","","2"
"image-button-response","45","1227711","0.0-9.0-1.6","45","Low_HMMActual","","","","","","null","","","","Images/WhiteBeadChoice.png","","null"
"image-button-response","46","1228212","0.0-9.0-2.6","45","Low_HMMActual","","","","","","null","","","","Images/WhiteBeadChoiceCorrect.png","","null"
"image-button-response","47","1230113","0.0-9.0-0.7","45","Low_HMMActual","","","","","","1900.5","","","","Images/NewTrialWC.png","","2"
"image-button-response","48","1230415","0.0-9.0-1.7","45","Low_HMMActual","","","","","","null","","","","Images/WhiteBeadChoice.png","","null"
"image-button-response","49","1230916","0.0-9.0-2.7","45","Low_HMMActual","","","","","","null","","","","Images/WhiteBeadChoiceCorrect.png","","null"
"image-button-response","50","1231067","0.0-9.0-0.8","45","Low_HMMActual","","","","","","150.2000000011176","","","","Images/NewTrialWC.png","","2"
"image-button-response","51","1231368","0.0-9.0-1.8","45","Low_HMMActual","","","","","","null","","","","Images/WhiteBeadChoice.png","","null"
"image-button-response","52","1231870","0.0-9.0-2.8","45","Low_HMMActual","","","","","","null","","","","Images/WhiteBeadChoiceCorrect.png","","null"
"image-button-response","53","1232469","0.0-9.0-0.9","45","Low_HMMActual","","","","","","598.5","","","","Images/NewTrialWC.png","","2"
"image-button-response","54","1232770","0.0-9.0-1.9","45","Low_HMMActual","","","","","","null","","","","Images/WhiteBeadChoice.png","","null"
"image-button-response","55","1233271","0.0-9.0-2.9","45","Low_HMMActual","","","","","","null","","","","Images/WhiteBeadChoiceCorrect.png","","null"
"html-keyboard-response","56","1243394","0.0-10.0","45","Low_HMMActual","","","","","","10122.599999999627","","","",""," ",""
"image-keyboard-response","57","1248138","0.0-11.0","45","Low_HMMActual","","","","","","4742.9000000003725","","","","tutorial/tutorial20.png"," ",""
"html-keyboard-response","58","1290929","0.0-12.0","46","Low_HMMActual","","","","","","42789.300000000745","","","","<div class=""container"" style=""height:800px;width:800px;display:flex;flex-direction:column;justify-content:center;align-items:center;text-align:center;font-weight:normal;font-family:Arial;font-size:20px""><p>Loading episode&hellip;</p><div>"," ",""
"image-button-response","59","1293322","0.0-13.0-0.0","46","Low_HMMActual","","","","","","2391.7000000011176","","","","Images/NoChoice.png","","0"
"image-button-response","60","1293623","0.0-13.0-1.0","46","Low_HMMActual","","","","","","null","","","","Images/BlackBeadChoice.png","","null"
"image-button-response","61","1294125","0.0-13.0-2.0","46","Low_HMMActual","","","","","","null","","","","Images/BlackBeadChoiceCorrect.png","","null"
"image-button-response","62","1294914","0.0-13.0-0.1","46","Low_HMMActual","","","","","","788.1999999992549","","","","Images/NewTrialBC.png","","0"
"image-button-response","63","1295215","0.0-13.0-1.1","46","Low_HMMActual","","","","","","null","","","","Images/BlackBeadChoice.png","","null"
"image-button-response","64","1295716","0.0-13.0-2.1","46","Low_HMMActual","","","","","","null","","","","Images/BlackBeadChoiceCorrect.png","","null"
"image-button-response","65","1296836","0.0-13.0-0.2","46","Low_HMMActual","","","","","","1118.7000000011176","","","","Images/NewTrialBC.png","","0"
"image-button-response","66","1297138","0.0-13.0-1.2","46","Low_HMMActual","","","","","","null","","","","Images/BlackBeadChoice.png","","null"
"image-button-response","67","1297639","0.0-13.0-2.2","46","Low_HMMActual","","","","","","null","","","","Images/BlackBeadChoiceWrong.png","","null"
"image-button-response","68","1299218","0.0-13.0-0.3","46","Low_HMMActual","","","","","","1577.800000000745","","","","Images/NewTrialWC.png","","2"
"image-button-response","69","1299519","0.0-13.0-1.3","46","Low_HMMActual","","","","","","null","","","","Images/WhiteBeadChoice.png","","null"
"image-button-response","70","1300019","0.0-13.0-2.3","46","Low_HMMActual","","","","","","null","","","","Images/WhiteBeadChoiceWrong.png","","null"
"image-button-response","71","1301072","0.0-13.0-0.4","46","Low_HMMActual","","","","","","1051.4000000003725","","","","Images/NewTrialBC.png","","0"
"image-button-response","72","1301373","0.0-13.0-1.4","46","Low_HMMActual","","","","","","null","","","","Images/BlackBeadChoice.png","","null"
"image-button-response","73","1301874","0.0-13.0-2.4","46","Low_HMMActual","","","","","","null","","","","Images/BlackBeadChoiceWrong.png","","null"
"image-button-response","74","1302756","0.0-13.0-0.5","46","Low_HMMActual","","","","","","881.2000000011176","","","","Images/NewTrialWC.png","","2"
"image-button-response","75","1303057","0.0-13.0-1.5","46","Low_HMMActual","","","","","","null","","","","Images/WhiteBeadChoice.png","","null"
"image-button-response","76","1303559","0.0-13.0-2.5","46","Low_HMMActual","","","","","","null","","","","Images/WhiteBeadChoiceWrong.png","","null"
"image-button-response","77","1304324","0.0-13.0-0.6","46","Low_HMMActual","","","","","","764.3000000007451","","","","Images/NewTrialBC.png","","0"
"image-button-response","78","1304625","0.0-13.0-1.6","46","Low_HMMActual","","","","","","null","","","","Images/BlackBeadChoice.png","","null"
"image-button-response","79","1305126","0.0-13.0-2.6","46","Low_HMMActual","","","","","","null","","","","Images/BlackBeadChoiceCorrect.png","","null"
"image-button-response","80","1305452","0.0-13.0-0.7","46","Low_HMMActual","","","","","","324.59999999962747","","","","Images/NewTrialBC.png","","0"
"image-button-response","81","1305753","0.0-13.0-1.7","46","Low_HMMActual","","","","","","null","","","","Images/BlackBeadChoice.png","","null"
"image-button-response","82","1306253","0.0-13.0-2.7","46","Low_HMMActual","","","","","","null","","","","Images/BlackBeadChoiceCorrect.png","","null"
"image-button-response","83","1306450","0.0-13.0-0.8","46","Low_HMMActual","","","","","","195.10000000149012","","","","Images/NewTrialBC.png","","0"
"image-button-response","84","1306751","0.0-13.0-1.8","46","Low_HMMActual","","","","","","null","","","","Images/BlackBeadChoice.png","","null"
"image-button-response","85","1307252","0.0-13.0-2.8","46","Low_HMMActual","","","","","","null","","","","Images/BlackBeadChoiceCorrect.png","","null"
"image-button-response","86","1307924","0.0-13.0-0.9","46","Low_HMMActual","","","","","","670.5999999996275","","","","Images/NewTrialBC.png","","0"
"image-button-response","87","1308225","0.0-13.0-1.9","46","Low_HMMActual","","","","","","null","","","","Images/BlackBeadChoice.png","","null"
"image-button-response","88","1308726","0.0-13.0-2.9","46","Low_HMMActual","","","","","","null","","","","Images/BlackBeadChoiceWrong.png","","null"
"image-button-response","89","1310615","0.0-13.0-0.10","46","Low_HMMActual","","","","","","1888.7999999988824","","","","Images/NewTrialWC.png","","0"
"image-button-response","90","1310916","0.0-13.0-1.10","46","Low_HMMActual","","","","","","null","","","","Images/BlackBeadChoice.png","","null"
"image-button-response","91","1311418","0.0-13.0-2.10","46","Low_HMMActual","","","","","","null","","","","Images/BlackBeadChoiceWrong.png","","null"
"image-button-response","92","1312368","0.0-13.0-0.11","46","Low_HMMActual","","","","","","948.8999999985099","","","","Images/NewTrialWC.png","","2"
"image-button-response","93","1312669","0.0-13.0-1.11","46","Low_HMMActual","","","","","","null","","","","Images/WhiteBeadChoice.png","","null"
"image-button-response","94","1313170","0.0-13.0-2.11","46","Low_HMMActual","","","","","","null","","","","Images/WhiteBeadChoiceWrong.png","","null"
"image-button-response","95","1313797","0.0-13.0-0.12","46","Low_HMMActual","","","","","","627","","","","Images/NewTrialBC.png","","0"
"image-button-response","96","1314099","0.0-13.0-1.12","46","Low_HMMActual","","","","","","null","","","","Images/BlackBeadChoice.png","","null"
"image-button-response","97","1314600","0.0-13.0-2.12","46","Low_HMMActual","","","","","","null","","","","Images/BlackBeadChoiceCorrect.png","","null"
"image-button-response","98","1315009","0.0-13.0-0.13","46","Low_HMMActual","","","","","","408.59999999962747","","","","Images/NewTrialBC.png","","0"
"image-button-response","99","1315311","0.0-13.0-1.13","46","Low_HMMActual","","","","","","null","","","","Images/BlackBeadChoice.png","","null"
"image-button-response","100","1315812","0.0-13.0-2.13","46","Low_HMMActual","","","","","","null","","","","Images/BlackBeadChoiceCorrect.png","","null"
"image-button-response","101","1317853","0.0-13.0-0.14","46","Low_HMMActual","","","","","","2040.5","","","","Images/NewTrialBC.png","","0"
"image-button-response","102","1318155","0.0-13.0-1.14","46","Low_HMMActual","","","","","","null","","","","Images/BlackBeadChoice.png","","null"
"image-button-response","103","1318657","0.0-13.0-2.14","46","Low_HMMActual","","","","","","null","","","","Images/BlackBeadChoiceCorrect.png","","null"
"image-button-response","104","1319155","0.0-13.0-0.15","46","Low_HMMActual","","","","","","497.19999999925494","","","","Images/NewTrialBC.png","","0"
"image-button-response","105","1319457","0.0-13.0-1.15","46","Low_HMMActual","","","","","","null","","","","Images/BlackBeadChoice.png","","null"
"image-button-response","106","1319958","0.0-13.0-2.15","46","Low_HMMActual","","","","","","null","","","","Images/BlackBeadChoiceCorrect.png","","null"
"image-button-response","107","1320259","0.0-13.0-0.16","46","Low_HMMActual","","","","","","300.5","","","","Images/NewTrialBC.png","","0"
"image-button-response","108","1320561","0.0-13.0-1.16","46","Low_HMMActual","","","","","","null","","","","Images/BlackBeadChoice.png","","null"
"image-button-response","109","1321063","0.0-13.0-2.16","46","Low_HMMActual","","","","","","null","","","","Images/BlackBeadChoiceWrong.png","","null"
"image-button-response","110","1322439","0.0-13.0-0.17","46","Low_HMMActual","","","","","","1375.4000000003725","","","","Images/NewTrialWC.png","","0"
"image-button-response","111","1322740","0.0-13.0-1.17","46","Low_HMMActual","","","","","","null","","","","Images/BlackBeadChoice.png","","null"
"image-button-response","112","1323242","0.0-13.0-2.17","46","Low_HMMActual","","","","","","null","","","","Images/BlackBeadChoiceCorrect.png","","null"
"image-button-response","113","1323777","0.0-13.0-0.18","46","Low_HMMActual","","","","","","534.7000000011176","","","","Images/NewTrialBC.png","","0"
"image-button-response","114","1324079","0.0-13.0-1.18","46","Low_HMMActual","","","","","","null","","","","Images/BlackBeadChoice.png","","null"
"image-button-response","115","1324580","0.0-13.0-2.18","46","Low_HMMActual","","","","","","null","","","","Images/BlackBeadChoiceWrong.png","","null"
"image-button-response","116","1325157","0.0-13.0-0.19","46","Low_HMMActual","","","","","","576.8000000007451","","","","Images/NewTrialWC.png","","0"
"image-button-response","117","1325459","0.0-13.0-1.19","46","Low_HMMActual","","","","","","null","","","","Images/BlackBeadChoice.png","","null"
"image-button-response","118","1325960","0.0-13.0-2.19","46","Low_HMMActual","","","","","","null","","","","Images/BlackBeadChoiceWrong.png","","null"
"image-button-response","119","1326511","0.0-13.0-0.20","46","Low_HMMActual","","","","","","550.3000000007451","","","","Images/NewTrialWC.png","","0"
"image-button-response","120","1326813","0.0-13.0-1.20","46","Low_HMMActual","","","","","","null","","","","Images/BlackBeadChoice.png","","null"
"image-button-response","121","1327314","0.0-13.0-2.20","46","Low_HMMActual","","","","","","null","","","","Images/BlackBeadChoiceCorrect.png","","null"
"image-button-response","122","1327849","0.0-13.0-0.21","46","Low_HMMActual","","","","","","534.8000000007451","","","","Images/NewTrialBC.png","","0"
"image-button-response","123","1328151","0.0-13.0-1.21","46","Low_HMMActual","","","","","","null","","","","Images/BlackBeadChoice.png","","null"
"image-button-response","124","1328653","0.0-13.0-2.21","46","Low_HMMActual","","","","","","null","","","","Images/BlackBeadChoiceCorrect.png","","null"
"image-button-response","125","1328965","0.0-13.0-0.22","46","Low_HMMActual","","","","","","311.30000000074506","","","","Images/NewTrialBC.png","","0"
"image-button-response","126","1329266","0.0-13.0-1.22","46","Low_HMMActual","","","","","","null","","","","Images/BlackBeadChoice.png","","null"
"image-button-response","127","1329767","0.0-13.0-2.22","46","Low_HMMActual","","","","","","null","","","","Images/BlackBeadChoiceCorrect.png","","null"
"image-button-response","128","1329987","0.0-13.0-0.23","46","Low_HMMActual","","","","","","218.90000000037253","","","","Images/NewTrialBC.png","","0"
"image-button-response","129","1330288","0.0-13.0-1.23","46","Low_HMMActual","","","","","","null","","","","Images/BlackBeadChoice.png","","null"
"image-button-response","130","1330789","0.0-13.0-2.23","46","Low_HMMActual","","","","","","null","","","","Images/BlackBeadChoiceCorrect.png","","null"
"image-button-response","131","1331165","0.0-13.0-0.24","46","Low_HMMActual","","","","","","375","","","","Images/NewTrialBC.png","","0"
"image-button-response","132","1331466","0.0-13.0-1.24","46","Low_HMMActual","","","","","","null","","","","Images/BlackBeadChoice.png","","null"
"image-button-response","133","1331967","0.0-13.0-2.24","46","Low_HMMActual","","","","","","null","","","","Images/BlackBeadChoiceWrong.png","","null"
"image-button-response","134","1333727","0.0-13.0-0.25","46","Low_HMMActual","","","","","","1758.8999999985099","","","","Images/NewTrialWC.png","","0"
"image-button-response","135","1334029","0.0-13.0-1.25","46","Low_HMMActual","","","","","","null","","","","Images/BlackBeadChoice.png","","null"
"image-button-response","136","1334529","0.0-13.0-2.25","46","Low_HMMActual","","","","","","null","","","","Images/BlackBeadChoiceCorrect.png","","null"
"image-button-response","137","1334847","0.0-13.0-0.26","46","Low_HMMActual","","","","","","316.7999999988824","","","","Images/NewTrialBC.png","","0"
"image-button-response","138","1335149","0.0-13.0-1.26","46","Low_HMMActual","","","","","","null","","","","Images/BlackBeadChoice.png","","null"
"image-button-response","139","1335649","0.0-13.0-2.26","46","Low_HMMActual","","","","","","null","","","","Images/BlackBeadChoiceCorrect.png","","null"
"image-button-response","140","1335877","0.0-13.0-0.27","46","Low_HMMActual","","","","","","226.5","","","","Images/NewTrialBC.png","","0"
"image-button-response","141","1336178","0.0-13.0-1.27","46","Low_HMMActual","","","","","","null","","","","Images/BlackBeadChoice.png","","null"
"image-button-response","142","1336679","0.0-13.0-2.27","46","Low_HMMActual","","","","","","null","","","","Images/BlackBeadChoiceWrong.png","","null"
"image-button-response","143","1337509","0.0-13.0-0.28","46","Low_HMMActual","","","","","","828.6999999992549","","","","Images/NewTrialWC.png","","2"
"image-button-response","144","1337810","0.0-13.0-1.28","46","Low_HMMActual","","","","","","null","","","","Images/WhiteBeadChoice.png","","null"
"image-button-response","145","1338311","0.0-13.0-2.28","46","Low_HMMActual","","","","","","null","","","","Images/WhiteBeadChoiceCorrect.png","","null"
"image-button-response","146","1338943","0.0-13.0-0.29","46","Low_HMMActual","","","","","","631","","","","Images/NewTrialWC.png","","2"
"image-button-response","147","1339244","0.0-13.0-1.29","46","Low_HMMActual","","","","","","null","","","","Images/WhiteBeadChoice.png","","null"
"image-button-response","148","1339745","0.0-13.0-2.29","46","Low_HMMActual","","","","","","null","","","","Images/WhiteBeadChoiceWrong.png","","null"
"image-button-response","149","1340377","0.0-13.0-0.30","46","Low_HMMActual","","","","","","630.7000000011176","","","","Images/NewTrialBC.png","","0"
"image-button-response","150","1340678","0.0-13.0-1.30","46","Low_HMMActual","","","","","","null","","","","Images/BlackBeadChoice.png","","null"
"image-button-response","151","1341179","0.0-13.0-2.30","46","Low_HMMActual","","","","","","null","","","","Images/BlackBeadChoiceCorrect.png","","null"
"image-button-response","152","1341855","0.0-13.0-0.31","46","Low_HMMActual","","","","","","674.8000000007451","","","","Images/NewTrialBC.png","","0"
"image-button-response","153","1342156","0.0-13.0-1.31","46","Low_HMMActual","","","","","","null","","","","Images/BlackBeadChoice.png","","null"
"image-button-response","154","1342658","0.0-13.0-2.31","46","Low_HMMActual","","","","","","null","","","","Images/BlackBeadChoiceCorrect.png","","null"
"image-button-response","155","1343313","0.0-13.0-0.32","46","Low_HMMActual","","","","","","653.7000000011176","","","","Images/NewTrialBC.png","","0"
"image-button-response","156","1343614","0.0-13.0-1.32","46","Low_HMMActual","","","","","","null","","","","Images/BlackBeadChoice.png","","null"
"image-button-response","157","1344115","0.0-13.0-2.32","46","Low_HMMActual","","","","","","null","","","","Images/BlackBeadChoiceWrong.png","","null"
"image-button-response","158","1344741","0.0-13.0-0.33","46","Low_HMMActual","","","","","","624.8000000007451","","","","Images/NewTrialWC.png","","0"
"image-button-response","159","1345042","0.0-13.0-1.33","46","Low_HMMActual","","","","","","null","","","","Images/BlackBeadChoice.png","","null"
"image-button-response","160","1345542","0.0-13.0-2.33","46","Low_HMMActual","","","","","","null","","","","Images/BlackBeadChoiceCorrect.png","","null"
"image-button-response","161","1346077","0.0-13.0-0.34","46","Low_HMMActual","","","","","","533.3000000007451","","","","Images/NewTrialBC.png","","0"
"image-button-response","162","1346378","0.0-13.0-1.34","46","Low_HMMActual","","","","","","null","","","","Images/BlackBeadChoice.png","","null"
"image-button-response","163","1346879","0.0-13.0-2.34","46","Low_HMMActual","","","","","","null","","","","Images/BlackBeadChoiceCorrect.png","","null"
"image-button-response","164","1347045","0.0-13.0-0.35","46","Low_HMMActual","","","","","","164.90000000037253","","","","Images/NewTrialBC.png","","0"
"image-button-response","165","1347347","0.0-13.0-1.35","46","Low_HMMActual","","","","","","null","","","","Images/BlackBeadChoice.png","","null"
"image-button-response","166","1347847","0.0-13.0-2.35","46","Low_HMMActual","","","","","","null","","","","Images/BlackBeadChoiceWrong.png","","null"
"image-button-response","167","1348583","0.0-13.0-0.36","46","Low_HMMActual","","","","","","734.5","","","","Images/NewTrialWC.png","","0"
"image-button-response","168","1348884","0.0-13.0-1.36","46","Low_HMMActual","","","","","","null","","","","Images/BlackBeadChoice.png","","null"
"image-button-response","169","1349386","0.0-13.0-2.36","46","Low_HMMActual","","","","","","null","","","","Images/BlackBeadChoiceWrong.png","","null"
"image-button-response","170","1349917","0.0-13.0-0.37","46","Low_HMMActual","","","","","","530.0999999996275","","","","Images/NewTrialWC.png","","0"
"image-button-response","171","1350218","0.0-13.0-1.37","46","Low_HMMActual","","","","","","null","","","","Images/BlackBeadChoice.png","","null"
"image-button-response","172","1350719","0.0-13.0-2.37","46","Low_HMMActual","","","","","","null","","","","Images/BlackBeadChoiceWrong.png","","null"
"image-button-response","173","1351305","0.0-13.0-0.38","46","Low_HMMActual","","","","","","584.8000000007451","","","","Images/NewTrialWC.png","","0"
"image-button-response","174","1351606","0.0-13.0-1.38","46","Low_HMMActual","","","","","","null","","","","Images/BlackBeadChoice.png","","null"
"image-button-response","175","1352108","0.0-13.0-2.38","46","Low_HMMActual","","","","","","null","","","","Images/BlackBeadChoiceWrong.png","","null"
"image-button-response","176","1352647","0.0-13.0-0.39","46","Low_HMMActual","","","","","","537.5","","","","Images/NewTrialWC.png","","2"
"image-button-response","177","1352947","0.0-13.0-1.39","46","Low_HMMActual","","","","","","null","","","","Images/WhiteBeadChoice.png","","null"
"image-button-response","178","1353448","0.0-13.0-2.39","46","Low_HMMActual","","","","","","null","","","","Images/WhiteBeadChoiceCorrect.png","","null"
"image-button-response","179","1353747","0.0-13.0-0.40","46","Low_HMMActual","","","","","","297.1000000014901","","","","Images/NewTrialWC.png","","2"
"image-button-response","180","1354048","0.0-13.0-1.40","46","Low_HMMActual","","","","","","null","","","","Images/WhiteBeadChoice.png","","null"
"image-button-response","181","1354550","0.0-13.0-2.40","46","Low_HMMActual","","","","","","null","","","","Images/WhiteBeadChoiceCorrect.png","","null"
"image-button-response","182","1354987","0.0-13.0-0.41","46","Low_HMMActual","","","","","","435.59999999962747","","","","Images/NewTrialWC.png","","2"
"image-button-response","183","1355288","0.0-13.0-1.41","46","Low_HMMActual","","","","","","null","","","","Images/WhiteBeadChoice.png","","null"
"image-button-response","184","1355789","0.0-13.0-2.41","46","Low_HMMActual","","","","","","null","","","","Images/WhiteBeadChoiceCorrect.png","","null"
"image-button-response","185","1356201","0.0-13.0-0.42","46","Low_HMMActual","","","","","","410.59999999962747","","","","Images/NewTrialWC.png","","2"
"image-button-response","186","1356502","0.0-13.0-1.42","46","Low_HMMActual","","","","","","null","","","","Images/WhiteBeadChoice.png","","null"
"image-button-response","187","1357003","0.0-13.0-2.42","46","Low_HMMActual","","","","","","null","","","","Images/WhiteBeadChoiceCorrect.png","","null"
"image-button-response","188","1357433","0.0-13.0-0.43","46","Low_HMMActual","","","","","","428.30000000074506","","","","Images/NewTrialWC.png","","2"
"image-button-response","189","1357734","0.0-13.0-1.43","46","Low_HMMActual","","","","","","null","","","","Images/WhiteBeadChoice.png","","null"
"image-button-response","190","1358235","0.0-13.0-2.43","46","Low_HMMActual","","","","","","null","","","","Images/WhiteBeadChoiceCorrect.png","","null"
"image-button-response","191","1358491","0.0-13.0-0.44","46","Low_HMMActual","","","","","","254.59999999962747","","","","Images/NewTrialWC.png","","2"
"image-button-response","192","1358792","0.0-13.0-1.44","46","Low_HMMActual","","","","","","null","","","","Images/WhiteBeadChoice.png","","null"
"image-button-response","193","1359294","0.0-13.0-2.44","46","Low_HMMActual","","","","","","null","","","","Images/WhiteBeadChoiceCorrect.png","","null"
"image-button-response","194","1359491","0.0-13.0-0.45","46","Low_HMMActual","","","","","","195.89999999850988","","","","Images/NewTrialWC.png","","2"
"image-button-response","195","1359791","0.0-13.0-1.45","46","Low_HMMActual","","","","","","null","","","","Images/WhiteBeadChoice.png","","null"
"image-button-response","196","1360293","0.0-13.0-2.45","46","Low_HMMActual","","","","","","null","","","","Images/WhiteBeadChoiceCorrect.png","","null"
"image-button-response","197","1360587","0.0-13.0-0.46","46","Low_HMMActual","","","","","","292.7999999988824","","","","Images/NewTrialWC.png","","2"
"image-button-response","198","1360888","0.0-13.0-1.46","46","Low_HMMActual","","","","","","null","","","","Images/WhiteBeadChoice.png","","null"
"image-button-response","199","1361389","0.0-13.0-2.46","46","Low_HMMActual","","","","","","null","","","","Images/WhiteBeadChoiceCorrect.png","","null"
"image-button-response","200","1361665","0.0-13.0-0.47","46","Low_HMMActual","","","","","","274.2999999988824","","","","Images/NewTrialWC.png","","2"
"image-button-response","201","1361967","0.0-13.0-1.47","46","Low_HMMActual","","","","","","null","","","","Images/WhiteBeadChoice.png","","null"
"image-button-response","202","1362468","0.0-13.0-2.47","46","Low_HMMActual","","","","","","null","","","","Images/WhiteBeadChoiceCorrect.png","","null"
"image-button-response","203","1362633","0.0-13.0-0.48","46","Low_HMMActual","","","","","","163.90000000037253","","","","Images/NewTrialWC.png","","2"
"image-button-response","204","1362935","0.0-13.0-1.48","46","Low_HMMActual","","","","","","null","","","","Images/WhiteBeadChoice.png","","null"
"image-button-response","205","1363436","0.0-13.0-2.48","46","Low_HMMActual","","","","","","null","","","","Images/WhiteBeadChoiceCorrect.png","","null"
"image-button-response","206","1363691","0.0-13.0-0.49","46","Low_HMMActual","","","","","","254.09999999962747","","","","Images/NewTrialWC.png","","2"
"image-button-response","207","1363992","0.0-13.0-1.49","46","Low_HMMActual","","","","","","null","","","","Images/WhiteBeadChoice.png","","null"
"image-button-response","208","1364494","0.0-13.0-2.49","46","Low_HMMActual","","","","","","null","","","","Images/WhiteBeadChoiceWrong.png","","null"
"image-button-response","209","1365351","0.0-13.0-0.50","46","Low_HMMActual","","","","","","856.2999999988824","","","","Images/NewTrialBC.png","","0"
"image-button-response","210","1365652","0.0-13.0-1.50","46","Low_HMMActual","","","","","","null","","","","Images/BlackBeadChoice.png","","null"
"image-button-response","211","1366153","0.0-13.0-2.50","46","Low_HMMActual","","","","","","null","","","","Images/BlackBeadChoiceCorrect.png","","null"
"image-button-response","212","1366277","0.0-13.0-0.51","46","Low_HMMActual","","","","","","122.09999999962747","","","","Images/NewTrialBC.png","","0"
"image-button-response","213","1366577","0.0-13.0-1.51","46","Low_HMMActual","","","","","","null","","","","Images/BlackBeadChoice.png","","null"
"image-button-response","214","1367078","0.0-13.0-2.51","46","Low_HMMActual","","","","","","null","","","","Images/BlackBeadChoiceWrong.png","","null"
"image-button-response","215","1367634","0.0-13.0-0.52","46","Low_HMMActual","","","","","","555.5","","","","Images/NewTrialWC.png","","2"
"image-button-response","216","1367936","0.0-13.0-1.52","46","Low_HMMActual","","","","","","null","","","","Images/WhiteBeadChoice.png","","null"
"image-button-response","217","1368437","0.0-13.0-2.52","46","Low_HMMActual","","","","","","455.40000000037253","","","","Images/WhiteBeadChoiceCorrect.png","","2"
"image-button-response","218","1369536","0.0-13.0-0.53","46","Low_HMMActual","","","","","","1097.800000000745","","","","Images/NewTrialWC.png","","2"
"image-button-response","219","1369838","0.0-13.0-1.53","46","Low_HMMActual","","","","","","null","","","","Images/WhiteBeadChoice.png","","null"
"image-button-response","220","1370339","0.0-13.0-2.53","46","Low_HMMActual","","","","","","null","","","","Images/WhiteBeadChoiceCorrect.png","","null"
"image-button-response","221","1370486","0.0-13.0-0.54","46","Low_HMMActual","","","","","","145.69999999925494","","","","Images/NewTrialWC.png","","2"
"image-button-response","222","1370788","0.0-13.0-1.54","46","Low_HMMActual","","","","","","null","","","","Images/WhiteBeadChoice.png","","null"
"image-button-response","223","1371289","0.0-13.0-2.54","46","Low_HMMActual","","","","","","null","","","","Images/WhiteBeadChoiceWrong.png","","null"
"image-button-response","224","1371951","0.0-13.0-0.55","46","Low_HMMActual","","","","","","660","","","","Images/NewTrialBC.png","","0"
"image-button-response","225","1372251","0.0-13.0-1.55","46","Low_HMMActual","","","","","","null","","","","Images/BlackBeadChoice.png","","null"
"image-button-response","226","1372752","0.0-13.0-2.55","46","Low_HMMActual","","","","","","null","","","","Images/BlackBeadChoiceWrong.png","","null"
"image-button-response","227","1374612","0.0-13.0-0.56","46","Low_HMMActual","","","","","","1859.1000000014901","","","","Images/NewTrialWC.png","","3"
"image-button-response","228","1374914","0.0-13.0-1.56","46","Low_HMMActual","","","","","","null","","","","Images/WhiteBeadChoice.png","","null"
"image-button-response","229","1375415","0.0-13.0-2.56","46","Low_HMMActual","","","","","","null","","","","Images/WhiteBeadChoiceWrong.png","","null"
"image-button-response","230","1377434","0.0-13.0-0.57","46","Low_HMMActual","","","","","","2018.4000000003725","","","","Images/NewTrialBC.png","","0"
"image-button-response","231","1377736","0.0-13.0-1.57","46","Low_HMMActual","","","","","","null","","","","Images/BlackBeadChoice.png","","null"
"image-button-response","232","1378237","0.0-13.0-2.57","46","Low_HMMActual","","","","","","null","","","","Images/BlackBeadChoiceWrong.png","","null"
"image-button-response","233","1379828","0.0-13.0-0.58","46","Low_HMMActual","","","","","","1590.4000000003725","","","","Images/NewTrialWC.png","","1"
"image-button-response","234","1380130","0.0-13.0-1.58","46","Low_HMMActual","","","","","","null","","","","Images/BlackBeadChoice.png","","null"
"image-button-response","235","1380631","0.0-13.0-2.58","46","Low_HMMActual","","","","","","null","","","","Images/BlackBeadChoiceWrong.png","","null"
"image-button-response","236","1381382","0.0-13.0-0.59","46","Low_HMMActual","","","","","","749.9000000003725","","","","Images/NewTrialWC.png","","3"
"image-button-response","237","1381684","0.0-13.0-1.59","46","Low_HMMActual","","","","","","null","","","","Images/WhiteBeadChoice.png","","null"
"image-button-response","238","1382185","0.0-13.0-2.59","46","Low_HMMActual","","","","","","479.7999999988824","","","","Images/WhiteBeadChoiceCorrect.png","","3"
"image-button-response","239","1383448","0.0-13.0-0.60","46","Low_HMMActual","","","","","","1262","","","","Images/NewTrialWC.png","","2"
"image-button-response","240","1383750","0.0-13.0-1.60","46","Low_HMMActual","","","","","","null","","","","Images/WhiteBeadChoice.png","","null"
"image-button-response","241","1384251","0.0-13.0-2.60","46","Low_HMMActual","","","","","","451.59999999962747","","","","Images/WhiteBeadChoiceCorrect.png","","2"
"image-button-response","242","1385616","0.0-13.0-0.61","46","Low_HMMActual","","","","","","1363.699999999255","","","","Images/NewTrialWC.png","","2"
"image-button-response","243","1385917","0.0-13.0-1.61","46","Low_HMMActual","","","","","","null","","","","Images/WhiteBeadChoice.png","","null"
"image-button-response","244","1386418","0.0-13.0-2.61","46","Low_HMMActual","","","","","","null","","","","Images/WhiteBeadChoiceCorrect.png","","null"
"image-button-response","245","1387130","0.0-13.0-0.62","46","Low_HMMActual","","","","","","710.9000000003725","","","","Images/NewTrialWC.png","","2"
"image-button-response","246","1387431","0.0-13.0-1.62","46","Low_HMMActual","","","","","","null","","","","Images/WhiteBeadChoice.png","","null"
"image-button-response","247","1387932","0.0-13.0-2.62","46","Low_HMMActual","","","","","","null","","","","Images/WhiteBeadChoiceCorrect.png","","null"
"image-button-response","248","1388362","0.0-13.0-0.63","46","Low_HMMActual","","","","","","428.59999999962747","","","","Images/NewTrialWC.png","","2"
"image-button-response","249","1388663","0.0-13.0-1.63","46","Low_HMMActual","","","","","","null","","","","Images/WhiteBeadChoice.png","","null"
"image-button-response","250","1389165","0.0-13.0-2.63","46","Low_HMMActual","","","","","","null","","","","Images/WhiteBeadChoiceCorrect.png","","null"
"image-button-response","251","1389934","0.0-13.0-0.64","46","Low_HMMActual","","","","","","768.3000000007451","","","","Images/NewTrialWC.png","","2"
"image-button-response","252","1390235","0.0-13.0-1.64","46","Low_HMMActual","","","","","","null","","","","Images/WhiteBeadChoice.png","","null"
"image-button-response","253","1390736","0.0-13.0-2.64","46","Low_HMMActual","","","","","","null","","","","Images/WhiteBeadChoiceCorrect.png","","null"
"image-button-response","254","1391116","0.0-13.0-0.65","46","Low_HMMActual","","","","","","379.09999999962747","","","","Images/NewTrialWC.png","","2"
"image-button-response","255","1391418","0.0-13.0-1.65","46","Low_HMMActual","","","","","","null","","","","Images/WhiteBeadChoice.png","","null"
"image-button-response","256","1391919","0.0-13.0-2.65","46","Low_HMMActual","","","","","","null","","","","Images/WhiteBeadChoiceCorrect.png","","null"
"image-button-response","257","1392240","0.0-13.0-0.66","46","Low_HMMActual","","","","","","319.80000000074506","","","","Images/NewTrialWC.png","","2"
"image-button-response","258","1392542","0.0-13.0-1.66","46","Low_HMMActual","","","","","","null","","","","Images/WhiteBeadChoice.png","","null"
"image-button-response","259","1393044","0.0-13.0-2.66","46","Low_HMMActual","","","","","","null","","","","Images/WhiteBeadChoiceCorrect.png","","null"
"image-button-response","260","1393346","0.0-13.0-0.67","46","Low_HMMActual","","","","","","301.40000000037253","","","","Images/NewTrialWC.png","","2"
"image-button-response","261","1393647","0.0-13.0-1.67","46","Low_HMMActual","","","","","","null","","","","Images/WhiteBeadChoice.png","","null"
"image-button-response","262","1394149","0.0-13.0-2.67","46","Low_HMMActual","","","","","","null","","","","Images/WhiteBeadChoiceCorrect.png","","null"
"image-button-response","263","1394336","0.0-13.0-0.68","46","Low_HMMActual","","","","","","186.60000000149012","","","","Images/NewTrialWC.png","","2"
"image-button-response","264","1394638","0.0-13.0-1.68","46","Low_HMMActual","","","","","","null","","","","Images/WhiteBeadChoice.png","","null"
"image-button-response","265","1395139","0.0-13.0-2.68","46","Low_HMMActual","","","","","","454.90000000037253","","","","Images/WhiteBeadChoiceCorrect.png","","2"
"image-button-response","266","1396330","0.0-13.0-0.69","46","Low_HMMActual","","","","","","1189.9000000003725","","","","Images/NewTrialWC.png","","2"
"image-button-response","267","1396631","0.0-13.0-1.69","46","Low_HMMActual","","","","","","null","","","","Images/WhiteBeadChoice.png","","null"
"image-button-response","268","1397132","0.0-13.0-2.69","46","Low_HMMActual","","","","","","null","","","","Images/WhiteBeadChoiceWrong.png","","null"
"image-button-response","269","1398372","0.0-13.0-0.70","46","Low_HMMActual","","","","","","1238.300000000745","","","","Images/NewTrialBC.png","","1"
"image-button-response","270","1398673","0.0-13.0-1.70","46","Low_HMMActual","","","","","","null","","","","Images/BlackBeadChoice.png","","null"
"image-button-response","271","1399174","0.0-13.0-2.70","46","Low_HMMActual","","","","","","null","","","","Images/BlackBeadChoiceWrong.png","","null"
"image-button-response","272","1400240","0.0-13.0-0.71","46","Low_HMMActual","","","","","","1064.7000000011176","","","","Images/NewTrialWC.png","","3"
"image-button-response","273","1400542","0.0-13.0-1.71","46","Low_HMMActual","","","","","","null","","","","Images/WhiteBeadChoice.png","","null"
"image-button-response","274","1401043","0.0-13.0-2.71","46","Low_HMMActual","","","","","","447.5","","","","Images/WhiteBeadChoiceCorrect.png","","3"
"image-button-response","275","1402006","0.0-13.0-0.72","46","Low_HMMActual","","","","","","961.5999999996275","","","","Images/NewTrialWC.png","","3"
"image-button-response","276","1402307","0.0-13.0-1.72","46","Low_HMMActual","","","","","","null","","","","Images/WhiteBeadChoice.png","","null"
"image-button-response","277","1402808","0.0-13.0-2.72","46","Low_HMMActual","","","","","","null","","","","Images/WhiteBeadChoiceCorrect.png","","null"
"image-button-response","278","1403142","0.0-13.0-0.73","46","Low_HMMActual","","","","","","332.69999999925494","","","","Images/NewTrialWC.png","","2"
"image-button-response","279","1403443","0.0-13.0-1.73","46","Low_HMMActual","","","","","","null","","","","Images/WhiteBeadChoice.png","","null"
"image-button-response","280","1403944","0.0-13.0-2.73","46","Low_HMMActual","","","","","","418","","","","Images/WhiteBeadChoiceCorrect.png","","2"
"image-button-response","281","1404760","0.0-13.0-0.74","46","Low_HMMActual","","","","","","814.2999999988824","","","","Images/NewTrialWC.png","","2"
"image-button-response","282","1405062","0.0-13.0-1.74","46","Low_HMMActual","","","","","","null","","","","Images/WhiteBeadChoice.png","","null"
"image-button-response","283","1405562","0.0-13.0-2.74","46","Low_HMMActual","","","","","","null","","","","Images/WhiteBeadChoiceCorrect.png","","null"
"image-button-response","284","1405732","0.0-13.0-0.75","46","Low_HMMActual","","","","","","168.2999999988824","","","","Images/NewTrialWC.png","","2"
"image-button-response","285","1406033","0.0-13.0-1.75","46","Low_HMMActual","","","","","","null","","","","Images/WhiteBeadChoice.png","","null"
"image-button-response","286","1406534","0.0-13.0-2.75","46","Low_HMMActual","","","","","","null","","","","Images/WhiteBeadChoiceCorrect.png","","null"
"image-button-response","287","1407326","0.0-13.0-0.76","46","Low_HMMActual","","","","","","790.0999999996275","","","","Images/NewTrialWC.png","","2"
"image-button-response","288","1407627","0.0-13.0-1.76","46","Low_HMMActual","","","","","","null","","","","Images/WhiteBeadChoice.png","","null"
"image-button-response","289","1408129","0.0-13.0-2.76","46","Low_HMMActual","","","","","","null","","","","Images/WhiteBeadChoiceCorrect.png","","null"
"image-button-response","290","1408595","0.0-13.0-0.77","46","Low_HMMActual","","","","","","465.19999999925494","","","","Images/NewTrialWC.png","","2"
"image-button-response","291","1408896","0.0-13.0-1.77","46","Low_HMMActual","","","","","","null","","","","Images/WhiteBeadChoice.png","","null"
"image-button-response","292","1409397","0.0-13.0-2.77","46","Low_HMMActual","","","","","","null","","","","Images/WhiteBeadChoiceCorrect.png","","null"
"image-button-response","293","1409834","0.0-13.0-0.78","46","Low_HMMActual","","","","","","435.3999999985099","","","","Images/NewTrialWC.png","","2"
"image-button-response","294","1410135","0.0-13.0-1.78","46","Low_HMMActual","","","","","","null","","","","Images/WhiteBeadChoice.png","","null"
"image-button-response","295","1410635","0.0-13.0-2.78","46","Low_HMMActual","","","","","","null","","","","Images/WhiteBeadChoiceCorrect.png","","null"
"image-button-response","296","1411276","0.0-13.0-0.79","46","Low_HMMActual","","","","","","639.0999999996275","","","","Images/NewTrialWC.png","","2"
"image-button-response","297","1411577","0.0-13.0-1.79","46","Low_HMMActual","","","","","","null","","","","Images/WhiteBeadChoice.png","","null"
"image-button-response","298","1412079","0.0-13.0-2.79","46","Low_HMMActual","","","","","","null","","","","Images/WhiteBeadChoiceCorrect.png","","null"
"image-button-response","299","1412625","0.0-13.0-0.80","46","Low_HMMActual","","","","","","545.9000000003725","","","","Images/NewTrialWC.png","","2"
"image-button-response","300","1412927","0.0-13.0-1.80","46","Low_HMMActual","","","","","","null","","","","Images/WhiteBeadChoice.png","","null"
"image-button-response","301","1413428","0.0-13.0-2.80","46","Low_HMMActual","","","","","","null","","","","Images/WhiteBeadChoiceCorrect.png","","null"
"image-button-response","302","1413890","0.0-13.0-0.81","46","Low_HMMActual","","","","","","460.90000000037253","","","","Images/NewTrialWC.png","","2"
"image-button-response","303","1414191","0.0-13.0-1.81","46","Low_HMMActual","","","","","","null","","","","Images/WhiteBeadChoice.png","","null"
"image-button-response","304","1414691","0.0-13.0-2.81","46","Low_HMMActual","","","","","","null","","","","Images/WhiteBeadChoiceCorrect.png","","null"
"image-button-response","305","1415088","0.0-13.0-0.82","46","Low_HMMActual","","","","","","395.09999999962747","","","","Images/NewTrialWC.png","","2"
"image-button-response","306","1415389","0.0-13.0-1.82","46","Low_HMMActual","","","","","","null","","","","Images/WhiteBeadChoice.png","","null"
"image-button-response","307","1415889","0.0-13.0-2.82","46","Low_HMMActual","","","","","","null","","","","Images/WhiteBeadChoiceWrong.png","","null"
"image-button-response","308","1417427","0.0-13.0-0.83","46","Low_HMMActual","","","","","","1537","","","","Images/NewTrialBC.png","","1"
"image-button-response","309","1417729","0.0-13.0-1.83","46","Low_HMMActual","","","","","","null","","","","Images/BlackBeadChoice.png","","null"
"image-button-response","310","1418230","0.0-13.0-2.83","46","Low_HMMActual","","","","","","null","","","","Images/BlackBeadChoiceWrong.png","","null"
"image-button-response","311","1419823","0.0-13.0-0.84","46","Low_HMMActual","","","","","","1592.5999999996275","","","","Images/NewTrialWC.png","","3"
"image-button-response","312","1420125","0.0-13.0-1.84","46","Low_HMMActual","","","","","","null","","","","Images/WhiteBeadChoice.png","","null"
"image-button-response","313","1420626","0.0-13.0-2.84","46","Low_HMMActual","","","","","","null","","","","Images/WhiteBeadChoiceCorrect.png","","null"
"image-button-response","314","1420843","0.0-13.0-0.85","46","Low_HMMActual","","","","","","216.30000000074506","","","","Images/NewTrialWC.png","","2"
"image-button-response","315","1421144","0.0-13.0-1.85","46","Low_HMMActual","","","","","","null","","","","Images/WhiteBeadChoice.png","","null"
"image-button-response","316","1421645","0.0-13.0-2.85","46","Low_HMMActual","","","","","","446.69999999925494","","","","Images/WhiteBeadChoiceCorrect.png","","2"
"image-button-response","317","1422273","0.0-13.0-0.86","46","Low_HMMActual","","","","","","627.0999999996275","","","","Images/NewTrialWC.png","","2"
"image-button-response","318","1422575","0.0-13.0-1.86","46","Low_HMMActual","","","","","","null","","","","Images/WhiteBeadChoice.png","","null"
"image-button-response","319","1423076","0.0-13.0-2.86","46","Low_HMMActual","","","","","","433.7000000011176","","","","Images/WhiteBeadChoiceCorrect.png","","2"
"image-button-response","320","1423727","0.0-13.0-0.87","46","Low_HMMActual","","","","","","650.1000000014901","","","","Images/NewTrialWC.png","","2"
"image-button-response","321","1424028","0.0-13.0-1.87","46","Low_HMMActual","","","","","","null","","","","Images/WhiteBeadChoice.png","","null"
"image-button-response","322","1424529","0.0-13.0-2.87","46","Low_HMMActual","","","","","","null","","","","Images/WhiteBeadChoiceCorrect.png","","null"
"image-button-response","323","1425185","0.0-13.0-0.88","46","Low_HMMActual","","","","","","654.3999999985099","","","","Images/NewTrialWC.png","","2"
"image-button-response","324","1425486","0.0-13.0-1.88","46","Low_HMMActual","","","","","","null","","","","Images/WhiteBeadChoice.png","","null"
"image-button-response","325","1425987","0.0-13.0-2.88","46","Low_HMMActual","","","","","","null","","","","Images/WhiteBeadChoiceWrong.png","","null"
"image-button-response","326","1428109","0.0-13.0-0.89","46","Low_HMMActual","","","","","","2121.0999999996275","","","","Images/NewTrialBC.png","","1"
"image-button-response","327","1428411","0.0-13.0-1.89","46","Low_HMMActual","","","","","","null","","","","Images/BlackBeadChoice.png","","null"
"image-button-response","328","1428911","0.0-13.0-2.89","46","Low_HMMActual","","","","","","null","","","","Images/BlackBeadChoiceCorrect.png","","null"
"image-button-response","329","1429765","0.0-13.0-0.90","46","Low_HMMActual","","","","","","852.6999999992549","","","","Images/NewTrialBC.png","","1"
"image-button-response","330","1430066","0.0-13.0-1.90","46","Low_HMMActual","","","","","","null","","","","Images/BlackBeadChoice.png","","null"
"image-button-response","331","1430567","0.0-13.0-2.90","46","Low_HMMActual","","","","","","null","","","","Images/BlackBeadChoiceCorrect.png","","null"
"image-button-response","332","1431177","0.0-13.0-0.91","46","Low_HMMActual","","","","","","608.5999999996275","","","","Images/NewTrialBC.png","","0"
"image-button-response","333","1431478","0.0-13.0-1.91","46","Low_HMMActual","","","","","","null","","","","Images/BlackBeadChoice.png","","null"
"image-button-response","334","1431980","0.0-13.0-2.91","46","Low_HMMActual","","","","","","null","","","","Images/BlackBeadChoiceWrong.png","","null"
"image-button-response","335","1433261","0.0-13.0-0.92","46","Low_HMMActual","","","","","","1279.7999999988824","","","","Images/NewTrialWC.png","","2"
"image-button-response","336","1433563","0.0-13.0-1.92","46","Low_HMMActual","","","","","","null","","","","Images/WhiteBeadChoice.png","","null"
"image-button-response","337","1434063","0.0-13.0-2.92","46","Low_HMMActual","","","","","","null","","","","Images/WhiteBeadChoiceCorrect.png","","null"
"image-button-response","338","1434231","0.0-13.0-0.93","46","Low_HMMActual","","","","","","166.69999999925494","","","","Images/NewTrialWC.png","","2"
"image-button-response","339","1434532","0.0-13.0-1.93","46","Low_HMMActual","","","","","","null","","","","Images/WhiteBeadChoice.png","","null"
"image-button-response","340","1435033","0.0-13.0-2.93","46","Low_HMMActual","","","","","","null","","","","Images/WhiteBeadChoiceWrong.png","","null"
"image-button-response","341","1436955","0.0-13.0-0.94","46","Low_HMMActual","","","","","","1920.9000000003725","","","","Images/NewTrialBC.png","","1"
"image-button-response","342","1437256","0.0-13.0-1.94","46","Low_HMMActual","","","","","","null","","","","Images/BlackBeadChoice.png","","null"
"image-button-response","343","1437757","0.0-13.0-2.94","46","Low_HMMActual","","","","","","null","","","","Images/BlackBeadChoiceCorrect.png","","null"
"image-button-response","344","1438143","0.0-13.0-0.95","46","Low_HMMActual","","","","","","384.90000000037253","","","","Images/NewTrialBC.png","","0"
"image-button-response","345","1438444","0.0-13.0-1.95","46","Low_HMMActual","","","","","","null","","","","Images/BlackBeadChoice.png","","null"
"image-button-response","346","1438945","0.0-13.0-2.95","46","Low_HMMActual","","","","","","null","","","","Images/BlackBeadChoiceCorrect.png","","null"
"image-button-response","347","1439209","0.0-13.0-0.96","46","Low_HMMActual","","","","","","262.59999999962747","","","","Images/NewTrialBC.png","","0"
"image-button-response","348","1439510","0.0-13.0-1.96","46","Low_HMMActual","","","","","","null","","","","Images/BlackBeadChoice.png","","null"
"image-button-response","349","1440011","0.0-13.0-2.96","46","Low_HMMActual","","","","","","null","","","","Images/BlackBeadChoiceWrong.png","","null"
"image-button-response","350","1441019","0.0-13.0-0.97","46","Low_HMMActual","","","","","","1007.6999999992549","","","","Images/NewTrialWC.png","","2"
"image-button-response","351","1441320","0.0-13.0-1.97","46","Low_HMMActual","","","","","","null","","","","Images/WhiteBeadChoice.png","","null"
"image-button-response","352","1441821","0.0-13.0-2.97","46","Low_HMMActual","","","","","","null","","","","Images/WhiteBeadChoiceCorrect.png","","null"
"image-button-response","353","1442601","0.0-13.0-0.98","46","Low_HMMActual","","","","","","778.3000000007451","","","","Images/NewTrialWC.png","","2"
"image-button-response","354","1442902","0.0-13.0-1.98","46","Low_HMMActual","","","","","","null","","","","Images/WhiteBeadChoice.png","","null"
"image-button-response","355","1443403","0.0-13.0-2.98","46","Low_HMMActual","","","","","","null","","","","Images/WhiteBeadChoiceCorrect.png","","null"
"image-button-response","356","1443817","0.0-13.0-0.99","46","Low_HMMActual","","","","","","412.90000000037253","","","","Images/NewTrialWC.png","","2"
"image-button-response","357","1444118","0.0-13.0-1.99","46","Low_HMMActual","","","","","","null","","","","Images/WhiteBeadChoice.png","","null"
"image-button-response","358","1444619","0.0-13.0-2.99","46","Low_HMMActual","","","","","","null","","","","Images/WhiteBeadChoiceWrong.png","","null"
"image-button-response","359","1445767","0.0-13.0-0.100","46","Low_HMMActual","","","","","","1146.8999999985099","","","","Images/NewTrialBC.png","","1"
"image-button-response","360","1446068","0.0-13.0-1.100","46","Low_HMMActual","","","","","","null","","","","Images/BlackBeadChoice.png","","null"
"image-button-response","361","1446569","0.0-13.0-2.100","46","Low_HMMActual","","","","","","null","","","","Images/BlackBeadChoiceCorrect.png","","null"
"image-button-response","362","1447021","0.0-13.0-0.101","46","Low_HMMActual","","","","","","450.6000000014901","","","","Images/NewTrialBC.png","","0"
"image-button-response","363","1447322","0.0-13.0-1.101","46","Low_HMMActual","","","","","","null","","","","Images/BlackBeadChoice.png","","null"
"image-button-response","364","1447823","0.0-13.0-2.101","46","Low_HMMActual","","","","","","null","","","","Images/BlackBeadChoiceCorrect.png","","null"
"image-button-response","365","1448507","0.0-13.0-0.102","46","Low_HMMActual","","","","","","682.1000000014901","","","","Images/NewTrialBC.png","","0"
"image-button-response","366","1448808","0.0-13.0-1.102","46","Low_HMMActual","","","","","","null","","","","Images/BlackBeadChoice.png","","null"
"image-button-response","367","1449309","0.0-13.0-2.102","46","Low_HMMActual","","","","","","null","","","","Images/BlackBeadChoiceCorrect.png","","null"
"image-button-response","368","1449883","0.0-13.0-0.103","46","Low_HMMActual","","","","","","572.2999999988824","","","","Images/NewTrialBC.png","","0"
"image-button-response","369","1450183","0.0-13.0-1.103","46","Low_HMMActual","","","","","","null","","","","Images/BlackBeadChoice.png","","null"
"image-button-response","370","1450685","0.0-13.0-2.103","46","Low_HMMActual","","","","","","null","","","","Images/BlackBeadChoiceCorrect.png","","null"
"image-button-response","371","1451289","0.0-13.0-0.104","46","Low_HMMActual","","","","","","603.0999999996275","","","","Images/NewTrialBC.png","","0"
"image-button-response","372","1451590","0.0-13.0-1.104","46","Low_HMMActual","","","","","","null","","","","Images/BlackBeadChoice.png","","null"
"image-button-response","373","1452092","0.0-13.0-2.104","46","Low_HMMActual","","","","","","null","","","","Images/BlackBeadChoiceCorrect.png","","null"
"image-button-response","374","1452631","0.0-13.0-0.105","46","Low_HMMActual","","","","","","537.2999999988824","","","","Images/NewTrialBC.png","","0"
"image-button-response","375","1452931","0.0-13.0-1.105","46","Low_HMMActual","","","","","","null","","","","Images/BlackBeadChoice.png","","null"
"image-button-response","376","1453433","0.0-13.0-2.105","46","Low_HMMActual","","","","","","null","","","","Images/BlackBeadChoiceCorrect.png","","null"
"image-button-response","377","1453729","0.0-13.0-0.106","46","Low_HMMActual","","","","","","295.09999999962747","","","","Images/NewTrialBC.png","","0"
"image-button-response","378","1454030","0.0-13.0-1.106","46","Low_HMMActual","","","","","","null","","","","Images/BlackBeadChoice.png","","null"
"image-button-response","379","1454531","0.0-13.0-2.106","46","Low_HMMActual","","","","","","null","","","","Images/BlackBeadChoiceWrong.png","","null"
"image-button-response","380","1456387","0.0-13.0-0.107","46","Low_HMMActual","","","","","","1855.2999999988824","","","","Images/NewTrialWC.png","","3"
"image-button-response","381","1456688","0.0-13.0-1.107","46","Low_HMMActual","","","","","","null","","","","Images/WhiteBeadChoice.png","","null"
"image-button-response","382","1457189","0.0-13.0-2.107","46","Low_HMMActual","","","","","","null","","","","Images/WhiteBeadChoiceWrong.png","","null"
"image-button-response","383","1457908","0.0-13.0-0.108","46","Low_HMMActual","","","","","","718.5999999996275","","","","Images/NewTrialBC.png","","0"
"image-button-response","384","1458210","0.0-13.0-1.108","46","Low_HMMActual","","","","","","null","","","","Images/BlackBeadChoice.png","","null"
"image-button-response","385","1458711","0.0-13.0-2.108","46","Low_HMMActual","","","","","","null","","","","Images/BlackBeadChoiceCorrect.png","","null"
"image-button-response","386","1458826","0.0-13.0-0.109","46","Low_HMMActual","","","","","","114.19999999925494","","","","Images/NewTrialBC.png","","0"
"image-button-response","387","1459128","0.0-13.0-1.109","46","Low_HMMActual","","","","","","null","","","","Images/BlackBeadChoice.png","","null"
"image-button-response","388","1459629","0.0-13.0-2.109","46","Low_HMMActual","","","","","","null","","","","Images/BlackBeadChoiceCorrect.png","","null"
"image-button-response","389","1459824","0.0-13.0-0.110","46","Low_HMMActual","","","","","","194.40000000037253","","","","Images/NewTrialBC.png","","0"
"image-button-response","390","1460125","0.0-13.0-1.110","46","Low_HMMActual","","","","","","null","","","","Images/BlackBeadChoice.png","","null"
"image-button-response","391","1460627","0.0-13.0-2.110","46","Low_HMMActual","","","","","","null","","","","Images/BlackBeadChoiceWrong.png","","null"
"image-button-response","392","1461650","0.0-13.0-0.111","46","Low_HMMActual","","","","","","1022.8000000007451","","","","Images/NewTrialWC.png","","3"
"image-button-response","393","1461952","0.0-13.0-1.111","46","Low_HMMActual","","","","","","null","","","","Images/WhiteBeadChoice.png","","null"
"image-button-response","394","1462453","0.0-13.0-2.111","46","Low_HMMActual","","","","","","null","","","","Images/WhiteBeadChoiceCorrect.png","","null"
"image-button-response","395","1463072","0.0-13.0-0.112","46","Low_HMMActual","","","","","","618.5999999996275","","","","Images/NewTrialWC.png","","2"
"image-button-response","396","1463374","0.0-13.0-1.112","46","Low_HMMActual","","","","","","null","","","","Images/WhiteBeadChoice.png","","null"
"image-button-response","397","1463875","0.0-13.0-2.112","46","Low_HMMActual","","","","","","null","","","","Images/WhiteBeadChoiceCorrect.png","","null"
"image-button-response","398","1464392","0.0-13.0-0.113","46","Low_HMMActual","","","","","","516.3000000007451","","","","Images/NewTrialWC.png","","2"
"image-button-response","399","1464694","0.0-13.0-1.113","46","Low_HMMActual","","","","","","null","","","","Images/WhiteBeadChoice.png","","null"
"image-button-response","400","1465195","0.0-13.0-2.113","46","Low_HMMActual","","","","","","null","","","","Images/WhiteBeadChoiceCorrect.png","","null"
"image-button-response","401","1465408","0.0-13.0-0.114","46","Low_HMMActual","","","","","","212.2000000011176","","","","Images/NewTrialWC.png","","2"
"image-button-response","402","1465710","0.0-13.0-1.114","46","Low_HMMActual","","","","","","null","","","","Images/WhiteBeadChoice.png","","null"
"image-button-response","403","1466212","0.0-13.0-2.114","46","Low_HMMActual","","","","","","null","","","","Images/WhiteBeadChoiceCorrect.png","","null"
"image-button-response","404","1466404","0.0-13.0-0.115","46","Low_HMMActual","","","","","","191.7000000011176","","","","Images/NewTrialWC.png","","2"
"image-button-response","405","1466706","0.0-13.0-1.115","46","Low_HMMActual","","","","","","null","","","","Images/WhiteBeadChoice.png","","null"
"image-button-response","406","1467207","0.0-13.0-2.115","46","Low_HMMActual","","","","","","null","","","","Images/WhiteBeadChoiceCorrect.png","","null"
"image-button-response","407","1467366","0.0-13.0-0.116","46","Low_HMMActual","","","","","","158.5","","","","Images/NewTrialWC.png","","2"
"image-button-response","408","1467667","0.0-13.0-1.116","46","Low_HMMActual","","","","","","null","","","","Images/WhiteBeadChoice.png","","null"
"image-button-response","409","1468169","0.0-13.0-2.116","46","Low_HMMActual","","","","","","null","","","","Images/WhiteBeadChoiceCorrect.png","","null"
"image-button-response","410","1468458","0.0-13.0-0.117","46","Low_HMMActual","","","","","","288.40000000037253","","","","Images/NewTrialWC.png","","2"
"image-button-response","411","1468760","0.0-13.0-1.117","46","Low_HMMActual","","","","","","null","","","","Images/WhiteBeadChoice.png","","null"
"image-button-response","412","1469261","0.0-13.0-2.117","46","Low_HMMActual","","","","","","null","","","","Images/WhiteBeadChoiceCorrect.png","","null"
"image-button-response","413","1469508","0.0-13.0-0.118","46","Low_HMMActual","","","","","","246.10000000149012","","","","Images/NewTrialWC.png","","2"
"image-button-response","414","1469809","0.0-13.0-1.118","46","Low_HMMActual","","","","","","null","","","","Images/WhiteBeadChoice.png","","null"
"image-button-response","415","1470310","0.0-13.0-2.118","46","Low_HMMActual","","","","","","null","","","","Images/WhiteBeadChoiceCorrect.png","","null"
"image-button-response","416","1470588","0.0-13.0-0.119","46","Low_HMMActual","","","","","","277.1000000014901","","","","Images/NewTrialWC.png","","2"
"image-button-response","417","1470889","0.0-13.0-1.119","46","Low_HMMActual","","","","","","null","","","","Images/WhiteBeadChoice.png","","null"
"image-button-response","418","1471390","0.0-13.0-2.119","46","Low_HMMActual","","","","","","null","","","","Images/WhiteBeadChoiceCorrect.png","","null"
"image-button-response","419","1471628","0.0-13.0-0.120","46","Low_HMMActual","","","","","","236.90000000037253","","","","Images/NewTrialWC.png","","2"
"image-button-response","420","1471929","0.0-13.0-1.120","46","Low_HMMActual","","","","","","null","","","","Images/WhiteBeadChoice.png","","null"
"image-button-response","421","1472431","0.0-13.0-2.120","46","Low_HMMActual","","","","","","null","","","","Images/WhiteBeadChoiceWrong.png","","null"
"image-button-response","422","1473480","0.0-13.0-0.121","46","Low_HMMActual","","","","","","1048.800000000745","","","","Images/NewTrialBC.png","","0"
"image-button-response","423","1473781","0.0-13.0-1.121","46","Low_HMMActual","","","","","","null","","","","Images/BlackBeadChoice.png","","null"
"image-button-response","424","1474282","0.0-13.0-2.121","46","Low_HMMActual","","","","","","null","","","","Images/BlackBeadChoiceWrong.png","","null"
"image-button-response","425","1475856","0.0-13.0-0.122","46","Low_HMMActual","","","","","","1572.699999999255","","","","Images/NewTrialWC.png","","3"
"image-button-response","426","1476157","0.0-13.0-1.122","46","Low_HMMActual","","","","","","null","","","","Images/WhiteBeadChoice.png","","null"
"image-button-response","427","1476658","0.0-13.0-2.122","46","Low_HMMActual","","","","","","null","","","","Images/WhiteBeadChoiceWrong.png","","null"
"image-button-response","428","1477226","0.0-13.0-0.123","46","Low_HMMActual","","","","","","567","","","","Images/NewTrialBC.png","","0"
"image-button-response","429","1477527","0.0-13.0-1.123","46","Low_HMMActual","","","","","","null","","","","Images/BlackBeadChoice.png","","null"
"image-button-response","430","1478028","0.0-13.0-2.123","46","Low_HMMActual","","","","","","null","","","","Images/BlackBeadChoiceCorrect.png","","null"
"image-button-response","431","1478160","0.0-13.0-0.124","46","Low_HMMActual","","","","","","130.7999999988824","","","","Images/NewTrialBC.png","","0"
"image-button-response","432","1478462","0.0-13.0-1.124","46","Low_HMMActual","","","","","","null","","","","Images/BlackBeadChoice.png","","null"
"image-button-response","433","1478963","0.0-13.0-2.124","46","Low_HMMActual","","","","","","null","","","","Images/BlackBeadChoiceWrong.png","","null"
"image-button-response","434","1480392","0.0-13.0-0.125","46","Low_HMMActual","","","","","","1428.7999999988824","","","","Images/NewTrialWC.png","","3"
"image-button-response","435","1480693","0.0-13.0-1.125","46","Low_HMMActual","","","","","","null","","","","Images/WhiteBeadChoice.png","","null"
"image-button-response","436","1481194","0.0-13.0-2.125","46","Low_HMMActual","","","","","","null","","","","Images/WhiteBeadChoiceCorrect.png","","null"
"image-button-response","437","1481774","0.0-13.0-0.126","46","Low_HMMActual","","","","","","578.9000000003725","","","","Images/NewTrialWC.png","","2"
"image-button-response","438","1482075","0.0-13.0-1.126","46","Low_HMMActual","","","","","","null","","","","Images/WhiteBeadChoice.png","","null"
"image-button-response","439","1482576","0.0-13.0-2.126","46","Low_HMMActual","","","","","","null","","","","Images/WhiteBeadChoiceCorrect.png","","null"
"image-button-response","440","1483474","0.0-13.0-0.127","46","Low_HMMActual","","","","","","896.5999999996275","","","","Images/NewTrialWC.png","","2"
"image-button-response","441","1483776","0.0-13.0-1.127","46","Low_HMMActual","","","","","","null","","","","Images/WhiteBeadChoice.png","","null"
"image-button-response","442","1484277","0.0-13.0-2.127","46","Low_HMMActual","","","","","","null","","","","Images/WhiteBeadChoiceCorrect.png","","null"
"image-button-response","443","1484964","0.0-13.0-0.128","46","Low_HMMActual","","","","","","686.0999999996275","","","","Images/NewTrialWC.png","","2"
"image-button-response","444","1485266","0.0-13.0-1.128","46","Low_HMMActual","","","","","","null","","","","Images/WhiteBeadChoice.png","","null"
"image-button-response","445","1485768","0.0-13.0-2.128","46","Low_HMMActual","","","","","","null","","","","Images/WhiteBeadChoiceCorrect.png","","null"
"image-button-response","446","1486290","0.0-13.0-0.129","46","Low_HMMActual","","","","","","521.4000000003725","","","","Images/NewTrialWC.png","","2"
"image-button-response","447","1486591","0.0-13.0-1.129","46","Low_HMMActual","","","","","","null","","","","Images/WhiteBeadChoice.png","","null"
"image-button-response","448","1487092","0.0-13.0-2.129","46","Low_HMMActual","","","","","","null","","","","Images/WhiteBeadChoiceCorrect.png","","null"
"image-button-response","449","1487678","0.0-13.0-0.130","46","Low_HMMActual","","","","","","584.5999999996275","","","","Images/NewTrialWC.png","","2"
"image-button-response","450","1487979","0.0-13.0-1.130","46","Low_HMMActual","","","","","","null","","","","Images/WhiteBeadChoice.png","","null"
"image-button-response","451","1488481","0.0-13.0-2.130","46","Low_HMMActual","","","","","","null","","","","Images/WhiteBeadChoiceCorrect.png","","null"
"image-button-response","452","1489056","0.0-13.0-0.131","46","Low_HMMActual","","","","","","574.3000000007451","","","","Images/NewTrialWC.png","","2"
"image-button-response","453","1489357","0.0-13.0-1.131","46","Low_HMMActual","","","","","","null","","","","Images/WhiteBeadChoice.png","","null"
"image-button-response","454","1489859","0.0-13.0-2.131","46","Low_HMMActual","","","","","","null","","","","Images/WhiteBeadChoiceCorrect.png","","null"
"image-button-response","455","1490374","0.0-13.0-0.132","46","Low_HMMActual","","","","","","514.0999999996275","","","","Images/NewTrialWC.png","","2"
"image-button-response","456","1490676","0.0-13.0-1.132","46","Low_HMMActual","","","","","","null","","","","Images/WhiteBeadChoice.png","","null"
"image-button-response","457","1491178","0.0-13.0-2.132","46","Low_HMMActual","","","","","","null","","","","Images/WhiteBeadChoiceCorrect.png","","null"
"image-button-response","458","1491708","0.0-13.0-0.133","46","Low_HMMActual","","","","","","529.5","","","","Images/NewTrialWC.png","","2"
"image-button-response","459","1492010","0.0-13.0-1.133","46","Low_HMMActual","","","","","","null","","","","Images/WhiteBeadChoice.png","","null"
"image-button-response","460","1492511","0.0-13.0-2.133","46","Low_HMMActual","","","","","","null","","","","Images/WhiteBeadChoiceCorrect.png","","null"
"image-button-response","461","1493136","0.0-13.0-0.134","46","Low_HMMActual","","","","","","623.8000000007451","","","","Images/NewTrialWC.png","","2"
"image-button-response","462","1493437","0.0-13.0-1.134","46","Low_HMMActual","","","","","","null","","","","Images/WhiteBeadChoice.png","","null"
"image-button-response","463","1493938","0.0-13.0-2.134","46","Low_HMMActual","","","","","","null","","","","Images/WhiteBeadChoiceCorrect.png","","null"
"image-button-response","464","1494638","0.0-13.0-0.135","46","Low_HMMActual","","","","","","699","","","","Images/NewTrialWC.png","","2"
"image-button-response","465","1494939","0.0-13.0-1.135","46","Low_HMMActual","","","","","","null","","","","Images/WhiteBeadChoice.png","","null"
"image-button-response","466","1495440","0.0-13.0-2.135","46","Low_HMMActual","","","","","","null","","","","Images/WhiteBeadChoiceWrong.png","","null"
"image-button-response","467","1497030","0.0-13.0-0.136","46","Low_HMMActual","","","","","","1588.9000000003725","","","","Images/NewTrialBC.png","","1"
"image-button-response","468","1497331","0.0-13.0-1.136","46","Low_HMMActual","","","","","","null","","","","Images/BlackBeadChoice.png","","null"
"image-button-response","469","1497832","0.0-13.0-2.136","46","Low_HMMActual","","","","","","null","","","","Images/BlackBeadChoiceWrong.png","","null"
"image-button-response","470","1498630","0.0-13.0-0.137","46","Low_HMMActual","","","","","","796.6999999992549","","","","Images/NewTrialWC.png","","2"
"image-button-response","471","1498931","0.0-13.0-1.137","46","Low_HMMActual","","","","","","null","","","","Images/WhiteBeadChoice.png","","null"
"image-button-response","472","1499432","0.0-13.0-2.137","46","Low_HMMActual","","","","","","null","","","","Images/WhiteBeadChoiceWrong.png","","null"
"image-button-response","473","1500462","0.0-13.0-0.138","46","Low_HMMActual","","","","","","1029.300000000745","","","","Images/NewTrialBC.png","","0"
"image-button-response","474","1500763","0.0-13.0-1.138","46","Low_HMMActual","","","","","","null","","","","Images/BlackBeadChoice.png","","null"
"image-button-response","475","1501265","0.0-13.0-2.138","46","Low_HMMActual","","","","","","null","","","","Images/BlackBeadChoiceWrong.png","","null"
"image-button-response","476","1502138","0.0-13.0-0.139","46","Low_HMMActual","","","","","","872","","","","Images/NewTrialWC.png","","2"
"image-button-response","477","1502439","0.0-13.0-1.139","46","Low_HMMActual","","","","","","null","","","","Images/WhiteBeadChoice.png","","null"
"image-button-response","478","1502940","0.0-13.0-2.139","46","Low_HMMActual","","","","","","null","","","","Images/WhiteBeadChoiceCorrect.png","","null"
"image-button-response","479","1503154","0.0-13.0-0.140","46","Low_HMMActual","","","","","","213.09999999962747","","","","Images/NewTrialWC.png","","2"
"image-button-response","480","1503456","0.0-13.0-1.140","46","Low_HMMActual","","","","","","null","","","","Images/WhiteBeadChoice.png","","null"
"image-button-response","481","1503957","0.0-13.0-2.140","46","Low_HMMActual","","","","","","null","","","","Images/WhiteBeadChoiceCorrect.png","","null"
"image-button-response","482","1504188","0.0-13.0-0.141","46","Low_HMMActual","","","","","","230.19999999925494","","","","Images/NewTrialWC.png","","2"
"image-button-response","483","1504489","0.0-13.0-1.141","46","Low_HMMActual","","","","","","null","","","","Images/WhiteBeadChoice.png","","null"
"image-button-response","484","1504990","0.0-13.0-2.141","46","Low_HMMActual","","","","","","null","","","","Images/WhiteBeadChoiceWrong.png","","null"
"image-button-response","485","1505883","0.0-13.0-0.142","46","Low_HMMActual","","","","","","893.3000000007451","","","","Images/NewTrialBC.png","","1"
"image-button-response","486","1506185","0.0-13.0-1.142","46","Low_HMMActual","","","","","","null","","","","Images/BlackBeadChoice.png","","null"
"image-button-response","487","1506686","0.0-13.0-2.142","46","Low_HMMActual","","","","","","null","","","","Images/BlackBeadChoiceCorrect.png","","null"
"image-button-response","488","1507174","0.0-13.0-0.143","46","Low_HMMActual","","","","","","486.69999999925494","","","","Images/NewTrialBC.png","","0"
"image-button-response","489","1507475","0.0-13.0-1.143","46","Low_HMMActual","","","","","","null","","","","Images/BlackBeadChoice.png","","null"
"image-button-response","490","1507976","0.0-13.0-2.143","46","Low_HMMActual","","","","","","null","","","","Images/BlackBeadChoiceWrong.png","","null"
"image-button-response","491","1509549","0.0-13.0-0.144","46","Low_HMMActual","","","","","","1572.699999999255","","","","Images/NewTrialWC.png","","2"
"image-button-response","492","1509850","0.0-13.0-1.144","46","Low_HMMActual","","","","","","null","","","","Images/WhiteBeadChoice.png","","null"
"image-button-response","493","1510351","0.0-13.0-2.144","46","Low_HMMActual","","","","","","null","","","","Images/WhiteBeadChoiceWrong.png","","null"
"image-button-response","494","1511309","0.0-13.0-0.145","46","Low_HMMActual","","","","","","957.3000000007451","","","","Images/NewTrialBC.png","","0"
"image-button-response","495","1511610","0.0-13.0-1.145","46","Low_HMMActual","","","","","","null","","","","Images/BlackBeadChoice.png","","null"
"image-button-response","496","1512112","0.0-13.0-2.145","46","Low_HMMActual","","","","","","null","","","","Images/BlackBeadChoiceCorrect.png","","null"
"image-button-response","497","1512851","0.0-13.0-0.146","46","Low_HMMActual","","","","","","738.6999999992549","","","","Images/NewTrialBC.png","","0"
"image-button-response","498","1513152","0.0-13.0-1.146","46","Low_HMMActual","","","","","","null","","","","Images/BlackBeadChoice.png","","null"
"image-button-response","499","1513654","0.0-13.0-2.146","46","Low_HMMActual","","","","","","null","","","","Images/BlackBeadChoiceCorrect.png","","null"
"image-button-response","500","1514286","0.0-13.0-0.147","46","Low_HMMActual","","","","","","631.0999999996275","","","","Images/NewTrialBC.png","","0"
"image-button-response","501","1514587","0.0-13.0-1.147","46","Low_HMMActual","","","","","","null","","","","Images/BlackBeadChoice.png","","null"
"image-button-response","502","1515089","0.0-13.0-2.147","46","Low_HMMActual","","","","","","null","","","","Images/BlackBeadChoiceWrong.png","","null"
"image-button-response","503","1516517","0.0-13.0-0.148","46","Low_HMMActual","","","","","","1427.9000000003725","","","","Images/NewTrialWC.png","","3"
"image-button-response","504","1516819","0.0-13.0-1.148","46","Low_HMMActual","","","","","","null","","","","Images/WhiteBeadChoice.png","","null"
"image-button-response","505","1517320","0.0-13.0-2.148","46","Low_HMMActual","","","","","","null","","","","Images/WhiteBeadChoiceCorrect.png","","null"
"image-button-response","506","1517967","0.0-13.0-0.149","46","Low_HMMActual","","","","","","646.9000000003725","","","","Images/NewTrialWC.png","","2"
"image-button-response","507","1518269","0.0-13.0-1.149","46","Low_HMMActual","","","","","","null","","","","Images/WhiteBeadChoice.png","","null"
"image-button-response","508","1518770","0.0-13.0-2.149","46","Low_HMMActual","","","","","","496.19999999925494","","","","Images/WhiteBeadChoiceCorrect.png","","2"
"image-button-response","509","1519325","0.0-13.0-0.150","46","Low_HMMActual","","","","","","554.2000000011176","","","","Images/NewTrialWC.png","","2"
"image-button-response","510","1519627","0.0-13.0-1.150","46","Low_HMMActual","","","","","","null","","","","Images/WhiteBeadChoice.png","","null"
"image-button-response","511","1520128","0.0-13.0-2.150","46","Low_HMMActual","","","","","","null","","","","Images/WhiteBeadChoiceCorrect.png","","null"
"image-button-response","512","1520417","0.0-13.0-0.151","46","Low_HMMActual","","","","","","288.5","","","","Images/NewTrialWC.png","","2"
"image-button-response","513","1520718","0.0-13.0-1.151","46","Low_HMMActual","","","","","","null","","","","Images/WhiteBeadChoice.png","","null"
"image-button-response","514","1521220","0.0-13.0-2.151","46","Low_HMMActual","","","","","","null","","","","Images/WhiteBeadChoiceWrong.png","","null"
"image-button-response","515","1522689","0.0-13.0-0.152","46","Low_HMMActual","","","","","","1468.5999999996275","","","","Images/NewTrialBC.png","","1"
"image-button-response","516","1522990","0.0-13.0-1.152","46","Low_HMMActual","","","","","","null","","","","Images/BlackBeadChoice.png","","null"
"image-button-response","517","1523491","0.0-13.0-2.152","46","Low_HMMActual","","","","","","null","","","","Images/BlackBeadChoiceWrong.png","","null"
"image-button-response","518","1523807","0.0-13.0-0.153","46","Low_HMMActual","","","","","","315.30000000074506","","","","Images/NewTrialWC.png","","0"
"image-button-response","519","1524109","0.0-13.0-1.153","46","Low_HMMActual","","","","","","null","","","","Images/BlackBeadChoice.png","","null"
"image-button-response","520","1524610","0.0-13.0-2.153","46","Low_HMMActual","","","","","","null","","","","Images/BlackBeadChoiceWrong.png","","null"
"image-button-response","521","1525165","0.0-13.0-0.154","46","Low_HMMActual","","","","","","553.7999999988824","","","","Images/NewTrialWC.png","","2"
"image-button-response","522","1525466","0.0-13.0-1.154","46","Low_HMMActual","","","","","","null","","","","Images/WhiteBeadChoice.png","","null"
"image-button-response","523","1525967","0.0-13.0-2.154","46","Low_HMMActual","","","","","","null","","","","Images/WhiteBeadChoiceWrong.png","","null"
"image-button-response","524","1526769","0.0-13.0-0.155","46","Low_HMMActual","","","","","","801.1999999992549","","","","Images/NewTrialBC.png","","0"
"image-button-response","525","1527070","0.0-13.0-1.155","46","Low_HMMActual","","","","","","null","","","","Images/BlackBeadChoice.png","","null"
"image-button-response","526","1527571","0.0-13.0-2.155","46","Low_HMMActual","","","","","","null","","","","Images/BlackBeadChoiceWrong.png","","null"
"image-button-response","527","1528191","0.0-13.0-0.156","46","Low_HMMActual","","","","","","619.0999999996275","","","","Images/NewTrialWC.png","","2"
"image-button-response","528","1528493","0.0-13.0-1.156","46","Low_HMMActual","","","","","","null","","","","Images/WhiteBeadChoice.png","","null"
"image-button-response","529","1528994","0.0-13.0-2.156","46","Low_HMMActual","","","","","","469.69999999925494","","","","Images/WhiteBeadChoiceCorrect.png","","2"
"image-button-response","530","1529709","0.0-13.0-0.157","46","Low_HMMActual","","","","","","713.9000000003725","","","","Images/NewTrialWC.png","","2"
"image-button-response","531","1530011","0.0-13.0-1.157","46","Low_HMMActual","","","","","","null","","","","Images/WhiteBeadChoice.png","","null"
"image-button-response","532","1530512","0.0-13.0-2.157","46","Low_HMMActual","","","","","","null","","","","Images/WhiteBeadChoiceWrong.png","","null"
"image-button-response","533","1532029","0.0-13.0-0.158","46","Low_HMMActual","","","","","","1516.4000000003725","","","","Images/NewTrialBC.png","","3"
"image-button-response","534","1532330","0.0-13.0-1.158","46","Low_HMMActual","","","","","","null","","","","Images/WhiteBeadChoice.png","","null"
"image-button-response","535","1532831","0.0-13.0-2.158","46","Low_HMMActual","","","","","","null","","","","Images/WhiteBeadChoiceWrong.png","","null"
"image-button-response","536","1533893","0.0-13.0-0.159","46","Low_HMMActual","","","","","","1060.9000000003725","","","","Images/NewTrialBC.png","","1"
"image-button-response","537","1534194","0.0-13.0-1.159","46","Low_HMMActual","","","","","","null","","","","Images/BlackBeadChoice.png","","null"
"image-button-response","538","1534696","0.0-13.0-2.159","46","Low_HMMActual","","","","","","null","","","","Images/BlackBeadChoiceCorrect.png","","null"
"image-button-response","539","1535239","0.0-13.0-0.160","46","Low_HMMActual","","","","","","542.3000000007451","","","","Images/NewTrialBC.png","","0"
"image-button-response","540","1535540","0.0-13.0-1.160","46","Low_HMMActual","","","","","","null","","","","Images/BlackBeadChoice.png","","null"
"image-button-response","541","1536041","0.0-13.0-2.160","46","Low_HMMActual","","","","","","null","","","","Images/BlackBeadChoiceWrong.png","","null"
"image-button-response","542","1537119","0.0-13.0-0.161","46","Low_HMMActual","","","","","","1077","","","","Images/NewTrialWC.png","","2"
"image-button-response","543","1537419","0.0-13.0-1.161","46","Low_HMMActual","","","","","","null","","","","Images/WhiteBeadChoice.png","","null"
"image-button-response","544","1537920","0.0-13.0-2.161","46","Low_HMMActual","","","","","","null","","","","Images/WhiteBeadChoiceWrong.png","","null"
"image-button-response","545","1538583","0.0-13.0-0.162","46","Low_HMMActual","","","","","","661.5999999996275","","","","Images/NewTrialBC.png","","2"
"image-button-response","546","1538884","0.0-13.0-1.162","46","Low_HMMActual","","","","","","null","","","","Images/WhiteBeadChoice.png","","null"
"image-button-response","547","1539385","0.0-13.0-2.162","46","Low_HMMActual","","","","","","null","","","","Images/WhiteBeadChoiceWrong.png","","null"
"image-button-response","548","1539923","0.0-13.0-0.163","46","Low_HMMActual","","","","","","536.7000000011176","","","","Images/NewTrialBC.png","","0"
"image-button-response","549","1540224","0.0-13.0-1.163","46","Low_HMMActual","","","","","","null","","","","Images/BlackBeadChoice.png","","null"
"image-button-response","550","1540725","0.0-13.0-2.163","46","Low_HMMActual","","","","","","null","","","","Images/BlackBeadChoiceWrong.png","","null"
"image-button-response","551","1541555","0.0-13.0-0.164","46","Low_HMMActual","","","","","","828.5","","","","Images/NewTrialWC.png","","2"
"image-button-response","552","1541856","0.0-13.0-1.164","46","Low_HMMActual","","","","","","null","","","","Images/WhiteBeadChoice.png","","null"
"image-button-response","553","1542357","0.0-13.0-2.164","46","Low_HMMActual","","","","","","null","","","","Images/WhiteBeadChoiceWrong.png","","null"
"image-button-response","554","1543234","0.0-13.0-0.165","46","Low_HMMActual","","","","","","876.7999999988824","","","","Images/NewTrialBC.png","","0"
"image-button-response","555","1543536","0.0-13.0-1.165","46","Low_HMMActual","","","","","","null","","","","Images/BlackBeadChoice.png","","null"
"image-button-response","556","1544037","0.0-13.0-2.165","46","Low_HMMActual","","","","","","null","","","","Images/BlackBeadChoiceCorrect.png","","null"
"image-button-response","557","1544339","0.0-13.0-0.166","46","Low_HMMActual","","","","","","301","","","","Images/NewTrialBC.png","","0"
"image-button-response","558","1544640","0.0-13.0-1.166","46","Low_HMMActual","","","","","","null","","","","Images/BlackBeadChoice.png","","null"
"image-button-response","559","1545141","0.0-13.0-2.166","46","Low_HMMActual","","","","","","null","","","","Images/BlackBeadChoiceCorrect.png","","null"
"image-button-response","560","1546119","0.0-13.0-0.167","46","Low_HMMActual","","","","","","976.4000000003725","","","","Images/NewTrialBC.png","","0"
"image-button-response","561","1546420","0.0-13.0-1.167","46","Low_HMMActual","","","","","","null","","","","Images/BlackBeadChoice.png","","null"
"image-button-response","562","1546922","0.0-13.0-2.167","46","Low_HMMActual","","","","","","null","","","","Images/BlackBeadChoiceCorrect.png","","null"
"image-button-response","563","1547628","0.0-13.0-0.168","46","Low_HMMActual","","","","","","705.5","","","","Images/NewTrialBC.png","","0"
"image-button-response","564","1547930","0.0-13.0-1.168","46","Low_HMMActual","","","","","","null","","","","Images/BlackBeadChoice.png","","null"
"image-button-response","565","1548431","0.0-13.0-2.168","46","Low_HMMActual","","","","","","null","","","","Images/BlackBeadChoiceCorrect.png","","null"
"image-button-response","566","1548912","0.0-13.0-0.169","46","Low_HMMActual","","","","","","480.90000000037253","","","","Images/NewTrialBC.png","","0"
"image-button-response","567","1549214","0.0-13.0-1.169","46","Low_HMMActual","","","","","","null","","","","Images/BlackBeadChoice.png","","null"
"image-button-response","568","1549715","0.0-13.0-2.169","46","Low_HMMActual","","","","","","null","","","","Images/BlackBeadChoiceWrong.png","","null"
"image-button-response","569","1551520","0.0-13.0-0.170","46","Low_HMMActual","","","","","","1804.199999999255","","","","Images/NewTrialWC.png","","3"
"image-button-response","570","1551822","0.0-13.0-1.170","46","Low_HMMActual","","","","","","null","","","","Images/WhiteBeadChoice.png","","null"
"image-button-response","571","1552323","0.0-13.0-2.170","46","Low_HMMActual","","","","","","null","","","","Images/WhiteBeadChoiceCorrect.png","","null"
"image-button-response","572","1552748","0.0-13.0-0.171","46","Low_HMMActual","","","","","","424.30000000074506","","","","Images/NewTrialWC.png","","2"
"image-button-response","573","1553049","0.0-13.0-1.171","46","Low_HMMActual","","","","","","null","","","","Images/WhiteBeadChoice.png","","null"
"image-button-response","574","1553551","0.0-13.0-2.171","46","Low_HMMActual","","","","","","496.40000000037253","","","","Images/WhiteBeadChoiceCorrect.png","","2"
"image-button-response","575","1554536","0.0-13.0-0.172","46","Low_HMMActual","","","","","","984.7000000011176","","","","Images/NewTrialWC.png","","2"
"image-button-response","576","1554837","0.0-13.0-1.172","46","Low_HMMActual","","","","","","null","","","","Images/WhiteBeadChoice.png","","null"
"image-button-response","577","1555338","0.0-13.0-2.172","46","Low_HMMActual","","","","","","null","","","","Images/WhiteBeadChoiceCorrect.png","","null"
"image-button-response","578","1555922","0.0-13.0-0.173","46","Low_HMMActual","","","","","","583.1999999992549","","","","Images/NewTrialWC.png","","2"
"image-button-response","579","1556224","0.0-13.0-1.173","46","Low_HMMActual","","","","","","null","","","","Images/WhiteBeadChoice.png","","null"
"image-button-response","580","1556725","0.0-13.0-2.173","46","Low_HMMActual","","","","","","null","","","","Images/WhiteBeadChoiceWrong.png","","null"
"image-button-response","581","1558472","0.0-13.0-0.174","46","Low_HMMActual","","","","","","1746.5","","","","Images/NewTrialBC.png","","1"
"image-button-response","582","1558773","0.0-13.0-1.174","46","Low_HMMActual","","","","","","null","","","","Images/BlackBeadChoice.png","","null"
"image-button-response","583","1559274","0.0-13.0-2.174","46","Low_HMMActual","","","","","","null","","","","Images/BlackBeadChoiceCorrect.png","","null"
"image-button-response","584","1559540","0.0-13.0-0.175","46","Low_HMMActual","","","","","","265.2000000011176","","","","Images/NewTrialBC.png","","0"
"image-button-response","585","1559842","0.0-13.0-1.175","46","Low_HMMActual","","","","","","null","","","","Images/BlackBeadChoice.png","","null"
"image-button-response","586","1560342","0.0-13.0-2.175","46","Low_HMMActual","","","","","","null","","","","Images/BlackBeadChoiceWrong.png","","null"
"image-button-response","587","1561170","0.0-13.0-0.176","46","Low_HMMActual","","","","","","827","","","","Images/NewTrialWC.png","","2"
"image-button-response","588","1561472","0.0-13.0-1.176","46","Low_HMMActual","","","","","","null","","","","Images/WhiteBeadChoice.png","","null"
"image-button-response","589","1561973","0.0-13.0-2.176","46","Low_HMMActual","","","","","","null","","","","Images/WhiteBeadChoiceCorrect.png","","null"
"image-button-response","590","1562150","0.0-13.0-0.177","46","Low_HMMActual","","","","","","175.80000000074506","","","","Images/NewTrialWC.png","","2"
"image-button-response","591","1562451","0.0-13.0-1.177","46","Low_HMMActual","","","","","","null","","","","Images/WhiteBeadChoice.png","","null"
"image-button-response","592","1562952","0.0-13.0-2.177","46","Low_HMMActual","","","","","","null","","","","Images/WhiteBeadChoiceWrong.png","","null"
"image-button-response","593","1563906","0.0-13.0-0.178","46","Low_HMMActual","","","","","","952.9000000003725","","","","Images/NewTrialBC.png","","3"
"image-button-response","594","1564207","0.0-13.0-1.178","46","Low_HMMActual","","","","","","null","","","","Images/WhiteBeadChoice.png","","null"
"image-button-response","595","1564708","0.0-13.0-2.178","46","Low_HMMActual","","","","","","null","","","","Images/WhiteBeadChoiceWrong.png","","null"
"image-button-response","596","1565352","0.0-13.0-0.179","46","Low_HMMActual","","","","","","642.5","","","","Images/NewTrialBC.png","","1"
"image-button-response","597","1565654","0.0-13.0-1.179","46","Low_HMMActual","","","","","","null","","","","Images/BlackBeadChoice.png","","null"
"image-button-response","598","1566154","0.0-13.0-2.179","46","Low_HMMActual","","","","","","null","","","","Images/BlackBeadChoiceWrong.png","","null"
"image-button-response","599","1566726","0.0-13.0-0.180","46","Low_HMMActual","","","","","","570.8000000007451","","","","Images/NewTrialWC.png","","3"
"image-button-response","600","1567027","0.0-13.0-1.180","46","Low_HMMActual","","","","","","null","","","","Images/WhiteBeadChoice.png","","null"
"image-button-response","601","1567528","0.0-13.0-2.180","46","Low_HMMActual","","","","","","null","","","","Images/WhiteBeadChoiceWrong.png","","null"
"image-button-response","602","1570882","0.0-13.0-0.181","46","Low_HMMActual","","","","","","3352.699999999255","","","","Images/NewTrialBC.png","","3"
"image-button-response","603","1571183","0.0-13.0-1.181","46","Low_HMMActual","","","","","","null","","","","Images/WhiteBeadChoice.png","","null"
"image-button-response","604","1571685","0.0-13.0-2.181","46","Low_HMMActual","","","","","","null","","","","Images/WhiteBeadChoiceWrong.png","","null"
"image-button-response","605","1572356","0.0-13.0-0.182","46","Low_HMMActual","","","","","","670.2999999988824","","","","Images/NewTrialBC.png","","1"
"image-button-response","606","1572657","0.0-13.0-1.182","46","Low_HMMActual","","","","","","null","","","","Images/BlackBeadChoice.png","","null"
"image-button-response","607","1573158","0.0-13.0-2.182","46","Low_HMMActual","","","","","","null","","","","Images/BlackBeadChoiceWrong.png","","null"
"image-button-response","608","1573806","0.0-13.0-0.183","46","Low_HMMActual","","","","","","647.2999999988824","","","","Images/NewTrialWC.png","","3"
"image-button-response","609","1574107","0.0-13.0-1.183","46","Low_HMMActual","","","","","","null","","","","Images/WhiteBeadChoice.png","","null"
"image-button-response","610","1574608","0.0-13.0-2.183","46","Low_HMMActual","","","","","","null","","","","Images/WhiteBeadChoiceWrong.png","","null"
"image-button-response","611","1577480","0.0-13.0-0.184","46","Low_HMMActual","","","","","","2871.0999999996275","","","","Images/NewTrialBC.png","","0"
"image-button-response","612","1577781","0.0-13.0-1.184","46","Low_HMMActual","","","","","","null","","","","Images/BlackBeadChoice.png","","null"
"image-button-response","613","1578283","0.0-13.0-2.184","46","Low_HMMActual","","","","","","null","","","","Images/BlackBeadChoiceCorrect.png","","null"
"image-button-response","614","1578468","0.0-13.0-0.185","46","Low_HMMActual","","","","","","184.19999999925494","","","","Images/NewTrialBC.png","","0"
"image-button-response","615","1578769","0.0-13.0-1.185","46","Low_HMMActual","","","","","","null","","","","Images/BlackBeadChoice.png","","null"
"image-button-response","616","1579271","0.0-13.0-2.185","46","Low_HMMActual","","","","","","null","","","","Images/BlackBeadChoiceCorrect.png","","null"
"image-button-response","617","1580006","0.0-13.0-0.186","46","Low_HMMActual","","","","","","733.8000000007451","","","","Images/NewTrialBC.png","","0"
"image-button-response","618","1580307","0.0-13.0-1.186","46","Low_HMMActual","","","","","","null","","","","Images/BlackBeadChoice.png","","null"
"image-button-response","619","1580808","0.0-13.0-2.186","46","Low_HMMActual","","","","","","null","","","","Images/BlackBeadChoiceWrong.png","","null"
"image-button-response","620","1582858","0.0-13.0-0.187","46","Low_HMMActual","","","","","","2049.4000000003725","","","","Images/NewTrialWC.png","","3"
"image-button-response","621","1583159","0.0-13.0-1.187","46","Low_HMMActual","","","","","","null","","","","Images/WhiteBeadChoice.png","","null"
"image-button-response","622","1583660","0.0-13.0-2.187","46","Low_HMMActual","","","","","","null","","","","Images/WhiteBeadChoiceCorrect.png","","null"
"image-button-response","623","1616157","0.0-13.0-0.188","46","Low_HMMActual","","","","","","32495.800000000745","","","","Images/NewTrialWC.png","","2"
"image-button-response","624","1616458","0.0-13.0-1.188","46","Low_HMMActual","","","","","","null","","","","Images/WhiteBeadChoice.png","","null"
"image-button-response","625","1616960","0.0-13.0-2.188","46","Low_HMMActual","","","","","","null","","","","Images/WhiteBeadChoiceCorrect.png","","null"
"image-button-response","626","1617369","0.0-13.0-0.189","46","Low_HMMActual","","","","","","408.69999999925494","","","","Images/NewTrialWC.png","","2"
"image-button-response","627","1617671","0.0-13.0-1.189","46","Low_HMMActual","","","","","","null","","","","Images/WhiteBeadChoice.png","","null"
"image-button-response","628","1618172","0.0-13.0-2.189","46","Low_HMMActual","","","","","","null","","","","Images/WhiteBeadChoiceCorrect.png","","null"
"image-button-response","629","1618655","0.0-13.0-0.190","46","Low_HMMActual","","","","","","482.09999999962747","","","","Images/NewTrialWC.png","","2"
"image-button-response","630","1618956","0.0-13.0-1.190","46","Low_HMMActual","","","","","","null","","","","Images/WhiteBeadChoice.png","","null"
"image-button-response","631","1619458","0.0-13.0-2.190","46","Low_HMMActual","","","","","","null","","","","Images/WhiteBeadChoiceWrong.png","","null"
"image-button-response","632","1620577","0.0-13.0-0.191","46","Low_HMMActual","","","","","","1118.4000000003725","","","","Images/NewTrialBC.png","","2"
"image-button-response","633","1620878","0.0-13.0-1.191","46","Low_HMMActual","","","","","","null","","","","Images/WhiteBeadChoice.png","","null"
"image-button-response","634","1621379","0.0-13.0-2.191","46","Low_HMMActual","","","","","","null","","","","Images/WhiteBeadChoiceCorrect.png","","null"
"image-button-response","635","1621893","0.0-13.0-0.192","46","Low_HMMActual","","","","","","512.9000000003725","","","","Images/NewTrialWC.png","","2"
"image-button-response","636","1622194","0.0-13.0-1.192","46","Low_HMMActual","","","","","","null","","","","Images/WhiteBeadChoice.png","","null"
"image-button-response","637","1622696","0.0-13.0-2.192","46","Low_HMMActual","","","","","","null","","","","Images/WhiteBeadChoiceCorrect.png","","null"
"image-button-response","638","1623025","0.0-13.0-0.193","46","Low_HMMActual","","","","","","328.19999999925494","","","","Images/NewTrialWC.png","","2"
"image-button-response","639","1623326","0.0-13.0-1.193","46","Low_HMMActual","","","","","","null","","","","Images/WhiteBeadChoice.png","","null"
"image-button-response","640","1623827","0.0-13.0-2.193","46","Low_HMMActual","","","","","","null","","","","Images/WhiteBeadChoiceWrong.png","","null"
"image-button-response","641","1624435","0.0-13.0-0.194","46","Low_HMMActual","","","","","","606.7000000011176","","","","Images/NewTrialBC.png","","2"
"image-button-response","642","1624737","0.0-13.0-1.194","46","Low_HMMActual","","","","","","null","","","","Images/WhiteBeadChoice.png","","null"
"image-button-response","643","1625238","0.0-13.0-2.194","46","Low_HMMActual","","","","","","null","","","","Images/WhiteBeadChoiceCorrect.png","","null"
"image-button-response","644","1625717","0.0-13.0-0.195","46","Low_HMMActual","","","","","","478.59999999962747","","","","Images/NewTrialWC.png","","2"
"image-button-response","645","1626018","0.0-13.0-1.195","46","Low_HMMActual","","","","","","null","","","","Images/WhiteBeadChoice.png","","null"
"image-button-response","646","1626519","0.0-13.0-2.195","46","Low_HMMActual","","","","","","null","","","","Images/WhiteBeadChoiceCorrect.png","","null"
"image-button-response","647","1626913","0.0-13.0-0.196","46","Low_HMMActual","","","","","","392.59999999962747","","","","Images/NewTrialWC.png","","2"
"image-button-response","648","1627214","0.0-13.0-1.196","46","Low_HMMActual","","","","","","null","","","","Images/WhiteBeadChoice.png","","null"
"image-button-response","649","1627716","0.0-13.0-2.196","46","Low_HMMActual","","","","","","null","","","","Images/WhiteBeadChoiceWrong.png","","null"
"image-button-response","650","1628223","0.0-13.0-0.197","46","Low_HMMActual","","","","","","506.30000000074506","","","","Images/NewTrialBC.png","","2"
"image-button-response","651","1628524","0.0-13.0-1.197","46","Low_HMMActual","","","","","","null","","","","Images/WhiteBeadChoice.png","","null"
"image-button-response","652","1629025","0.0-13.0-2.197","46","Low_HMMActual","","","","","","null","","","","Images/WhiteBeadChoiceWrong.png","","null"
"image-button-response","653","1630201","0.0-13.0-0.198","46","Low_HMMActual","","","","","","1174.300000000745","","","","Images/NewTrialBC.png","","0"
"image-button-response","654","1630502","0.0-13.0-1.198","46","Low_HMMActual","","","","","","null","","","","Images/BlackBeadChoice.png","","null"
"image-button-response","655","1631003","0.0-13.0-2.198","46","Low_HMMActual","","","","","","null","","","","Images/BlackBeadChoiceWrong.png","","null"
"image-button-response","656","1631593","0.0-13.0-0.199","46","Low_HMMActual","","","","","","589.0999999996275","","","","Images/NewTrialWC.png","","2"
"image-button-response","657","1631894","0.0-13.0-1.199","46","Low_HMMActual","","","","","","null","","","","Images/WhiteBeadChoice.png","","null"
"image-button-response","658","1632395","0.0-13.0-2.199","46","Low_HMMActual","","","","","","null","","","","Images/WhiteBeadChoiceWrong.png","","null"
"image-button-response","659","1633157","0.0-13.0-0.200","46","Low_HMMActual","","","","","","760.7000000011176","","","","Images/NewTrialBC.png","","2"
