"trial_type","trial_index","time_elapsed","internal_node_id","Script_Picker","Block_Type","success","timeout","failed_images","failed_audio","failed_video","rt","url","responses","question_order","stimulus","key_press","response"
"pavlovia","0","17","0.0-0.0","27","Low_HMMActual","","","","","","","","","","","",""
"preload","1","18","0.0-1.0","27","Low_HMMActual","true","false","[]","[]","[]","","","","","","",""
"external-html","2","21862","0.0-2.0-0.0","27","Low_HMMActual","","","","","","21774.100000023842","consent.html","","","","",""
"survey-multi-choice","3","25827","0.0-2.0-1.0","27","Low_HMMActual","","","","","","3962.5","","{""Q0"":""Male"",""Q1"":""White""}","[0,1]","","",""
"survey-text","4","28516","0.0-2.0-2.0","27","Low_HMMActual","","","","","","2683.399999976158","","{""Q0"":""20""}","","","",""
"survey-text","5","32423","0.0-2.0-3.0","27","Low_HMMActual","","","","","","3803.5","","{""Q0"":""5ebd676b0ee54a0379a10188""}","","","",""
"image-keyboard-response","6","66204","0.0-3.0-0.0","27","Low_HMMActual","","","","","","33677.5","","","","tutorial/tutorial1.png"," ",""
"image-keyboard-response","7","80027","0.0-3.0-0.1","27","Low_HMMActual","","","","","","13823","","","","tutorial/tutorial2.png"," ",""
"image-keyboard-response","8","83202","0.0-3.0-0.2","27","Low_HMMActual","","","","","","3173.699999988079","","","","tutorial/tutorial3.png"," ",""
"image-keyboard-response","9","86818","0.0-3.0-0.3","27","Low_HMMActual","","","","","","3614.800000011921","","","","tutorial/tutorial4.png"," ",""
"image-keyboard-response","10","89119","0.0-3.0-0.4","27","Low_HMMActual","","","","","","2299.899999976158","","","","tutorial/tutorial5.png"," ",""
"image-keyboard-response","11","97549","0.0-3.0-0.5","27","Low_HMMActual","","","","","","8428.800000011921","","","","tutorial/tutorial6.png"," ",""
"image-keyboard-response","12","104271","0.0-3.0-0.6","27","Low_HMMActual","","","","","","6721.099999964237","","","","tutorial/tutorial7.png"," ",""
"image-keyboard-response","13","126732","0.0-3.0-0.7","27","Low_HMMActual","","","","","","22459.600000023842","","","","tutorial/tutorial8.png"," ",""
"image-keyboard-response","14","132569","0.0-3.0-0.8","27","Low_HMMActual","","","","","","5835.699999988079","","","","tutorial/tutorial9.png"," ",""
"image-keyboard-response","15","147940","0.0-3.0-0.9","27","Low_HMMActual","","","","","","15370","","","","tutorial/tutorial10.png"," ",""
"image-keyboard-response","16","156961","0.0-3.0-0.10","27","Low_HMMActual","","","","","","9020.199999988079","","","","tutorial/tutorial11.png"," ",""
"image-keyboard-response","17","163121","0.0-3.0-0.11","27","Low_HMMActual","","","","","","6159.199999988079","","","","tutorial/tutorial12.png"," ",""
"image-keyboard-response","18","175935","0.0-3.0-0.12","27","Low_HMMActual","","","","","","12813.699999988079","","","","tutorial/tutorial13.png"," ",""
"image-keyboard-response","19","190553","0.0-3.0-0.13","27","Low_HMMActual","","","","","","14617.5","","","","tutorial/tutorial14.png"," ",""
"image-keyboard-response","20","193005","0.0-3.0-0.14","27","Low_HMMActual","","","","","","2450.699999988079","","","","tutorial/tutorial15.png"," ",""
"image-keyboard-response","21","201473","0.0-4.0","27","Low_HMMActual","","","","","","8467.400000035763","","","","tutorial/tutorial16.png","arrowup",""
"image-keyboard-response","22","209180","0.0-5.0","27","Low_HMMActual","","","","","","5511.099999964237","","","","tutorial/tutorial17.png","arrowright",""
"image-keyboard-response","23","215704","0.0-6.0","27","Low_HMMActual","","","","","","5519.400000035763","","","","tutorial/tutorial18.png","arrowleft",""
"image-keyboard-response","24","228085","0.0-7.0","27","Low_HMMActual","","","","","","11076.899999976158","","","","tutorial/tutorial19.png"," ",""
"html-keyboard-response","25","230794","0.0-8.0","28","Low_HMMActual","","","","","","2706.300000011921","","","","<div class=""container"" style=""height:800px;width:800px;display:flex;flex-direction:column;justify-content:center;align-items:center;text-align:center;font-weight:normal;font-family:Arial;font-size:20px""><p>Loading episode&hellip;</p><div>"," ",""
"image-button-response","26","247675","0.0-9.0-0.0","28","Low_HMMActual","","","","","","16876.299999952316","","","","Images/NoChoice.png","","1"
"image-button-response","27","247978","0.0-9.0-1.0","28","Low_HMMActual","","","","","","null","","","","Images/BlackBeadChoice.png","","null"
"image-button-response","28","248480","0.0-9.0-2.0","28","Low_HMMActual","","","","","","null","","","","Images/BlackBeadChoiceWrong.png","","null"
"image-button-response","29","251929","0.0-9.0-0.1","28","Low_HMMActual","","","","","","3443.300000011921","","","","Images/NewTrialWC.png","","2"
"image-button-response","30","252230","0.0-9.0-1.1","28","Low_HMMActual","","","","","","null","","","","Images/WhiteBeadChoice.png","","null"
"image-button-response","31","252732","0.0-9.0-2.1","28","Low_HMMActual","","","","","","null","","","","Images/WhiteBeadChoiceCorrect.png","","null"
"image-button-response","32","254246","0.0-9.0-0.2","28","Low_HMMActual","","","","","","1512.5","","","","Images/NewTrialWC.png","","2"
"image-button-response","33","254549","0.0-9.0-1.2","28","Low_HMMActual","","","","","","null","","","","Images/WhiteBeadChoice.png","","null"
"image-button-response","34","255050","0.0-9.0-2.2","28","Low_HMMActual","","","","","","null","","","","Images/WhiteBeadChoiceWrong.png","","null"
"image-button-response","35","257442","0.0-9.0-0.3","28","Low_HMMActual","","","","","","2390.900000035763","","","","Images/NewTrialBC.png","","0"
"image-button-response","36","257744","0.0-9.0-1.3","28","Low_HMMActual","","","","","","null","","","","Images/BlackBeadChoice.png","","null"
"image-button-response","37","258245","0.0-9.0-2.3","28","Low_HMMActual","","","","","","null","","","","Images/BlackBeadChoiceCorrect.png","","null"
"image-button-response","38","260045","0.0-9.0-0.4","28","Low_HMMActual","","","","","","1797.6000000238419","","","","Images/NewTrialBC.png","","0"
"image-button-response","39","260346","0.0-9.0-1.4","28","Low_HMMActual","","","","","","null","","","","Images/BlackBeadChoice.png","","null"
"image-button-response","40","260849","0.0-9.0-2.4","28","Low_HMMActual","","","","","","null","","","","Images/BlackBeadChoiceCorrect.png","","null"
"image-button-response","41","261799","0.0-9.0-0.5","28","Low_HMMActual","","","","","","947.9000000357628","","","","Images/NewTrialBC.png","","0"
"image-button-response","42","262101","0.0-9.0-1.5","28","Low_HMMActual","","","","","","null","","","","Images/BlackBeadChoice.png","","null"
"image-button-response","43","262603","0.0-9.0-2.5","28","Low_HMMActual","","","","","","null","","","","Images/BlackBeadChoiceWrong.png","","null"
"image-button-response","44","263508","0.0-9.0-0.6","28","Low_HMMActual","","","","","","903.6000000238419","","","","Images/NewTrialWC.png","","2"
"image-button-response","45","263810","0.0-9.0-1.6","28","Low_HMMActual","","","","","","null","","","","Images/WhiteBeadChoice.png","","null"
"image-button-response","46","264311","0.0-9.0-2.6","28","Low_HMMActual","","","","","","null","","","","Images/WhiteBeadChoiceWrong.png","","null"
"image-button-response","47","265345","0.0-9.0-0.7","28","Low_HMMActual","","","","","","1033.1000000238419","","","","Images/NewTrialBC.png","","0"
"image-button-response","48","265647","0.0-9.0-1.7","28","Low_HMMActual","","","","","","null","","","","Images/BlackBeadChoice.png","","null"
"image-button-response","49","266149","0.0-9.0-2.7","28","Low_HMMActual","","","","","","null","","","","Images/BlackBeadChoiceCorrect.png","","null"
"image-button-response","50","266713","0.0-9.0-0.8","28","Low_HMMActual","","","","","","561.2000000476837","","","","Images/NewTrialBC.png","","0"
"image-button-response","51","267016","0.0-9.0-1.8","28","Low_HMMActual","","","","","","null","","","","Images/BlackBeadChoice.png","","null"
"image-button-response","52","267518","0.0-9.0-2.8","28","Low_HMMActual","","","","","","null","","","","Images/BlackBeadChoiceWrong.png","","null"
"image-button-response","53","268179","0.0-9.0-0.9","28","Low_HMMActual","","","","","","655.1999999880791","","","","Images/NewTrialWC.png","","2"
"image-button-response","54","268481","0.0-9.0-1.9","28","Low_HMMActual","","","","","","null","","","","Images/WhiteBeadChoice.png","","null"
"image-button-response","55","268982","0.0-9.0-2.9","28","Low_HMMActual","","","","","","null","","","","Images/WhiteBeadChoiceWrong.png","","null"
"html-keyboard-response","56","272930","0.0-10.0","28","Low_HMMActual","","","","","","3947.199999988079","","","",""," ",""
"image-keyboard-response","57","275882","0.0-11.0","28","Low_HMMActual","","","","","","2951.399999976158","","","","tutorial/tutorial20.png"," ",""
"html-keyboard-response","58","282547","0.0-12.0","29","Low_HMMActual","","","","","","6660.799999952316","","","","<div class=""container"" style=""height:800px;width:800px;display:flex;flex-direction:column;justify-content:center;align-items:center;text-align:center;font-weight:normal;font-family:Arial;font-size:20px""><p>Loading episode&hellip;</p><div>"," ",""
"image-button-response","59","285163","0.0-13.0-0.0","29","Low_HMMActual","","","","","","2614.400000035763","","","","Images/NoChoice.png","","3"
"image-button-response","60","285466","0.0-13.0-1.0","29","Low_HMMActual","","","","","","null","","","","Images/WhiteBeadChoice.png","","null"
"image-button-response","61","285970","0.0-13.0-2.0","29","Low_HMMActual","","","","","","null","","","","Images/WhiteBeadChoiceWrong.png","","null"
"image-button-response","62","287213","0.0-13.0-0.1","29","Low_HMMActual","","","","","","1241.800000011921","","","","Images/NewTrialBC.png","","0"
"image-button-response","63","287516","0.0-13.0-1.1","29","Low_HMMActual","","","","","","null","","","","Images/BlackBeadChoice.png","","null"
"image-button-response","64","288019","0.0-13.0-2.1","29","Low_HMMActual","","","","","","null","","","","Images/BlackBeadChoiceWrong.png","","null"
"image-button-response","65","288925","0.0-13.0-0.2","29","Low_HMMActual","","","","","","903.6999999880791","","","","Images/NewTrialWC.png","","2"
"image-button-response","66","289227","0.0-13.0-1.2","29","Low_HMMActual","","","","","","null","","","","Images/WhiteBeadChoice.png","","null"
"image-button-response","67","289730","0.0-13.0-2.2","29","Low_HMMActual","","","","","","null","","","","Images/WhiteBeadChoiceCorrect.png","","null"
"image-button-response","68","290218","0.0-13.0-0.3","29","Low_HMMActual","","","","","","486.80000001192093","","","","Images/NewTrialWC.png","","2"
"image-button-response","69","290520","0.0-13.0-1.3","29","Low_HMMActual","","","","","","null","","","","Images/WhiteBeadChoice.png","","null"
"image-button-response","70","291022","0.0-13.0-2.3","29","Low_HMMActual","","","","","","null","","","","Images/WhiteBeadChoiceCorrect.png","","null"
"image-button-response","71","291471","0.0-13.0-0.4","29","Low_HMMActual","","","","","","446.4000000357628","","","","Images/NewTrialWC.png","","2"
"image-button-response","72","291773","0.0-13.0-1.4","29","Low_HMMActual","","","","","","null","","","","Images/WhiteBeadChoice.png","","null"
"image-button-response","73","292275","0.0-13.0-2.4","29","Low_HMMActual","","","","","","null","","","","Images/WhiteBeadChoiceWrong.png","","null"
"image-button-response","74","292887","0.0-13.0-0.5","29","Low_HMMActual","","","","","","611.3999999761581","","","","Images/NewTrialBC.png","","0"
"image-button-response","75","293189","0.0-13.0-1.5","29","Low_HMMActual","","","","","","null","","","","Images/BlackBeadChoice.png","","null"
"image-button-response","76","293692","0.0-13.0-2.5","29","Low_HMMActual","","","","","","null","","","","Images/BlackBeadChoiceCorrect.png","","null"
"image-button-response","77","294106","0.0-13.0-0.6","29","Low_HMMActual","","","","","","411.4000000357628","","","","Images/NewTrialBC.png","","0"
"image-button-response","78","294408","0.0-13.0-1.6","29","Low_HMMActual","","","","","","null","","","","Images/BlackBeadChoice.png","","null"
"image-button-response","79","294910","0.0-13.0-2.6","29","Low_HMMActual","","","","","","null","","","","Images/BlackBeadChoiceWrong.png","","null"
"image-button-response","80","295466","0.0-13.0-0.7","29","Low_HMMActual","","","","","","555.2999999523163","","","","Images/NewTrialWC.png","","2"
"image-button-response","81","295768","0.0-13.0-1.7","29","Low_HMMActual","","","","","","null","","","","Images/WhiteBeadChoice.png","","null"
"image-button-response","82","296270","0.0-13.0-2.7","29","Low_HMMActual","","","","","","null","","","","Images/WhiteBeadChoiceWrong.png","","null"
"image-button-response","83","297106","0.0-13.0-0.8","29","Low_HMMActual","","","","","","834.7000000476837","","","","Images/NewTrialBC.png","","0"
"image-button-response","84","297407","0.0-13.0-1.8","29","Low_HMMActual","","","","","","null","","","","Images/BlackBeadChoice.png","","null"
"image-button-response","85","297909","0.0-13.0-2.8","29","Low_HMMActual","","","","","","null","","","","Images/BlackBeadChoiceWrong.png","","null"
"image-button-response","86","298525","0.0-13.0-0.9","29","Low_HMMActual","","","","","","614.6999999880791","","","","Images/NewTrialWC.png","","2"
"image-button-response","87","298828","0.0-13.0-1.9","29","Low_HMMActual","","","","","","null","","","","Images/WhiteBeadChoice.png","","null"
"image-button-response","88","299330","0.0-13.0-2.9","29","Low_HMMActual","","","","","","null","","","","Images/WhiteBeadChoiceCorrect.png","","null"
"image-button-response","89","299738","0.0-13.0-0.10","29","Low_HMMActual","","","","","","405.89999997615814","","","","Images/NewTrialWC.png","","2"
"image-button-response","90","300039","0.0-13.0-1.10","29","Low_HMMActual","","","","","","null","","","","Images/WhiteBeadChoice.png","","null"
"image-button-response","91","300542","0.0-13.0-2.10","29","Low_HMMActual","","","","","","null","","","","Images/WhiteBeadChoiceCorrect.png","","null"
"image-button-response","92","300927","0.0-13.0-0.11","29","Low_HMMActual","","","","","","383.19999998807907","","","","Images/NewTrialWC.png","","2"
"image-button-response","93","301230","0.0-13.0-1.11","29","Low_HMMActual","","","","","","null","","","","Images/WhiteBeadChoice.png","","null"
"image-button-response","94","301733","0.0-13.0-2.11","29","Low_HMMActual","","","","","","null","","","","Images/WhiteBeadChoiceWrong.png","","null"
"image-button-response","95","302139","0.0-13.0-0.12","29","Low_HMMActual","","","","","","406.0999999642372","","","","Images/NewTrialBC.png","","0"
"image-button-response","96","302442","0.0-13.0-1.12","29","Low_HMMActual","","","","","","null","","","","Images/BlackBeadChoice.png","","null"
"image-button-response","97","302945","0.0-13.0-2.12","29","Low_HMMActual","","","","","","null","","","","Images/BlackBeadChoiceCorrect.png","","null"
"image-button-response","98","303296","0.0-13.0-0.13","29","Low_HMMActual","","","","","","349.5","","","","Images/NewTrialBC.png","","0"
"image-button-response","99","303598","0.0-13.0-1.13","29","Low_HMMActual","","","","","","null","","","","Images/BlackBeadChoice.png","","null"
"image-button-response","100","304101","0.0-13.0-2.13","29","Low_HMMActual","","","","","","null","","","","Images/BlackBeadChoiceCorrect.png","","null"
"image-button-response","101","304435","0.0-13.0-0.14","29","Low_HMMActual","","","","","","332.89999997615814","","","","Images/NewTrialBC.png","","0"
"image-button-response","102","304738","0.0-13.0-1.14","29","Low_HMMActual","","","","","","null","","","","Images/BlackBeadChoice.png","","null"
"image-button-response","103","305241","0.0-13.0-2.14","29","Low_HMMActual","","","","","","null","","","","Images/BlackBeadChoiceCorrect.png","","null"
"image-button-response","104","305467","0.0-13.0-0.15","29","Low_HMMActual","","","","","","224","","","","Images/NewTrialBC.png","","0"
"image-button-response","105","305776","0.0-13.0-1.15","29","Low_HMMActual","","","","","","null","","","","Images/BlackBeadChoice.png","","null"
"image-button-response","106","306277","0.0-13.0-2.15","29","Low_HMMActual","","","","","","null","","","","Images/BlackBeadChoiceCorrect.png","","null"
"image-button-response","107","306556","0.0-13.0-0.16","29","Low_HMMActual","","","","","","276.80000001192093","","","","Images/NewTrialBC.png","","0"
"image-button-response","108","306858","0.0-13.0-1.16","29","Low_HMMActual","","","","","","null","","","","Images/BlackBeadChoice.png","","null"
"image-button-response","109","307361","0.0-13.0-2.16","29","Low_HMMActual","","","","","","null","","","","Images/BlackBeadChoiceCorrect.png","","null"
"image-button-response","110","307641","0.0-13.0-0.17","29","Low_HMMActual","","","","","","277.19999998807907","","","","Images/NewTrialBC.png","","0"
"image-button-response","111","307943","0.0-13.0-1.17","29","Low_HMMActual","","","","","","null","","","","Images/BlackBeadChoice.png","","null"
"image-button-response","112","308446","0.0-13.0-2.17","29","Low_HMMActual","","","","","","null","","","","Images/BlackBeadChoiceCorrect.png","","null"
"image-button-response","113","308725","0.0-13.0-0.18","29","Low_HMMActual","","","","","","276.89999997615814","","","","Images/NewTrialBC.png","","0"
"image-button-response","114","309026","0.0-13.0-1.18","29","Low_HMMActual","","","","","","null","","","","Images/BlackBeadChoice.png","","null"
"image-button-response","115","309527","0.0-13.0-2.18","29","Low_HMMActual","","","","","","null","","","","Images/BlackBeadChoiceWrong.png","","null"
"image-button-response","116","310032","0.0-13.0-0.19","29","Low_HMMActual","","","","","","503.9000000357628","","","","Images/NewTrialWC.png","","2"
"image-button-response","117","310334","0.0-13.0-1.19","29","Low_HMMActual","","","","","","null","","","","Images/WhiteBeadChoice.png","","null"
"image-button-response","118","310835","0.0-13.0-2.19","29","Low_HMMActual","","","","","","null","","","","Images/WhiteBeadChoiceWrong.png","","null"
"image-button-response","119","311494","0.0-13.0-0.20","29","Low_HMMActual","","","","","","657.7000000476837","","","","Images/NewTrialBC.png","","0"
"image-button-response","120","311796","0.0-13.0-1.20","29","Low_HMMActual","","","","","","null","","","","Images/BlackBeadChoice.png","","null"
"image-button-response","121","312298","0.0-13.0-2.20","29","Low_HMMActual","","","","","","null","","","","Images/BlackBeadChoiceCorrect.png","","null"
"image-button-response","122","312602","0.0-13.0-0.21","29","Low_HMMActual","","","","","","301.5999999642372","","","","Images/NewTrialBC.png","","0"
"image-button-response","123","312903","0.0-13.0-1.21","29","Low_HMMActual","","","","","","null","","","","Images/BlackBeadChoice.png","","null"
"image-button-response","124","313406","0.0-13.0-2.21","29","Low_HMMActual","","","","","","null","","","","Images/BlackBeadChoiceWrong.png","","null"
"image-button-response","125","313921","0.0-13.0-0.22","29","Low_HMMActual","","","","","","514.3000000119209","","","","Images/NewTrialWC.png","","2"
"image-button-response","126","314222","0.0-13.0-1.22","29","Low_HMMActual","","","","","","null","","","","Images/WhiteBeadChoice.png","","null"
"image-button-response","127","314724","0.0-13.0-2.22","29","Low_HMMActual","","","","","","null","","","","Images/WhiteBeadChoiceWrong.png","","null"
"image-button-response","128","315034","0.0-13.0-0.23","29","Low_HMMActual","","","","","","309.19999998807907","","","","Images/NewTrialBC.png","","0"
"image-button-response","129","315336","0.0-13.0-1.23","29","Low_HMMActual","","","","","","null","","","","Images/BlackBeadChoice.png","","null"
"image-button-response","130","315838","0.0-13.0-2.23","29","Low_HMMActual","","","","","","null","","","","Images/BlackBeadChoiceCorrect.png","","null"
"image-button-response","131","316119","0.0-13.0-0.24","29","Low_HMMActual","","","","","","278.19999998807907","","","","Images/NewTrialBC.png","","0"
"image-button-response","132","316421","0.0-13.0-1.24","29","Low_HMMActual","","","","","","null","","","","Images/BlackBeadChoice.png","","null"
"image-button-response","133","316940","0.0-13.0-2.24","29","Low_HMMActual","","","","","","null","","","","Images/BlackBeadChoiceCorrect.png","","null"
"image-button-response","134","317242","0.0-13.0-0.25","29","Low_HMMActual","","","","","","300.0999999642372","","","","Images/NewTrialBC.png","","0"
"image-button-response","135","317544","0.0-13.0-1.25","29","Low_HMMActual","","","","","","null","","","","Images/BlackBeadChoice.png","","null"
"image-button-response","136","318046","0.0-13.0-2.25","29","Low_HMMActual","","","","","","null","","","","Images/BlackBeadChoiceCorrect.png","","null"
"image-button-response","137","318349","0.0-13.0-0.26","29","Low_HMMActual","","","","","","301.39999997615814","","","","Images/NewTrialBC.png","","0"
"image-button-response","138","318651","0.0-13.0-1.26","29","Low_HMMActual","","","","","","null","","","","Images/BlackBeadChoice.png","","null"
"image-button-response","139","319154","0.0-13.0-2.26","29","Low_HMMActual","","","","","","null","","","","Images/BlackBeadChoiceCorrect.png","","null"
"image-button-response","140","319385","0.0-13.0-0.27","29","Low_HMMActual","","","","","","228.9000000357628","","","","Images/NewTrialBC.png","","0"
"image-button-response","141","319692","0.0-13.0-1.27","29","Low_HMMActual","","","","","","null","","","","Images/BlackBeadChoice.png","","null"
"image-button-response","142","320194","0.0-13.0-2.27","29","Low_HMMActual","","","","","","null","","","","Images/BlackBeadChoiceWrong.png","","null"
"image-button-response","143","320903","0.0-13.0-0.28","29","Low_HMMActual","","","","","","707.8000000119209","","","","Images/NewTrialWC.png","","2"
"image-button-response","144","321206","0.0-13.0-1.28","29","Low_HMMActual","","","","","","null","","","","Images/WhiteBeadChoice.png","","null"
"image-button-response","145","321709","0.0-13.0-2.28","29","Low_HMMActual","","","","","","null","","","","Images/WhiteBeadChoiceWrong.png","","null"
"image-button-response","146","322109","0.0-13.0-0.29","29","Low_HMMActual","","","","","","398.4000000357628","","","","Images/NewTrialBC.png","","0"
"image-button-response","147","322411","0.0-13.0-1.29","29","Low_HMMActual","","","","","","null","","","","Images/BlackBeadChoice.png","","null"
"image-button-response","148","322914","0.0-13.0-2.29","29","Low_HMMActual","","","","","","null","","","","Images/BlackBeadChoiceWrong.png","","null"
"image-button-response","149","323275","0.0-13.0-0.30","29","Low_HMMActual","","","","","","360.10000002384186","","","","Images/NewTrialWC.png","","2"
"image-button-response","150","323577","0.0-13.0-1.30","29","Low_HMMActual","","","","","","null","","","","Images/WhiteBeadChoice.png","","null"
"image-button-response","151","324078","0.0-13.0-2.30","29","Low_HMMActual","","","","","","null","","","","Images/WhiteBeadChoiceCorrect.png","","null"
"image-button-response","152","324317","0.0-13.0-0.31","29","Low_HMMActual","","","","","","236.5","","","","Images/NewTrialWC.png","","2"
"image-button-response","153","324619","0.0-13.0-1.31","29","Low_HMMActual","","","","","","null","","","","Images/WhiteBeadChoice.png","","null"
"image-button-response","154","325121","0.0-13.0-2.31","29","Low_HMMActual","","","","","","null","","","","Images/WhiteBeadChoiceCorrect.png","","null"
"image-button-response","155","325357","0.0-13.0-0.32","29","Low_HMMActual","","","","","","233.30000001192093","","","","Images/NewTrialWC.png","","2"
"image-button-response","156","325659","0.0-13.0-1.32","29","Low_HMMActual","","","","","","null","","","","Images/WhiteBeadChoice.png","","null"
"image-button-response","157","326160","0.0-13.0-2.32","29","Low_HMMActual","","","","","","null","","","","Images/WhiteBeadChoiceCorrect.png","","null"
"image-button-response","158","326352","0.0-13.0-0.33","29","Low_HMMActual","","","","","","188.5","","","","Images/NewTrialWC.png","","2"
"image-button-response","159","326654","0.0-13.0-1.33","29","Low_HMMActual","","","","","","null","","","","Images/WhiteBeadChoice.png","","null"
"image-button-response","160","327157","0.0-13.0-2.33","29","Low_HMMActual","","","","","","null","","","","Images/WhiteBeadChoiceCorrect.png","","null"
"image-button-response","161","327347","0.0-13.0-0.34","29","Low_HMMActual","","","","","","187.5999999642372","","","","Images/NewTrialWC.png","","2"
"image-button-response","162","327650","0.0-13.0-1.34","29","Low_HMMActual","","","","","","null","","","","Images/WhiteBeadChoice.png","","null"
"image-button-response","163","328153","0.0-13.0-2.34","29","Low_HMMActual","","","","","","null","","","","Images/WhiteBeadChoiceWrong.png","","null"
"image-button-response","164","328915","0.0-13.0-0.35","29","Low_HMMActual","","","","","","761.5","","","","Images/NewTrialBC.png","","0"
"image-button-response","165","329218","0.0-13.0-1.35","29","Low_HMMActual","","","","","","null","","","","Images/BlackBeadChoice.png","","null"
"image-button-response","166","329719","0.0-13.0-2.35","29","Low_HMMActual","","","","","","null","","","","Images/BlackBeadChoiceWrong.png","","null"
"image-button-response","167","329983","0.0-13.0-0.36","29","Low_HMMActual","","","","","","261.0999999642372","","","","Images/NewTrialWC.png","","2"
"image-button-response","168","330286","0.0-13.0-1.36","29","Low_HMMActual","","","","","","null","","","","Images/WhiteBeadChoice.png","","null"
"image-button-response","169","330787","0.0-13.0-2.36","29","Low_HMMActual","","","","","","null","","","","Images/WhiteBeadChoiceCorrect.png","","null"
"image-button-response","170","331083","0.0-13.0-0.37","29","Low_HMMActual","","","","","","295","","","","Images/NewTrialWC.png","","2"
"image-button-response","171","331385","0.0-13.0-1.37","29","Low_HMMActual","","","","","","null","","","","Images/WhiteBeadChoice.png","","null"
"image-button-response","172","331887","0.0-13.0-2.37","29","Low_HMMActual","","","","","","null","","","","Images/WhiteBeadChoiceCorrect.png","","null"
"image-button-response","173","332365","0.0-13.0-0.38","29","Low_HMMActual","","","","","","476.0999999642372","","","","Images/NewTrialWC.png","","2"
"image-button-response","174","332667","0.0-13.0-1.38","29","Low_HMMActual","","","","","","null","","","","Images/WhiteBeadChoice.png","","null"
"image-button-response","175","333169","0.0-13.0-2.38","29","Low_HMMActual","","","","","","null","","","","Images/WhiteBeadChoiceWrong.png","","null"
"image-button-response","176","333560","0.0-13.0-0.39","29","Low_HMMActual","","","","","","389.2999999523163","","","","Images/NewTrialBC.png","","3"
"image-button-response","177","333861","0.0-13.0-1.39","29","Low_HMMActual","","","","","","null","","","","Images/WhiteBeadChoice.png","","null"
"image-button-response","178","334363","0.0-13.0-2.39","29","Low_HMMActual","","","","","","null","","","","Images/WhiteBeadChoiceWrong.png","","null"
"image-button-response","179","334861","0.0-13.0-0.40","29","Low_HMMActual","","","","","","497","","","","Images/NewTrialBC.png","","0"
"image-button-response","180","335163","0.0-13.0-1.40","29","Low_HMMActual","","","","","","null","","","","Images/BlackBeadChoice.png","","null"
"image-button-response","181","335671","0.0-13.0-2.40","29","Low_HMMActual","","","","","","null","","","","Images/BlackBeadChoiceWrong.png","","null"
"image-button-response","182","337299","0.0-13.0-0.41","29","Low_HMMActual","","","","","","1627.0999999642372","","","","Images/NewTrialWC.png","","2"
"image-button-response","183","337601","0.0-13.0-1.41","29","Low_HMMActual","","","","","","null","","","","Images/WhiteBeadChoice.png","","null"
"image-button-response","184","338103","0.0-13.0-2.41","29","Low_HMMActual","","","","","","null","","","","Images/WhiteBeadChoiceCorrect.png","","null"
"image-button-response","185","338358","0.0-13.0-0.42","29","Low_HMMActual","","","","","","253.30000001192093","","","","Images/NewTrialWC.png","","2"
"image-button-response","186","338661","0.0-13.0-1.42","29","Low_HMMActual","","","","","","null","","","","Images/WhiteBeadChoice.png","","null"
"image-button-response","187","339163","0.0-13.0-2.42","29","Low_HMMActual","","","","","","null","","","","Images/WhiteBeadChoiceWrong.png","","null"
"image-button-response","188","339733","0.0-13.0-0.43","29","Low_HMMActual","","","","","","568.4000000357628","","","","Images/NewTrialBC.png","","0"
"image-button-response","189","340035","0.0-13.0-1.43","29","Low_HMMActual","","","","","","null","","","","Images/BlackBeadChoice.png","","null"
"image-button-response","190","340537","0.0-13.0-2.43","29","Low_HMMActual","","","","","","null","","","","Images/BlackBeadChoiceWrong.png","","null"
"image-button-response","191","340898","0.0-13.0-0.44","29","Low_HMMActual","","","","","","360","","","","Images/NewTrialWC.png","","2"
"image-button-response","192","341200","0.0-13.0-1.44","29","Low_HMMActual","","","","","","null","","","","Images/WhiteBeadChoice.png","","null"
"image-button-response","193","341702","0.0-13.0-2.44","29","Low_HMMActual","","","","","","null","","","","Images/WhiteBeadChoiceCorrect.png","","null"
"image-button-response","194","341975","0.0-13.0-0.45","29","Low_HMMActual","","","","","","270.80000001192093","","","","Images/NewTrialWC.png","","2"
"image-button-response","195","342277","0.0-13.0-1.45","29","Low_HMMActual","","","","","","null","","","","Images/WhiteBeadChoice.png","","null"
"image-button-response","196","342780","0.0-13.0-2.45","29","Low_HMMActual","","","","","","null","","","","Images/WhiteBeadChoiceWrong.png","","null"
"image-button-response","197","343108","0.0-13.0-0.46","29","Low_HMMActual","","","","","","326.30000001192093","","","","Images/NewTrialBC.png","","2"
"image-button-response","198","343411","0.0-13.0-1.46","29","Low_HMMActual","","","","","","null","","","","Images/WhiteBeadChoice.png","","null"
"image-button-response","199","343930","0.0-13.0-2.46","29","Low_HMMActual","","","","","","null","","","","Images/WhiteBeadChoiceCorrect.png","","null"
"image-button-response","200","344551","0.0-13.0-0.47","29","Low_HMMActual","","","","","","620.3999999761581","","","","Images/NewTrialWC.png","","2"
"image-button-response","201","344853","0.0-13.0-1.47","29","Low_HMMActual","","","","","","null","","","","Images/WhiteBeadChoice.png","","null"
"image-button-response","202","345356","0.0-13.0-2.47","29","Low_HMMActual","","","","","","null","","","","Images/WhiteBeadChoiceCorrect.png","","null"
"image-button-response","203","345740","0.0-13.0-0.48","29","Low_HMMActual","","","","","","382.10000002384186","","","","Images/NewTrialWC.png","","2"
"image-button-response","204","346041","0.0-13.0-1.48","29","Low_HMMActual","","","","","","null","","","","Images/WhiteBeadChoice.png","","null"
"image-button-response","205","346544","0.0-13.0-2.48","29","Low_HMMActual","","","","","","null","","","","Images/WhiteBeadChoiceCorrect.png","","null"
"image-button-response","206","346838","0.0-13.0-0.49","29","Low_HMMActual","","","","","","291.5999999642372","","","","Images/NewTrialWC.png","","2"
"image-button-response","207","347140","0.0-13.0-1.49","29","Low_HMMActual","","","","","","null","","","","Images/WhiteBeadChoice.png","","null"
"image-button-response","208","347646","0.0-13.0-2.49","29","Low_HMMActual","","","","","","null","","","","Images/WhiteBeadChoiceWrong.png","","null"
"image-button-response","209","348029","0.0-13.0-0.50","29","Low_HMMActual","","","","","","382.39999997615814","","","","Images/NewTrialBC.png","","0"
"image-button-response","210","348331","0.0-13.0-1.50","29","Low_HMMActual","","","","","","null","","","","Images/BlackBeadChoice.png","","null"
"image-button-response","211","348833","0.0-13.0-2.50","29","Low_HMMActual","","","","","","null","","","","Images/BlackBeadChoiceCorrect.png","","null"
"image-button-response","212","349041","0.0-13.0-0.51","29","Low_HMMActual","","","","","","205.80000001192093","","","","Images/NewTrialBC.png","","0"
"image-button-response","213","349343","0.0-13.0-1.51","29","Low_HMMActual","","","","","","null","","","","Images/BlackBeadChoice.png","","null"
"image-button-response","214","349847","0.0-13.0-2.51","29","Low_HMMActual","","","","","","null","","","","Images/BlackBeadChoiceCorrect.png","","null"
"image-button-response","215","350086","0.0-13.0-0.52","29","Low_HMMActual","","","","","","237","","","","Images/NewTrialBC.png","","0"
"image-button-response","216","350389","0.0-13.0-1.52","29","Low_HMMActual","","","","","","null","","","","Images/BlackBeadChoice.png","","null"
"image-button-response","217","350891","0.0-13.0-2.52","29","Low_HMMActual","","","","","","null","","","","Images/BlackBeadChoiceCorrect.png","","null"
"image-button-response","218","351139","0.0-13.0-0.53","29","Low_HMMActual","","","","","","245.89999997615814","","","","Images/NewTrialBC.png","","0"
"image-button-response","219","351441","0.0-13.0-1.53","29","Low_HMMActual","","","","","","null","","","","Images/BlackBeadChoice.png","","null"
"image-button-response","220","351945","0.0-13.0-2.53","29","Low_HMMActual","","","","","","null","","","","Images/BlackBeadChoiceCorrect.png","","null"
"image-button-response","221","352217","0.0-13.0-0.54","29","Low_HMMActual","","","","","","267.69999998807907","","","","Images/NewTrialBC.png","","0"
"image-button-response","222","352518","0.0-13.0-1.54","29","Low_HMMActual","","","","","","null","","","","Images/BlackBeadChoice.png","","null"
"image-button-response","223","353021","0.0-13.0-2.54","29","Low_HMMActual","","","","","","null","","","","Images/BlackBeadChoiceCorrect.png","","null"
"image-button-response","224","353962","0.0-13.0-0.55","29","Low_HMMActual","","","","","","940","","","","Images/NewTrialBC.png","","0"
"image-button-response","225","354265","0.0-13.0-1.55","29","Low_HMMActual","","","","","","null","","","","Images/BlackBeadChoice.png","","null"
"image-button-response","226","354775","0.0-13.0-2.55","29","Low_HMMActual","","","","","","null","","","","Images/BlackBeadChoiceCorrect.png","","null"
"image-button-response","227","355686","0.0-13.0-0.56","29","Low_HMMActual","","","","","","908.5","","","","Images/NewTrialBC.png","","0"
"image-button-response","228","355987","0.0-13.0-1.56","29","Low_HMMActual","","","","","","null","","","","Images/BlackBeadChoice.png","","null"
"image-button-response","229","356489","0.0-13.0-2.56","29","Low_HMMActual","","","","","","null","","","","Images/BlackBeadChoiceCorrect.png","","null"
"image-button-response","230","356906","0.0-13.0-0.57","29","Low_HMMActual","","","","","","415.5","","","","Images/NewTrialBC.png","","0"
"image-button-response","231","357208","0.0-13.0-1.57","29","Low_HMMActual","","","","","","null","","","","Images/BlackBeadChoice.png","","null"
"image-button-response","232","357710","0.0-13.0-2.57","29","Low_HMMActual","","","","","","null","","","","Images/BlackBeadChoiceCorrect.png","","null"
"image-button-response","233","357985","0.0-13.0-0.58","29","Low_HMMActual","","","","","","273.19999998807907","","","","Images/NewTrialBC.png","","0"
"image-button-response","234","358287","0.0-13.0-1.58","29","Low_HMMActual","","","","","","null","","","","Images/BlackBeadChoice.png","","null"
"image-button-response","235","358789","0.0-13.0-2.58","29","Low_HMMActual","","","","","","null","","","","Images/BlackBeadChoiceCorrect.png","","null"
"image-button-response","236","358982","0.0-13.0-0.59","29","Low_HMMActual","","","","","","191.19999998807907","","","","Images/NewTrialBC.png","","0"
"image-button-response","237","359285","0.0-13.0-1.59","29","Low_HMMActual","","","","","","null","","","","Images/BlackBeadChoice.png","","null"
"image-button-response","238","359787","0.0-13.0-2.59","29","Low_HMMActual","","","","","","null","","","","Images/BlackBeadChoiceCorrect.png","","null"
"image-button-response","239","360103","0.0-13.0-0.60","29","Low_HMMActual","","","","","","313.89999997615814","","","","Images/NewTrialBC.png","","0"
"image-button-response","240","360405","0.0-13.0-1.60","29","Low_HMMActual","","","","","","null","","","","Images/BlackBeadChoice.png","","null"
"image-button-response","241","360906","0.0-13.0-2.60","29","Low_HMMActual","","","","","","null","","","","Images/BlackBeadChoiceWrong.png","","null"
"image-button-response","242","361411","0.0-13.0-0.61","29","Low_HMMActual","","","","","","503.80000001192093","","","","Images/NewTrialWC.png","","2"
"image-button-response","243","361714","0.0-13.0-1.61","29","Low_HMMActual","","","","","","null","","","","Images/WhiteBeadChoice.png","","null"
"image-button-response","244","362219","0.0-13.0-2.61","29","Low_HMMActual","","","","","","null","","","","Images/WhiteBeadChoiceWrong.png","","null"
"image-button-response","245","362655","0.0-13.0-0.62","29","Low_HMMActual","","","","","","435.0999999642372","","","","Images/NewTrialBC.png","","0"
"image-button-response","246","362958","0.0-13.0-1.62","29","Low_HMMActual","","","","","","null","","","","Images/BlackBeadChoice.png","","null"
"image-button-response","247","363461","0.0-13.0-2.62","29","Low_HMMActual","","","","","","null","","","","Images/BlackBeadChoiceCorrect.png","","null"
"image-button-response","248","363722","0.0-13.0-0.63","29","Low_HMMActual","","","","","","259.80000001192093","","","","Images/NewTrialBC.png","","0"
"image-button-response","249","364024","0.0-13.0-1.63","29","Low_HMMActual","","","","","","null","","","","Images/BlackBeadChoice.png","","null"
"image-button-response","250","364526","0.0-13.0-2.63","29","Low_HMMActual","","","","","","null","","","","Images/BlackBeadChoiceCorrect.png","","null"
"image-button-response","251","364752","0.0-13.0-0.64","29","Low_HMMActual","","","","","","223.4000000357628","","","","Images/NewTrialBC.png","","0"
"image-button-response","252","365055","0.0-13.0-1.64","29","Low_HMMActual","","","","","","null","","","","Images/BlackBeadChoice.png","","null"
"image-button-response","253","365556","0.0-13.0-2.64","29","Low_HMMActual","","","","","","null","","","","Images/BlackBeadChoiceWrong.png","","null"
"image-button-response","254","365908","0.0-13.0-0.65","29","Low_HMMActual","","","","","","349.5999999642372","","","","Images/NewTrialWC.png","","2"
"image-button-response","255","366211","0.0-13.0-1.65","29","Low_HMMActual","","","","","","null","","","","Images/WhiteBeadChoice.png","","null"
"image-button-response","256","366713","0.0-13.0-2.65","29","Low_HMMActual","","","","","","null","","","","Images/WhiteBeadChoiceWrong.png","","null"
"image-button-response","257","367504","0.0-13.0-0.66","29","Low_HMMActual","","","","","","788.3999999761581","","","","Images/NewTrialBC.png","","0"
"image-button-response","258","367806","0.0-13.0-1.66","29","Low_HMMActual","","","","","","null","","","","Images/BlackBeadChoice.png","","null"
"image-button-response","259","368308","0.0-13.0-2.66","29","Low_HMMActual","","","","","","null","","","","Images/BlackBeadChoiceCorrect.png","","null"
"image-button-response","260","368529","0.0-13.0-0.67","29","Low_HMMActual","","","","","","218.89999997615814","","","","Images/NewTrialBC.png","","0"
"image-button-response","261","368831","0.0-13.0-1.67","29","Low_HMMActual","","","","","","null","","","","Images/BlackBeadChoice.png","","null"
"image-button-response","262","369333","0.0-13.0-2.67","29","Low_HMMActual","","","","","","null","","","","Images/BlackBeadChoiceWrong.png","","null"
"image-button-response","263","370083","0.0-13.0-0.68","29","Low_HMMActual","","","","","","747.8999999761581","","","","Images/NewTrialWC.png","","2"
"image-button-response","264","370384","0.0-13.0-1.68","29","Low_HMMActual","","","","","","null","","","","Images/WhiteBeadChoice.png","","null"
"image-button-response","265","370889","0.0-13.0-2.68","29","Low_HMMActual","","","","","","null","","","","Images/WhiteBeadChoiceWrong.png","","null"
"image-button-response","266","371188","0.0-13.0-0.69","29","Low_HMMActual","","","","","","297.39999997615814","","","","Images/NewTrialBC.png","","0"
"image-button-response","267","371490","0.0-13.0-1.69","29","Low_HMMActual","","","","","","null","","","","Images/BlackBeadChoice.png","","null"
"image-button-response","268","371992","0.0-13.0-2.69","29","Low_HMMActual","","","","","","null","","","","Images/BlackBeadChoiceCorrect.png","","null"
"image-button-response","269","372159","0.0-13.0-0.70","29","Low_HMMActual","","","","","","165.39999997615814","","","","Images/NewTrialBC.png","","0"
"image-button-response","270","372461","0.0-13.0-1.70","29","Low_HMMActual","","","","","","null","","","","Images/BlackBeadChoice.png","","null"
"image-button-response","271","372964","0.0-13.0-2.70","29","Low_HMMActual","","","","","","null","","","","Images/BlackBeadChoiceCorrect.png","","null"
"image-button-response","272","373147","0.0-13.0-0.71","29","Low_HMMActual","","","","","","176.19999998807907","","","","Images/NewTrialBC.png","","0"
"image-button-response","273","373450","0.0-13.0-1.71","29","Low_HMMActual","","","","","","null","","","","Images/BlackBeadChoice.png","","null"
"image-button-response","274","373952","0.0-13.0-2.71","29","Low_HMMActual","","","","","","null","","","","Images/BlackBeadChoiceWrong.png","","null"
"image-button-response","275","374392","0.0-13.0-0.72","29","Low_HMMActual","","","","","","439.19999998807907","","","","Images/NewTrialWC.png","","2"
"image-button-response","276","374695","0.0-13.0-1.72","29","Low_HMMActual","","","","","","null","","","","Images/WhiteBeadChoice.png","","null"
"image-button-response","277","375197","0.0-13.0-2.72","29","Low_HMMActual","","","","","","null","","","","Images/WhiteBeadChoiceCorrect.png","","null"
"image-button-response","278","375390","0.0-13.0-0.73","29","Low_HMMActual","","","","","","190","","","","Images/NewTrialWC.png","","2"
"image-button-response","279","375692","0.0-13.0-1.73","29","Low_HMMActual","","","","","","null","","","","Images/WhiteBeadChoice.png","","null"
"image-button-response","280","376195","0.0-13.0-2.73","29","Low_HMMActual","","","","","","null","","","","Images/WhiteBeadChoiceWrong.png","","null"
"image-button-response","281","376744","0.0-13.0-0.74","29","Low_HMMActual","","","","","","547.1999999880791","","","","Images/NewTrialBC.png","","0"
"image-button-response","282","377046","0.0-13.0-1.74","29","Low_HMMActual","","","","","","null","","","","Images/BlackBeadChoice.png","","null"
"image-button-response","283","377548","0.0-13.0-2.74","29","Low_HMMActual","","","","","","null","","","","Images/BlackBeadChoiceCorrect.png","","null"
"image-button-response","284","377775","0.0-13.0-0.75","29","Low_HMMActual","","","","","","224.79999995231628","","","","Images/NewTrialBC.png","","0"
"image-button-response","285","378078","0.0-13.0-1.75","29","Low_HMMActual","","","","","","null","","","","Images/BlackBeadChoice.png","","null"
"image-button-response","286","378580","0.0-13.0-2.75","29","Low_HMMActual","","","","","","null","","","","Images/BlackBeadChoiceCorrect.png","","null"
"image-button-response","287","378681","0.0-13.0-0.76","29","Low_HMMActual","","","","","","99.59999996423721","","","","Images/NewTrialBC.png","","0"
"image-button-response","288","378984","0.0-13.0-1.76","29","Low_HMMActual","","","","","","null","","","","Images/BlackBeadChoice.png","","null"
"image-button-response","289","379486","0.0-13.0-2.76","29","Low_HMMActual","","","","","","null","","","","Images/BlackBeadChoiceWrong.png","","null"
"image-button-response","290","379980","0.0-13.0-0.77","29","Low_HMMActual","","","","","","493.39999997615814","","","","Images/NewTrialWC.png","","2"
"image-button-response","291","380282","0.0-13.0-1.77","29","Low_HMMActual","","","","","","null","","","","Images/WhiteBeadChoice.png","","null"
"image-button-response","292","380785","0.0-13.0-2.77","29","Low_HMMActual","","","","","","null","","","","Images/WhiteBeadChoiceCorrect.png","","null"
"image-button-response","293","380976","0.0-13.0-0.78","29","Low_HMMActual","","","","","","189.60000002384186","","","","Images/NewTrialWC.png","","2"
"image-button-response","294","381278","0.0-13.0-1.78","29","Low_HMMActual","","","","","","null","","","","Images/WhiteBeadChoice.png","","null"
"image-button-response","295","381781","0.0-13.0-2.78","29","Low_HMMActual","","","","","","null","","","","Images/WhiteBeadChoiceWrong.png","","null"
"image-button-response","296","382284","0.0-13.0-0.79","29","Low_HMMActual","","","","","","502.19999998807907","","","","Images/NewTrialBC.png","","0"
"image-button-response","297","382587","0.0-13.0-1.79","29","Low_HMMActual","","","","","","null","","","","Images/BlackBeadChoice.png","","null"
"image-button-response","298","383090","0.0-13.0-2.79","29","Low_HMMActual","","","","","","null","","","","Images/BlackBeadChoiceCorrect.png","","null"
"image-button-response","299","383360","0.0-13.0-0.80","29","Low_HMMActual","","","","","","264.69999998807907","","","","Images/NewTrialBC.png","","0"
"image-button-response","300","383662","0.0-13.0-1.80","29","Low_HMMActual","","","","","","null","","","","Images/BlackBeadChoice.png","","null"
"image-button-response","301","384165","0.0-13.0-2.80","29","Low_HMMActual","","","","","","null","","","","Images/BlackBeadChoiceCorrect.png","","null"
"image-button-response","302","384397","0.0-13.0-0.81","29","Low_HMMActual","","","","","","230.89999997615814","","","","Images/NewTrialBC.png","","0"
"image-button-response","303","384698","0.0-13.0-1.81","29","Low_HMMActual","","","","","","null","","","","Images/BlackBeadChoice.png","","null"
"image-button-response","304","385199","0.0-13.0-2.81","29","Low_HMMActual","","","","","","null","","","","Images/BlackBeadChoiceCorrect.png","","null"
"image-button-response","305","385426","0.0-13.0-0.82","29","Low_HMMActual","","","","","","224.70000004768372","","","","Images/NewTrialBC.png","","0"
"image-button-response","306","385728","0.0-13.0-1.82","29","Low_HMMActual","","","","","","null","","","","Images/BlackBeadChoice.png","","null"
"image-button-response","307","386234","0.0-13.0-2.82","29","Low_HMMActual","","","","","","null","","","","Images/BlackBeadChoiceCorrect.png","","null"
"image-button-response","308","386408","0.0-13.0-0.83","29","Low_HMMActual","","","","","","172.19999998807907","","","","Images/NewTrialBC.png","","0"
"image-button-response","309","386709","0.0-13.0-1.83","29","Low_HMMActual","","","","","","null","","","","Images/BlackBeadChoice.png","","null"
"image-button-response","310","387212","0.0-13.0-2.83","29","Low_HMMActual","","","","","","null","","","","Images/BlackBeadChoiceCorrect.png","","null"
"image-button-response","311","387390","0.0-13.0-0.84","29","Low_HMMActual","","","","","","174.4000000357628","","","","Images/NewTrialBC.png","","0"
"image-button-response","312","387692","0.0-13.0-1.84","29","Low_HMMActual","","","","","","null","","","","Images/BlackBeadChoice.png","","null"
"image-button-response","313","388195","0.0-13.0-2.84","29","Low_HMMActual","","","","","","null","","","","Images/BlackBeadChoiceWrong.png","","null"
"image-button-response","314","388709","0.0-13.0-0.85","29","Low_HMMActual","","","","","","513.6999999880791","","","","Images/NewTrialWC.png","","2"
"image-button-response","315","389010","0.0-13.0-1.85","29","Low_HMMActual","","","","","","null","","","","Images/WhiteBeadChoice.png","","null"
"image-button-response","316","389512","0.0-13.0-2.85","29","Low_HMMActual","","","","","","null","","","","Images/WhiteBeadChoiceCorrect.png","","null"
"image-button-response","317","390632","0.0-13.0-0.86","29","Low_HMMActual","","","","","","1116.800000011921","","","","Images/NewTrialWC.png","","2"
"image-button-response","318","390934","0.0-13.0-1.86","29","Low_HMMActual","","","","","","null","","","","Images/WhiteBeadChoice.png","","null"
"image-button-response","319","391436","0.0-13.0-2.86","29","Low_HMMActual","","","","","","null","","","","Images/WhiteBeadChoiceCorrect.png","","null"
"image-button-response","320","393049","0.0-13.0-0.87","29","Low_HMMActual","","","","","","1610.800000011921","","","","Images/NewTrialWC.png","","2"
"image-button-response","321","393350","0.0-13.0-1.87","29","Low_HMMActual","","","","","","null","","","","Images/WhiteBeadChoice.png","","null"
"image-button-response","322","393853","0.0-13.0-2.87","29","Low_HMMActual","","","","","","null","","","","Images/WhiteBeadChoiceCorrect.png","","null"
"image-button-response","323","394416","0.0-13.0-0.88","29","Low_HMMActual","","","","","","561.8000000119209","","","","Images/NewTrialWC.png","","2"
"image-button-response","324","394717","0.0-13.0-1.88","29","Low_HMMActual","","","","","","null","","","","Images/WhiteBeadChoice.png","","null"
"image-button-response","325","395220","0.0-13.0-2.88","29","Low_HMMActual","","","","","","null","","","","Images/WhiteBeadChoiceCorrect.png","","null"
"image-button-response","326","395613","0.0-13.0-0.89","29","Low_HMMActual","","","","","","390.69999998807907","","","","Images/NewTrialWC.png","","2"
"image-button-response","327","395919","0.0-13.0-1.89","29","Low_HMMActual","","","","","","null","","","","Images/WhiteBeadChoice.png","","null"
"image-button-response","328","396420","0.0-13.0-2.89","29","Low_HMMActual","","","","","","null","","","","Images/WhiteBeadChoiceWrong.png","","null"
"image-button-response","329","396972","0.0-13.0-0.90","29","Low_HMMActual","","","","","","550.8000000119209","","","","Images/NewTrialBC.png","","0"
"image-button-response","330","397275","0.0-13.0-1.90","29","Low_HMMActual","","","","","","null","","","","Images/BlackBeadChoice.png","","null"
"image-button-response","331","397776","0.0-13.0-2.90","29","Low_HMMActual","","","","","","null","","","","Images/BlackBeadChoiceWrong.png","","null"
"image-button-response","332","398270","0.0-13.0-0.91","29","Low_HMMActual","","","","","","493.60000002384186","","","","Images/NewTrialWC.png","","2"
"image-button-response","333","398573","0.0-13.0-1.91","29","Low_HMMActual","","","","","","null","","","","Images/WhiteBeadChoice.png","","null"
"image-button-response","334","399076","0.0-13.0-2.91","29","Low_HMMActual","","","","","","null","","","","Images/WhiteBeadChoiceCorrect.png","","null"
"image-button-response","335","399314","0.0-13.0-0.92","29","Low_HMMActual","","","","","","232.60000002384186","","","","Images/NewTrialWC.png","","2"
"image-button-response","336","399615","0.0-13.0-1.92","29","Low_HMMActual","","","","","","null","","","","Images/WhiteBeadChoice.png","","null"
"image-button-response","337","400132","0.0-13.0-2.92","29","Low_HMMActual","","","","","","null","","","","Images/WhiteBeadChoiceWrong.png","","null"
"image-button-response","338","400617","0.0-13.0-0.93","29","Low_HMMActual","","","","","","484.10000002384186","","","","Images/NewTrialBC.png","","0"
"image-button-response","339","400918","0.0-13.0-1.93","29","Low_HMMActual","","","","","","null","","","","Images/BlackBeadChoice.png","","null"
"image-button-response","340","401420","0.0-13.0-2.93","29","Low_HMMActual","","","","","","null","","","","Images/BlackBeadChoiceWrong.png","","null"
"image-button-response","341","401827","0.0-13.0-0.94","29","Low_HMMActual","","","","","","405.60000002384186","","","","Images/NewTrialWC.png","","2"
"image-button-response","342","402129","0.0-13.0-1.94","29","Low_HMMActual","","","","","","null","","","","Images/WhiteBeadChoice.png","","null"
"image-button-response","343","402631","0.0-13.0-2.94","29","Low_HMMActual","","","","","","null","","","","Images/WhiteBeadChoiceCorrect.png","","null"
"image-button-response","344","402845","0.0-13.0-0.95","29","Low_HMMActual","","","","","","200.10000002384186","","","","Images/NewTrialWC.png","","2"
"image-button-response","345","403147","0.0-13.0-1.95","29","Low_HMMActual","","","","","","null","","","","Images/WhiteBeadChoice.png","","null"
"image-button-response","346","403649","0.0-13.0-2.95","29","Low_HMMActual","","","","","","null","","","","Images/WhiteBeadChoiceCorrect.png","","null"
"image-button-response","347","404605","0.0-13.0-0.96","29","Low_HMMActual","","","","","","954.1999999880791","","","","Images/NewTrialWC.png","","2"
"image-button-response","348","404907","0.0-13.0-1.96","29","Low_HMMActual","","","","","","null","","","","Images/WhiteBeadChoice.png","","null"
"image-button-response","349","405408","0.0-13.0-2.96","29","Low_HMMActual","","","","","","null","","","","Images/WhiteBeadChoiceWrong.png","","null"
"image-button-response","350","408824","0.0-13.0-0.97","29","Low_HMMActual","","","","","","3415.5","","","","Images/NewTrialBC.png","","0"
"image-button-response","351","409127","0.0-13.0-1.97","29","Low_HMMActual","","","","","","null","","","","Images/BlackBeadChoice.png","","null"
"image-button-response","352","409629","0.0-13.0-2.97","29","Low_HMMActual","","","","","","null","","","","Images/BlackBeadChoiceCorrect.png","","null"
"image-button-response","353","409745","0.0-13.0-0.98","29","Low_HMMActual","","","","","","115.10000002384186","","","","Images/NewTrialBC.png","","0"
"image-button-response","354","410047","0.0-13.0-1.98","29","Low_HMMActual","","","","","","null","","","","Images/BlackBeadChoice.png","","null"
"image-button-response","355","410549","0.0-13.0-2.98","29","Low_HMMActual","","","","","","null","","","","Images/BlackBeadChoiceCorrect.png","","null"
"image-button-response","356","412202","0.0-13.0-0.99","29","Low_HMMActual","","","","","","1651.1000000238419","","","","Images/NewTrialBC.png","","0"
"image-button-response","357","412504","0.0-13.0-1.99","29","Low_HMMActual","","","","","","null","","","","Images/BlackBeadChoice.png","","null"
"image-button-response","358","413006","0.0-13.0-2.99","29","Low_HMMActual","","","","","","null","","","","Images/BlackBeadChoiceWrong.png","","null"
"image-button-response","359","413319","0.0-13.0-0.100","29","Low_HMMActual","","","","","","311.5","","","","Images/NewTrialWC.png","","2"
"image-button-response","360","413620","0.0-13.0-1.100","29","Low_HMMActual","","","","","","null","","","","Images/WhiteBeadChoice.png","","null"
"image-button-response","361","414122","0.0-13.0-2.100","29","Low_HMMActual","","","","","","null","","","","Images/WhiteBeadChoiceWrong.png","","null"
"image-button-response","362","414383","0.0-13.0-0.101","29","Low_HMMActual","","","","","","259.30000001192093","","","","Images/NewTrialBC.png","","0"
"image-button-response","363","414684","0.0-13.0-1.101","29","Low_HMMActual","","","","","","null","","","","Images/BlackBeadChoice.png","","null"
"image-button-response","364","415188","0.0-13.0-2.101","29","Low_HMMActual","","","","","","null","","","","Images/BlackBeadChoiceCorrect.png","","null"
"image-button-response","365","415273","0.0-13.0-0.102","29","Low_HMMActual","","","","","","83.09999996423721","","","","Images/NewTrialBC.png","","0"
"image-button-response","366","415575","0.0-13.0-1.102","29","Low_HMMActual","","","","","","null","","","","Images/BlackBeadChoice.png","","null"
"image-button-response","367","416078","0.0-13.0-2.102","29","Low_HMMActual","","","","","","null","","","","Images/BlackBeadChoiceWrong.png","","null"
"image-button-response","368","418479","0.0-13.0-0.103","29","Low_HMMActual","","","","","","2400.099999964237","","","","Images/NewTrialWC.png","","2"
"image-button-response","369","418781","0.0-13.0-1.103","29","Low_HMMActual","","","","","","null","","","","Images/WhiteBeadChoice.png","","null"
"image-button-response","370","419283","0.0-13.0-2.103","29","Low_HMMActual","","","","","","null","","","","Images/WhiteBeadChoiceWrong.png","","null"
"image-button-response","371","419584","0.0-13.0-0.104","29","Low_HMMActual","","","","","","300.5","","","","Images/NewTrialBC.png","","0"
"image-button-response","372","419886","0.0-13.0-1.104","29","Low_HMMActual","","","","","","null","","","","Images/BlackBeadChoice.png","","null"
"image-button-response","373","420391","0.0-13.0-2.104","29","Low_HMMActual","","","","","","null","","","","Images/BlackBeadChoiceCorrect.png","","null"
"image-button-response","374","420534","0.0-13.0-0.105","29","Low_HMMActual","","","","","","140.60000002384186","","","","Images/NewTrialBC.png","","0"
"image-button-response","375","420836","0.0-13.0-1.105","29","Low_HMMActual","","","","","","null","","","","Images/BlackBeadChoice.png","","null"
"image-button-response","376","421338","0.0-13.0-2.105","29","Low_HMMActual","","","","","","null","","","","Images/BlackBeadChoiceWrong.png","","null"
"image-button-response","377","421737","0.0-13.0-0.106","29","Low_HMMActual","","","","","","398.0999999642372","","","","Images/NewTrialWC.png","","2"
"image-button-response","378","422038","0.0-13.0-1.106","29","Low_HMMActual","","","","","","null","","","","Images/WhiteBeadChoice.png","","null"
"image-button-response","379","422539","0.0-13.0-2.106","29","Low_HMMActual","","","","","","null","","","","Images/WhiteBeadChoiceCorrect.png","","null"
"image-button-response","380","422688","0.0-13.0-0.107","29","Low_HMMActual","","","","","","147.30000001192093","","","","Images/NewTrialWC.png","","2"
"image-button-response","381","422989","0.0-13.0-1.107","29","Low_HMMActual","","","","","","null","","","","Images/WhiteBeadChoice.png","","null"
"image-button-response","382","423491","0.0-13.0-2.107","29","Low_HMMActual","","","","","","null","","","","Images/WhiteBeadChoiceCorrect.png","","null"
"image-button-response","383","426956","0.0-13.0-0.108","29","Low_HMMActual","","","","","","3462.099999964237","","","","Images/NewTrialWC.png","","2"
"image-button-response","384","427258","0.0-13.0-1.108","29","Low_HMMActual","","","","","","null","","","","Images/WhiteBeadChoice.png","","null"
"image-button-response","385","427759","0.0-13.0-2.108","29","Low_HMMActual","","","","","","null","","","","Images/WhiteBeadChoiceCorrect.png","","null"
"image-button-response","386","430524","0.0-13.0-0.109","29","Low_HMMActual","","","","","","2764.599999964237","","","","Images/NewTrialWC.png","","2"
"image-button-response","387","430826","0.0-13.0-1.109","29","Low_HMMActual","","","","","","null","","","","Images/WhiteBeadChoice.png","","null"
"image-button-response","388","431327","0.0-13.0-2.109","29","Low_HMMActual","","","","","","null","","","","Images/WhiteBeadChoiceCorrect.png","","null"
"image-button-response","389","432563","0.0-13.0-0.110","29","Low_HMMActual","","","","","","1234.800000011921","","","","Images/NewTrialWC.png","","2"
"image-button-response","390","432866","0.0-13.0-1.110","29","Low_HMMActual","","","","","","null","","","","Images/WhiteBeadChoice.png","","null"
"image-button-response","391","433368","0.0-13.0-2.110","29","Low_HMMActual","","","","","","null","","","","Images/WhiteBeadChoiceWrong.png","","null"
"image-button-response","392","433823","0.0-13.0-0.111","29","Low_HMMActual","","","","","","454.10000002384186","","","","Images/NewTrialBC.png","","0"
"image-button-response","393","434125","0.0-13.0-1.111","29","Low_HMMActual","","","","","","null","","","","Images/BlackBeadChoice.png","","null"
"image-button-response","394","434634","0.0-13.0-2.111","29","Low_HMMActual","","","","","","null","","","","Images/BlackBeadChoiceCorrect.png","","null"
"image-button-response","395","434787","0.0-13.0-0.112","29","Low_HMMActual","","","","","","152.69999998807907","","","","Images/NewTrialBC.png","","0"
"image-button-response","396","435089","0.0-13.0-1.112","29","Low_HMMActual","","","","","","null","","","","Images/BlackBeadChoice.png","","null"
"image-button-response","397","435591","0.0-13.0-2.112","29","Low_HMMActual","","","","","","null","","","","Images/BlackBeadChoiceWrong.png","","null"
"image-button-response","398","436054","0.0-13.0-0.113","29","Low_HMMActual","","","","","","462.10000002384186","","","","Images/NewTrialWC.png","","2"
"image-button-response","399","436357","0.0-13.0-1.113","29","Low_HMMActual","","","","","","null","","","","Images/WhiteBeadChoice.png","","null"
"image-button-response","400","436863","0.0-13.0-2.113","29","Low_HMMActual","","","","","","null","","","","Images/WhiteBeadChoiceCorrect.png","","null"
"image-button-response","401","437392","0.0-13.0-0.114","29","Low_HMMActual","","","","","","526.8000000119209","","","","Images/NewTrialWC.png","","2"
"image-button-response","402","437693","0.0-13.0-1.114","29","Low_HMMActual","","","","","","null","","","","Images/WhiteBeadChoice.png","","null"
"image-button-response","403","438195","0.0-13.0-2.114","29","Low_HMMActual","","","","","","null","","","","Images/WhiteBeadChoiceCorrect.png","","null"
"image-button-response","404","438551","0.0-13.0-0.115","29","Low_HMMActual","","","","","","352.39999997615814","","","","Images/NewTrialWC.png","","2"
"image-button-response","405","438852","0.0-13.0-1.115","29","Low_HMMActual","","","","","","null","","","","Images/WhiteBeadChoice.png","","null"
"image-button-response","406","439355","0.0-13.0-2.115","29","Low_HMMActual","","","","","","null","","","","Images/WhiteBeadChoiceCorrect.png","","null"
"image-button-response","407","439486","0.0-13.0-0.116","29","Low_HMMActual","","","","","","128.29999995231628","","","","Images/NewTrialWC.png","","2"
"image-button-response","408","439787","0.0-13.0-1.116","29","Low_HMMActual","","","","","","null","","","","Images/WhiteBeadChoice.png","","null"
"image-button-response","409","440292","0.0-13.0-2.116","29","Low_HMMActual","","","","","","null","","","","Images/WhiteBeadChoiceCorrect.png","","null"
"image-button-response","410","440551","0.0-13.0-0.117","29","Low_HMMActual","","","","","","256.30000001192093","","","","Images/NewTrialWC.png","","2"
"image-button-response","411","440853","0.0-13.0-1.117","29","Low_HMMActual","","","","","","null","","","","Images/WhiteBeadChoice.png","","null"
"image-button-response","412","441356","0.0-13.0-2.117","29","Low_HMMActual","","","","","","null","","","","Images/WhiteBeadChoiceCorrect.png","","null"
"image-button-response","413","441665","0.0-13.0-0.118","29","Low_HMMActual","","","","","","308.4000000357628","","","","Images/NewTrialWC.png","","2"
"image-button-response","414","441967","0.0-13.0-1.118","29","Low_HMMActual","","","","","","null","","","","Images/WhiteBeadChoice.png","","null"
"image-button-response","415","442471","0.0-13.0-2.118","29","Low_HMMActual","","","","","","null","","","","Images/WhiteBeadChoiceCorrect.png","","null"
"image-button-response","416","442795","0.0-13.0-0.119","29","Low_HMMActual","","","","","","313.19999998807907","","","","Images/NewTrialWC.png","","2"
"image-button-response","417","443097","0.0-13.0-1.119","29","Low_HMMActual","","","","","","null","","","","Images/WhiteBeadChoice.png","","null"
"image-button-response","418","443600","0.0-13.0-2.119","29","Low_HMMActual","","","","","","null","","","","Images/WhiteBeadChoiceWrong.png","","null"
"image-button-response","419","444296","0.0-13.0-0.120","29","Low_HMMActual","","","","","","694.8000000119209","","","","Images/NewTrialBC.png","","0"
"image-button-response","420","444597","0.0-13.0-1.120","29","Low_HMMActual","","","","","","null","","","","Images/BlackBeadChoice.png","","null"
"image-button-response","421","445099","0.0-13.0-2.120","29","Low_HMMActual","","","","","","null","","","","Images/BlackBeadChoiceWrong.png","","null"
"image-button-response","422","445514","0.0-13.0-0.121","29","Low_HMMActual","","","","","","412.0999999642372","","","","Images/NewTrialWC.png","","2"
"image-button-response","423","445816","0.0-13.0-1.121","29","Low_HMMActual","","","","","","null","","","","Images/WhiteBeadChoice.png","","null"
"image-button-response","424","446319","0.0-13.0-2.121","29","Low_HMMActual","","","","","","null","","","","Images/WhiteBeadChoiceWrong.png","","null"
"image-button-response","425","446786","0.0-13.0-0.122","29","Low_HMMActual","","","","","","466.19999998807907","","","","Images/NewTrialBC.png","","0"
"image-button-response","426","447088","0.0-13.0-1.122","29","Low_HMMActual","","","","","","null","","","","Images/BlackBeadChoice.png","","null"
"image-button-response","427","447591","0.0-13.0-2.122","29","Low_HMMActual","","","","","","null","","","","Images/BlackBeadChoiceWrong.png","","null"
"image-button-response","428","451357","0.0-13.0-0.123","29","Low_HMMActual","","","","","","3764.699999988079","","","","Images/NewTrialWC.png","","2"
"image-button-response","429","451659","0.0-13.0-1.123","29","Low_HMMActual","","","","","","null","","","","Images/WhiteBeadChoice.png","","null"
"image-button-response","430","452162","0.0-13.0-2.123","29","Low_HMMActual","","","","","","null","","","","Images/WhiteBeadChoiceWrong.png","","null"
"image-button-response","431","452455","0.0-13.0-0.124","29","Low_HMMActual","","","","","","291.30000001192093","","","","Images/NewTrialBC.png","","0"
"image-button-response","432","452757","0.0-13.0-1.124","29","Low_HMMActual","","","","","","null","","","","Images/BlackBeadChoice.png","","null"
"image-button-response","433","453259","0.0-13.0-2.124","29","Low_HMMActual","","","","","","null","","","","Images/BlackBeadChoiceCorrect.png","","null"
"image-button-response","434","453976","0.0-13.0-0.125","29","Low_HMMActual","","","","","","716.3000000119209","","","","Images/NewTrialBC.png","","0"
"image-button-response","435","454278","0.0-13.0-1.125","29","Low_HMMActual","","","","","","null","","","","Images/BlackBeadChoice.png","","null"
"image-button-response","436","454780","0.0-13.0-2.125","29","Low_HMMActual","","","","","","null","","","","Images/BlackBeadChoiceWrong.png","","null"
"image-button-response","437","455178","0.0-13.0-0.126","29","Low_HMMActual","","","","","","396.39999997615814","","","","Images/NewTrialWC.png","","2"
"image-button-response","438","455479","0.0-13.0-1.126","29","Low_HMMActual","","","","","","null","","","","Images/WhiteBeadChoice.png","","null"
"image-button-response","439","455981","0.0-13.0-2.126","29","Low_HMMActual","","","","","","null","","","","Images/WhiteBeadChoiceCorrect.png","","null"
"image-button-response","440","456056","0.0-13.0-0.127","29","Low_HMMActual","","","","","","73.10000002384186","","","","Images/NewTrialWC.png","","2"
"image-button-response","441","456358","0.0-13.0-1.127","29","Low_HMMActual","","","","","","null","","","","Images/WhiteBeadChoice.png","","null"
"image-button-response","442","456860","0.0-13.0-2.127","29","Low_HMMActual","","","","","","null","","","","Images/WhiteBeadChoiceCorrect.png","","null"
"image-button-response","443","457246","0.0-13.0-0.128","29","Low_HMMActual","","","","","","384.69999998807907","","","","Images/NewTrialWC.png","","2"
"image-button-response","444","457548","0.0-13.0-1.128","29","Low_HMMActual","","","","","","null","","","","Images/WhiteBeadChoice.png","","null"
"image-button-response","445","458051","0.0-13.0-2.128","29","Low_HMMActual","","","","","","null","","","","Images/WhiteBeadChoiceCorrect.png","","null"
"image-button-response","446","458168","0.0-13.0-0.129","29","Low_HMMActual","","","","","","115.5","","","","Images/NewTrialWC.png","","2"
"image-button-response","447","458474","0.0-13.0-1.129","29","Low_HMMActual","","","","","","null","","","","Images/WhiteBeadChoice.png","","null"
"image-button-response","448","458977","0.0-13.0-2.129","29","Low_HMMActual","","","","","","null","","","","Images/WhiteBeadChoiceWrong.png","","null"
"image-button-response","449","459244","0.0-13.0-0.130","29","Low_HMMActual","","","","","","265.69999998807907","","","","Images/NewTrialBC.png","","0"
"image-button-response","450","459546","0.0-13.0-1.130","29","Low_HMMActual","","","","","","null","","","","Images/BlackBeadChoice.png","","null"
"image-button-response","451","460048","0.0-13.0-2.130","29","Low_HMMActual","","","","","","null","","","","Images/BlackBeadChoiceWrong.png","","null"
"image-button-response","452","460426","0.0-13.0-0.131","29","Low_HMMActual","","","","","","376.69999998807907","","","","Images/NewTrialWC.png","","2"
"image-button-response","453","460728","0.0-13.0-1.131","29","Low_HMMActual","","","","","","null","","","","Images/WhiteBeadChoice.png","","null"
"image-button-response","454","461230","0.0-13.0-2.131","29","Low_HMMActual","","","","","","399.5","","","","Images/WhiteBeadChoiceCorrect.png","","2"
"image-button-response","455","461644","0.0-13.0-0.132","29","Low_HMMActual","","","","","","412.9000000357628","","","","Images/NewTrialWC.png","","2"
"image-button-response","456","461946","0.0-13.0-1.132","29","Low_HMMActual","","","","","","null","","","","Images/WhiteBeadChoice.png","","null"
"image-button-response","457","462449","0.0-13.0-2.132","29","Low_HMMActual","","","","","","null","","","","Images/WhiteBeadChoiceCorrect.png","","null"
"image-button-response","458","462603","0.0-13.0-0.133","29","Low_HMMActual","","","","","","151.79999995231628","","","","Images/NewTrialWC.png","","2"
"image-button-response","459","462905","0.0-13.0-1.133","29","Low_HMMActual","","","","","","null","","","","Images/WhiteBeadChoice.png","","null"
"image-button-response","460","463408","0.0-13.0-2.133","29","Low_HMMActual","","","","","","null","","","","Images/WhiteBeadChoiceCorrect.png","","null"
"image-button-response","461","463837","0.0-13.0-0.134","29","Low_HMMActual","","","","","","426.89999997615814","","","","Images/NewTrialWC.png","","2"
"image-button-response","462","464139","0.0-13.0-1.134","29","Low_HMMActual","","","","","","null","","","","Images/WhiteBeadChoice.png","","null"
"image-button-response","463","464641","0.0-13.0-2.134","29","Low_HMMActual","","","","","","null","","","","Images/WhiteBeadChoiceCorrect.png","","null"
"image-button-response","464","464799","0.0-13.0-0.135","29","Low_HMMActual","","","","","","155.60000002384186","","","","Images/NewTrialWC.png","","2"
"image-button-response","465","465101","0.0-13.0-1.135","29","Low_HMMActual","","","","","","null","","","","Images/WhiteBeadChoice.png","","null"
"image-button-response","466","465604","0.0-13.0-2.135","29","Low_HMMActual","","","","","","null","","","","Images/WhiteBeadChoiceCorrect.png","","null"
"image-button-response","467","466102","0.0-13.0-0.136","29","Low_HMMActual","","","","","","496.19999998807907","","","","Images/NewTrialWC.png","","2"
"image-button-response","468","466404","0.0-13.0-1.136","29","Low_HMMActual","","","","","","null","","","","Images/WhiteBeadChoice.png","","null"
"image-button-response","469","466906","0.0-13.0-2.136","29","Low_HMMActual","","","","","","null","","","","Images/WhiteBeadChoiceWrong.png","","null"
"image-button-response","470","467371","0.0-13.0-0.137","29","Low_HMMActual","","","","","","464.10000002384186","","","","Images/NewTrialBC.png","","0"
"image-button-response","471","467672","0.0-13.0-1.137","29","Low_HMMActual","","","","","","null","","","","Images/BlackBeadChoice.png","","null"
"image-button-response","472","468174","0.0-13.0-2.137","29","Low_HMMActual","","","","","","null","","","","Images/BlackBeadChoiceCorrect.png","","null"
"image-button-response","473","468515","0.0-13.0-0.138","29","Low_HMMActual","","","","","","338.9000000357628","","","","Images/NewTrialBC.png","","0"
"image-button-response","474","468819","0.0-13.0-1.138","29","Low_HMMActual","","","","","","null","","","","Images/BlackBeadChoice.png","","null"
"image-button-response","475","469322","0.0-13.0-2.138","29","Low_HMMActual","","","","","","null","","","","Images/BlackBeadChoiceCorrect.png","","null"
"image-button-response","476","469766","0.0-13.0-0.139","29","Low_HMMActual","","","","","","441.9000000357628","","","","Images/NewTrialBC.png","","0"
"image-button-response","477","470068","0.0-13.0-1.139","29","Low_HMMActual","","","","","","null","","","","Images/BlackBeadChoice.png","","null"
"image-button-response","478","470571","0.0-13.0-2.139","29","Low_HMMActual","","","","","","null","","","","Images/BlackBeadChoiceCorrect.png","","null"
"image-button-response","479","470728","0.0-13.0-0.140","29","Low_HMMActual","","","","","","156","","","","Images/NewTrialBC.png","","0"
"image-button-response","480","471030","0.0-13.0-1.140","29","Low_HMMActual","","","","","","null","","","","Images/BlackBeadChoice.png","","null"
"image-button-response","481","471533","0.0-13.0-2.140","29","Low_HMMActual","","","","","","null","","","","Images/BlackBeadChoiceCorrect.png","","null"
"image-button-response","482","471666","0.0-13.0-0.141","29","Low_HMMActual","","","","","","131","","","","Images/NewTrialBC.png","","0"
"image-button-response","483","471968","0.0-13.0-1.141","29","Low_HMMActual","","","","","","null","","","","Images/BlackBeadChoice.png","","null"
"image-button-response","484","472472","0.0-13.0-2.141","29","Low_HMMActual","","","","","","null","","","","Images/BlackBeadChoiceWrong.png","","null"
"image-button-response","485","472933","0.0-13.0-0.142","29","Low_HMMActual","","","","","","459.39999997615814","","","","Images/NewTrialWC.png","","2"
"image-button-response","486","473234","0.0-13.0-1.142","29","Low_HMMActual","","","","","","null","","","","Images/WhiteBeadChoice.png","","null"
"image-button-response","487","473738","0.0-13.0-2.142","29","Low_HMMActual","","","","","","null","","","","Images/WhiteBeadChoiceWrong.png","","null"
"image-button-response","488","474131","0.0-13.0-0.143","29","Low_HMMActual","","","","","","392.69999998807907","","","","Images/NewTrialBC.png","","0"
"image-button-response","489","474433","0.0-13.0-1.143","29","Low_HMMActual","","","","","","null","","","","Images/BlackBeadChoice.png","","null"
"image-button-response","490","474936","0.0-13.0-2.143","29","Low_HMMActual","","","","","","null","","","","Images/BlackBeadChoiceCorrect.png","","null"
"image-button-response","491","475469","0.0-13.0-0.144","29","Low_HMMActual","","","","","","530.8999999761581","","","","Images/NewTrialBC.png","","0"
"image-button-response","492","475774","0.0-13.0-1.144","29","Low_HMMActual","","","","","","null","","","","Images/BlackBeadChoice.png","","null"
"image-button-response","493","476275","0.0-13.0-2.144","29","Low_HMMActual","","","","","","null","","","","Images/BlackBeadChoiceCorrect.png","","null"
"image-button-response","494","476515","0.0-13.0-0.145","29","Low_HMMActual","","","","","","237.4000000357628","","","","Images/NewTrialBC.png","","0"
"image-button-response","495","476816","0.0-13.0-1.145","29","Low_HMMActual","","","","","","null","","","","Images/BlackBeadChoice.png","","null"
"image-button-response","496","477327","0.0-13.0-2.145","29","Low_HMMActual","","","","","","null","","","","Images/BlackBeadChoiceWrong.png","","null"
"image-button-response","497","477737","0.0-13.0-0.146","29","Low_HMMActual","","","","","","408.80000001192093","","","","Images/NewTrialWC.png","","2"
"image-button-response","498","478038","0.0-13.0-1.146","29","Low_HMMActual","","","","","","null","","","","Images/WhiteBeadChoice.png","","null"
"image-button-response","499","478540","0.0-13.0-2.146","29","Low_HMMActual","","","","","","null","","","","Images/WhiteBeadChoiceWrong.png","","null"
"image-button-response","500","478819","0.0-13.0-0.147","29","Low_HMMActual","","","","","","278.7000000476837","","","","Images/NewTrialBC.png","","0"
"image-button-response","501","479123","0.0-13.0-1.147","29","Low_HMMActual","","","","","","null","","","","Images/BlackBeadChoice.png","","null"
"image-button-response","502","479625","0.0-13.0-2.147","29","Low_HMMActual","","","","","","null","","","","Images/BlackBeadChoiceCorrect.png","","null"
"image-button-response","503","479903","0.0-13.0-0.148","29","Low_HMMActual","","","","","","277.4000000357628","","","","Images/NewTrialBC.png","","0"
"image-button-response","504","480206","0.0-13.0-1.148","29","Low_HMMActual","","","","","","null","","","","Images/BlackBeadChoice.png","","null"
"image-button-response","505","480708","0.0-13.0-2.148","29","Low_HMMActual","","","","","","null","","","","Images/BlackBeadChoiceWrong.png","","null"
"image-button-response","506","481156","0.0-13.0-0.149","29","Low_HMMActual","","","","","","446.30000001192093","","","","Images/NewTrialWC.png","","2"
"image-button-response","507","481458","0.0-13.0-1.149","29","Low_HMMActual","","","","","","null","","","","Images/WhiteBeadChoice.png","","null"
"image-button-response","508","481960","0.0-13.0-2.149","29","Low_HMMActual","","","","","","null","","","","Images/WhiteBeadChoiceCorrect.png","","null"
"image-button-response","509","482479","0.0-13.0-0.150","29","Low_HMMActual","","","","","","517.5","","","","Images/NewTrialWC.png","","2"
"image-button-response","510","482782","0.0-13.0-1.150","29","Low_HMMActual","","","","","","null","","","","Images/WhiteBeadChoice.png","","null"
"image-button-response","511","483284","0.0-13.0-2.150","29","Low_HMMActual","","","","","","null","","","","Images/WhiteBeadChoiceCorrect.png","","null"
"image-button-response","512","483380","0.0-13.0-0.151","29","Low_HMMActual","","","","","","93.69999998807907","","","","Images/NewTrialWC.png","","2"
"image-button-response","513","483682","0.0-13.0-1.151","29","Low_HMMActual","","","","","","null","","","","Images/WhiteBeadChoice.png","","null"
"image-button-response","514","484191","0.0-13.0-2.151","29","Low_HMMActual","","","","","","null","","","","Images/WhiteBeadChoiceWrong.png","","null"
"image-button-response","515","484691","0.0-13.0-0.152","29","Low_HMMActual","","","","","","499.0999999642372","","","","Images/NewTrialBC.png","","0"
"image-button-response","516","484992","0.0-13.0-1.152","29","Low_HMMActual","","","","","","null","","","","Images/BlackBeadChoice.png","","null"
"image-button-response","517","485494","0.0-13.0-2.152","29","Low_HMMActual","","","","","","null","","","","Images/BlackBeadChoiceCorrect.png","","null"
"image-button-response","518","485835","0.0-13.0-0.153","29","Low_HMMActual","","","","","","340.5","","","","Images/NewTrialBC.png","","0"
"image-button-response","519","486138","0.0-13.0-1.153","29","Low_HMMActual","","","","","","null","","","","Images/BlackBeadChoice.png","","null"
"image-button-response","520","486642","0.0-13.0-2.153","29","Low_HMMActual","","","","","","null","","","","Images/BlackBeadChoiceCorrect.png","","null"
"image-button-response","521","486842","0.0-13.0-0.154","29","Low_HMMActual","","","","","","198.80000001192093","","","","Images/NewTrialBC.png","","0"
"image-button-response","522","487145","0.0-13.0-1.154","29","Low_HMMActual","","","","","","null","","","","Images/BlackBeadChoice.png","","null"
"image-button-response","523","487647","0.0-13.0-2.154","29","Low_HMMActual","","","","","","null","","","","Images/BlackBeadChoiceCorrect.png","","null"
"image-button-response","524","487899","0.0-13.0-0.155","29","Low_HMMActual","","","","","","240.60000002384186","","","","Images/NewTrialBC.png","","0"
"image-button-response","525","488200","0.0-13.0-1.155","29","Low_HMMActual","","","","","","null","","","","Images/BlackBeadChoice.png","","null"
"image-button-response","526","488703","0.0-13.0-2.155","29","Low_HMMActual","","","","","","null","","","","Images/BlackBeadChoiceWrong.png","","null"
"image-button-response","527","489149","0.0-13.0-0.156","29","Low_HMMActual","","","","","","445.80000001192093","","","","Images/NewTrialWC.png","","2"
"image-button-response","528","489452","0.0-13.0-1.156","29","Low_HMMActual","","","","","","null","","","","Images/WhiteBeadChoice.png","","null"
"image-button-response","529","489956","0.0-13.0-2.156","29","Low_HMMActual","","","","","","null","","","","Images/WhiteBeadChoiceWrong.png","","null"
"image-button-response","530","490414","0.0-13.0-0.157","29","Low_HMMActual","","","","","","457","","","","Images/NewTrialBC.png","","0"
"image-button-response","531","490716","0.0-13.0-1.157","29","Low_HMMActual","","","","","","null","","","","Images/BlackBeadChoice.png","","null"
"image-button-response","532","491218","0.0-13.0-2.157","29","Low_HMMActual","","","","","","null","","","","Images/BlackBeadChoiceCorrect.png","","null"
"image-button-response","533","491773","0.0-13.0-0.158","29","Low_HMMActual","","","","","","552","","","","Images/NewTrialBC.png","","0"
"image-button-response","534","492084","0.0-13.0-1.158","29","Low_HMMActual","","","","","","null","","","","Images/BlackBeadChoice.png","","null"
"image-button-response","535","492586","0.0-13.0-2.158","29","Low_HMMActual","","","","","","null","","","","Images/BlackBeadChoiceWrong.png","","null"
"image-button-response","536","492954","0.0-13.0-0.159","29","Low_HMMActual","","","","","","366.10000002384186","","","","Images/NewTrialWC.png","","2"
"image-button-response","537","493256","0.0-13.0-1.159","29","Low_HMMActual","","","","","","null","","","","Images/WhiteBeadChoice.png","","null"
"image-button-response","538","493757","0.0-13.0-2.159","29","Low_HMMActual","","","","","","null","","","","Images/WhiteBeadChoiceCorrect.png","","null"
"image-button-response","539","494141","0.0-13.0-0.160","29","Low_HMMActual","","","","","","382.30000001192093","","","","Images/NewTrialWC.png","","2"
"image-button-response","540","494444","0.0-13.0-1.160","29","Low_HMMActual","","","","","","null","","","","Images/WhiteBeadChoice.png","","null"
"image-button-response","541","494946","0.0-13.0-2.160","29","Low_HMMActual","","","","","","null","","","","Images/WhiteBeadChoiceCorrect.png","","null"
"image-button-response","542","495141","0.0-13.0-0.161","29","Low_HMMActual","","","","","","192","","","","Images/NewTrialWC.png","","2"
"image-button-response","543","495452","0.0-13.0-1.161","29","Low_HMMActual","","","","","","null","","","","Images/WhiteBeadChoice.png","","null"
"image-button-response","544","495954","0.0-13.0-2.161","29","Low_HMMActual","","","","","","null","","","","Images/WhiteBeadChoiceWrong.png","","null"
"image-button-response","545","496381","0.0-13.0-0.162","29","Low_HMMActual","","","","","","425.5","","","","Images/NewTrialBC.png","","0"
"image-button-response","546","496683","0.0-13.0-1.162","29","Low_HMMActual","","","","","","null","","","","Images/BlackBeadChoice.png","","null"
"image-button-response","547","497185","0.0-13.0-2.162","29","Low_HMMActual","","","","","","null","","","","Images/BlackBeadChoiceCorrect.png","","null"
"image-button-response","548","497488","0.0-13.0-0.163","29","Low_HMMActual","","","","","","302.4000000357628","","","","Images/NewTrialBC.png","","0"
"image-button-response","549","497792","0.0-13.0-1.163","29","Low_HMMActual","","","","","","null","","","","Images/BlackBeadChoice.png","","null"
"image-button-response","550","498295","0.0-13.0-2.163","29","Low_HMMActual","","","","","","null","","","","Images/BlackBeadChoiceWrong.png","","null"
"image-button-response","551","499238","0.0-13.0-0.164","29","Low_HMMActual","","","","","","940.3999999761581","","","","Images/NewTrialWC.png","","2"
"image-button-response","552","499540","0.0-13.0-1.164","29","Low_HMMActual","","","","","","null","","","","Images/WhiteBeadChoice.png","","null"
"image-button-response","553","500042","0.0-13.0-2.164","29","Low_HMMActual","","","","","","null","","","","Images/WhiteBeadChoiceCorrect.png","","null"
"image-button-response","554","500341","0.0-13.0-0.165","29","Low_HMMActual","","","","","","296.69999998807907","","","","Images/NewTrialWC.png","","2"
"image-button-response","555","500643","0.0-13.0-1.165","29","Low_HMMActual","","","","","","null","","","","Images/WhiteBeadChoice.png","","null"
"image-button-response","556","501146","0.0-13.0-2.165","29","Low_HMMActual","","","","","","null","","","","Images/WhiteBeadChoiceCorrect.png","","null"
"image-button-response","557","501403","0.0-13.0-0.166","29","Low_HMMActual","","","","","","255.20000004768372","","","","Images/NewTrialWC.png","","2"
"image-button-response","558","501705","0.0-13.0-1.166","29","Low_HMMActual","","","","","","null","","","","Images/WhiteBeadChoice.png","","null"
"image-button-response","559","502207","0.0-13.0-2.166","29","Low_HMMActual","","","","","","null","","","","Images/WhiteBeadChoiceCorrect.png","","null"
"image-button-response","560","502493","0.0-13.0-0.167","29","Low_HMMActual","","","","","","284.80000001192093","","","","Images/NewTrialWC.png","","2"
"image-button-response","561","502794","0.0-13.0-1.167","29","Low_HMMActual","","","","","","null","","","","Images/WhiteBeadChoice.png","","null"
"image-button-response","562","503298","0.0-13.0-2.167","29","Low_HMMActual","","","","","","null","","","","Images/WhiteBeadChoiceWrong.png","","null"
"image-button-response","563","503752","0.0-13.0-0.168","29","Low_HMMActual","","","","","","453.19999998807907","","","","Images/NewTrialBC.png","","0"
"image-button-response","564","504055","0.0-13.0-1.168","29","Low_HMMActual","","","","","","null","","","","Images/BlackBeadChoice.png","","null"
"image-button-response","565","504560","0.0-13.0-2.168","29","Low_HMMActual","","","","","","null","","","","Images/BlackBeadChoiceCorrect.png","","null"
"image-button-response","566","504823","0.0-13.0-0.169","29","Low_HMMActual","","","","","","260.80000001192093","","","","Images/NewTrialBC.png","","0"
"image-button-response","567","505126","0.0-13.0-1.169","29","Low_HMMActual","","","","","","null","","","","Images/BlackBeadChoice.png","","null"
"image-button-response","568","505629","0.0-13.0-2.169","29","Low_HMMActual","","","","","","null","","","","Images/BlackBeadChoiceCorrect.png","","null"
"image-button-response","569","505856","0.0-13.0-0.170","29","Low_HMMActual","","","","","","225.69999998807907","","","","Images/NewTrialBC.png","","0"
"image-button-response","570","506166","0.0-13.0-1.170","29","Low_HMMActual","","","","","","null","","","","Images/BlackBeadChoice.png","","null"
"image-button-response","571","506669","0.0-13.0-2.170","29","Low_HMMActual","","","","","","null","","","","Images/BlackBeadChoiceCorrect.png","","null"
"image-button-response","572","506948","0.0-13.0-0.171","29","Low_HMMActual","","","","","","276.89999997615814","","","","Images/NewTrialBC.png","","0"
"image-button-response","573","507250","0.0-13.0-1.171","29","Low_HMMActual","","","","","","null","","","","Images/BlackBeadChoice.png","","null"
"image-button-response","574","507754","0.0-13.0-2.171","29","Low_HMMActual","","","","","","null","","","","Images/BlackBeadChoiceCorrect.png","","null"
"image-button-response","575","508135","0.0-13.0-0.172","29","Low_HMMActual","","","","","","375.10000002384186","","","","Images/NewTrialBC.png","","0"
"image-button-response","576","508436","0.0-13.0-1.172","29","Low_HMMActual","","","","","","null","","","","Images/BlackBeadChoice.png","","null"
"image-button-response","577","508940","0.0-13.0-2.172","29","Low_HMMActual","","","","","","null","","","","Images/BlackBeadChoiceCorrect.png","","null"
"image-button-response","578","509248","0.0-13.0-0.173","29","Low_HMMActual","","","","","","306.19999998807907","","","","Images/NewTrialBC.png","","0"
"image-button-response","579","509550","0.0-13.0-1.173","29","Low_HMMActual","","","","","","null","","","","Images/BlackBeadChoice.png","","null"
"image-button-response","580","510053","0.0-13.0-2.173","29","Low_HMMActual","","","","","","null","","","","Images/BlackBeadChoiceCorrect.png","","null"
"image-button-response","581","510395","0.0-13.0-0.174","29","Low_HMMActual","","","","","","332.19999998807907","","","","Images/NewTrialBC.png","","0"
"image-button-response","582","510697","0.0-13.0-1.174","29","Low_HMMActual","","","","","","null","","","","Images/BlackBeadChoice.png","","null"
"image-button-response","583","511198","0.0-13.0-2.174","29","Low_HMMActual","","","","","","null","","","","Images/BlackBeadChoiceCorrect.png","","null"
"image-button-response","584","511420","0.0-13.0-0.175","29","Low_HMMActual","","","","","","219.39999997615814","","","","Images/NewTrialBC.png","","0"
"image-button-response","585","511723","0.0-13.0-1.175","29","Low_HMMActual","","","","","","null","","","","Images/BlackBeadChoice.png","","null"
"image-button-response","586","512225","0.0-13.0-2.175","29","Low_HMMActual","","","","","","null","","","","Images/BlackBeadChoiceCorrect.png","","null"
"image-button-response","587","512419","0.0-13.0-0.176","29","Low_HMMActual","","","","","","192.60000002384186","","","","Images/NewTrialBC.png","","0"
"image-button-response","588","512721","0.0-13.0-1.176","29","Low_HMMActual","","","","","","null","","","","Images/BlackBeadChoice.png","","null"
"image-button-response","589","513224","0.0-13.0-2.176","29","Low_HMMActual","","","","","","null","","","","Images/BlackBeadChoiceCorrect.png","","null"
"image-button-response","590","513406","0.0-13.0-0.177","29","Low_HMMActual","","","","","","180.60000002384186","","","","Images/NewTrialBC.png","","0"
"image-button-response","591","513708","0.0-13.0-1.177","29","Low_HMMActual","","","","","","null","","","","Images/BlackBeadChoice.png","","null"
"image-button-response","592","514211","0.0-13.0-2.177","29","Low_HMMActual","","","","","","null","","","","Images/BlackBeadChoiceWrong.png","","null"
"image-button-response","593","514776","0.0-13.0-0.178","29","Low_HMMActual","","","","","","564.6000000238419","","","","Images/NewTrialWC.png","","2"
"image-button-response","594","515079","0.0-13.0-1.178","29","Low_HMMActual","","","","","","null","","","","Images/WhiteBeadChoice.png","","null"
"image-button-response","595","515583","0.0-13.0-2.178","29","Low_HMMActual","","","","","","null","","","","Images/WhiteBeadChoiceCorrect.png","","null"
"image-button-response","596","515775","0.0-13.0-0.179","29","Low_HMMActual","","","","","","186.79999995231628","","","","Images/NewTrialWC.png","","2"
"image-button-response","597","516077","0.0-13.0-1.179","29","Low_HMMActual","","","","","","null","","","","Images/WhiteBeadChoice.png","","null"
"image-button-response","598","516579","0.0-13.0-2.179","29","Low_HMMActual","","","","","","null","","","","Images/WhiteBeadChoiceCorrect.png","","null"
"image-button-response","599","516826","0.0-13.0-0.180","29","Low_HMMActual","","","","","","243.80000001192093","","","","Images/NewTrialWC.png","","2"
"image-button-response","600","517127","0.0-13.0-1.180","29","Low_HMMActual","","","","","","null","","","","Images/WhiteBeadChoice.png","","null"
"image-button-response","601","517631","0.0-13.0-2.180","29","Low_HMMActual","","","","","","null","","","","Images/WhiteBeadChoiceCorrect.png","","null"
"image-button-response","602","517781","0.0-13.0-0.181","29","Low_HMMActual","","","","","","148","","","","Images/NewTrialWC.png","","2"
"image-button-response","603","518084","0.0-13.0-1.181","29","Low_HMMActual","","","","","","null","","","","Images/WhiteBeadChoice.png","","null"
"image-button-response","604","518586","0.0-13.0-2.181","29","Low_HMMActual","","","","","","null","","","","Images/WhiteBeadChoiceCorrect.png","","null"
"image-button-response","605","518748","0.0-13.0-0.182","29","Low_HMMActual","","","","","","158.30000001192093","","","","Images/NewTrialWC.png","","2"
"image-button-response","606","519050","0.0-13.0-1.182","29","Low_HMMActual","","","","","","null","","","","Images/WhiteBeadChoice.png","","null"
"image-button-response","607","519553","0.0-13.0-2.182","29","Low_HMMActual","","","","","","null","","","","Images/WhiteBeadChoiceCorrect.png","","null"
"image-button-response","608","519753","0.0-13.0-0.183","29","Low_HMMActual","","","","","","198","","","","Images/NewTrialWC.png","","2"
"image-button-response","609","520055","0.0-13.0-1.183","29","Low_HMMActual","","","","","","null","","","","Images/WhiteBeadChoice.png","","null"
"image-button-response","610","520558","0.0-13.0-2.183","29","Low_HMMActual","","","","","","null","","","","Images/WhiteBeadChoiceCorrect.png","","null"
"image-button-response","611","520779","0.0-13.0-0.184","29","Low_HMMActual","","","","","","219.30000001192093","","","","Images/NewTrialWC.png","","2"
"image-button-response","612","521082","0.0-13.0-1.184","29","Low_HMMActual","","","","","","null","","","","Images/WhiteBeadChoice.png","","null"
"image-button-response","613","521591","0.0-13.0-2.184","29","Low_HMMActual","","","","","","null","","","","Images/WhiteBeadChoiceCorrect.png","","null"
"image-button-response","614","521765","0.0-13.0-0.185","29","Low_HMMActual","","","","","","172.19999998807907","","","","Images/NewTrialWC.png","","2"
"image-button-response","615","522067","0.0-13.0-1.185","29","Low_HMMActual","","","","","","null","","","","Images/WhiteBeadChoice.png","","null"
"image-button-response","616","522570","0.0-13.0-2.185","29","Low_HMMActual","","","","","","null","","","","Images/WhiteBeadChoiceCorrect.png","","null"
"image-button-response","617","522902","0.0-13.0-0.186","29","Low_HMMActual","","","","","","325.89999997615814","","","","Images/NewTrialWC.png","","2"
"image-button-response","618","523204","0.0-13.0-1.186","29","Low_HMMActual","","","","","","null","","","","Images/WhiteBeadChoice.png","","null"
"image-button-response","619","523707","0.0-13.0-2.186","29","Low_HMMActual","","","","","","null","","","","Images/WhiteBeadChoiceWrong.png","","null"
"image-button-response","620","524219","0.0-13.0-0.187","29","Low_HMMActual","","","","","","511.10000002384186","","","","Images/NewTrialBC.png","","0"
"image-button-response","621","524521","0.0-13.0-1.187","29","Low_HMMActual","","","","","","null","","","","Images/BlackBeadChoice.png","","null"
"image-button-response","622","525022","0.0-13.0-2.187","29","Low_HMMActual","","","","","","null","","","","Images/BlackBeadChoiceWrong.png","","null"
"image-button-response","623","525452","0.0-13.0-0.188","29","Low_HMMActual","","","","","","428.80000001192093","","","","Images/NewTrialWC.png","","2"
"image-button-response","624","525754","0.0-13.0-1.188","29","Low_HMMActual","","","","","","null","","","","Images/WhiteBeadChoice.png","","null"
"image-button-response","625","526257","0.0-13.0-2.188","29","Low_HMMActual","","","","","","null","","","","Images/WhiteBeadChoiceCorrect.png","","null"
"image-button-response","626","526535","0.0-13.0-0.189","29","Low_HMMActual","","","","","","276.60000002384186","","","","Images/NewTrialWC.png","","2"
"image-button-response","627","526837","0.0-13.0-1.189","29","Low_HMMActual","","","","","","null","","","","Images/WhiteBeadChoice.png","","null"
"image-button-response","628","527339","0.0-13.0-2.189","29","Low_HMMActual","","","","","","null","","","","Images/WhiteBeadChoiceCorrect.png","","null"
"image-button-response","629","527607","0.0-13.0-0.190","29","Low_HMMActual","","","","","","266.80000001192093","","","","Images/NewTrialWC.png","","2"
"image-button-response","630","527915","0.0-13.0-1.190","29","Low_HMMActual","","","","","","null","","","","Images/WhiteBeadChoice.png","","null"
"image-button-response","631","528418","0.0-13.0-2.190","29","Low_HMMActual","","","","","","null","","","","Images/WhiteBeadChoiceCorrect.png","","null"
"image-button-response","632","528803","0.0-13.0-0.191","29","Low_HMMActual","","","","","","382","","","","Images/NewTrialWC.png","","2"
"image-button-response","633","529106","0.0-13.0-1.191","29","Low_HMMActual","","","","","","null","","","","Images/WhiteBeadChoice.png","","null"
"image-button-response","634","529608","0.0-13.0-2.191","29","Low_HMMActual","","","","","","null","","","","Images/WhiteBeadChoiceWrong.png","","null"
"image-button-response","635","530360","0.0-13.0-0.192","29","Low_HMMActual","","","","","","750","","","","Images/NewTrialBC.png","","0"
"image-button-response","636","530663","0.0-13.0-1.192","29","Low_HMMActual","","","","","","null","","","","Images/BlackBeadChoice.png","","null"
"image-button-response","637","531164","0.0-13.0-2.192","29","Low_HMMActual","","","","","","null","","","","Images/BlackBeadChoiceWrong.png","","null"
"image-button-response","638","531735","0.0-13.0-0.193","29","Low_HMMActual","","","","","","569.3000000119209","","","","Images/NewTrialWC.png","","2"
"image-button-response","639","532036","0.0-13.0-1.193","29","Low_HMMActual","","","","","","null","","","","Images/WhiteBeadChoice.png","","null"
"image-button-response","640","532538","0.0-13.0-2.193","29","Low_HMMActual","","","","","","null","","","","Images/WhiteBeadChoiceCorrect.png","","null"
"image-button-response","641","533773","0.0-13.0-0.194","29","Low_HMMActual","","","","","","1232.8999999761581","","","","Images/NewTrialWC.png","","2"
"image-button-response","642","534076","0.0-13.0-1.194","29","Low_HMMActual","","","","","","null","","","","Images/WhiteBeadChoice.png","","null"
"image-button-response","643","534579","0.0-13.0-2.194","29","Low_HMMActual","","","","","","null","","","","Images/WhiteBeadChoiceCorrect.png","","null"
"image-button-response","644","535496","0.0-13.0-0.195","29","Low_HMMActual","","","","","","915.1999999880791","","","","Images/NewTrialWC.png","","2"
"image-button-response","645","535798","0.0-13.0-1.195","29","Low_HMMActual","","","","","","null","","","","Images/WhiteBeadChoice.png","","null"
"image-button-response","646","536310","0.0-13.0-2.195","29","Low_HMMActual","","","","","","null","","","","Images/WhiteBeadChoiceCorrect.png","","null"
"image-button-response","647","538729","0.0-13.0-0.196","29","Low_HMMActual","","","","","","2417.900000035763","","","","Images/NewTrialWC.png","","2"
"image-button-response","648","539032","0.0-13.0-1.196","29","Low_HMMActual","","","","","","null","","","","Images/WhiteBeadChoice.png","","null"
"image-button-response","649","539535","0.0-13.0-2.196","29","Low_HMMActual","","","","","","null","","","","Images/WhiteBeadChoiceCorrect.png","","null"
"image-button-response","650","539876","0.0-13.0-0.197","29","Low_HMMActual","","","","","","338.80000001192093","","","","Images/NewTrialWC.png","","2"
"image-button-response","651","540180","0.0-13.0-1.197","29","Low_HMMActual","","","","","","null","","","","Images/WhiteBeadChoice.png","","null"
"image-button-response","652","540681","0.0-13.0-2.197","29","Low_HMMActual","","","","","","null","","","","Images/WhiteBeadChoiceWrong.png","","null"
"image-button-response","653","541110","0.0-13.0-0.198","29","Low_HMMActual","","","","","","428.69999998807907","","","","Images/NewTrialBC.png","","0"
"image-button-response","654","541412","0.0-13.0-1.198","29","Low_HMMActual","","","","","","null","","","","Images/BlackBeadChoice.png","","null"
"image-button-response","655","541914","0.0-13.0-2.198","29","Low_HMMActual","","","","","","null","","","","Images/BlackBeadChoiceCorrect.png","","null"
"image-button-response","656","542260","0.0-13.0-0.199","29","Low_HMMActual","","","","","","343.69999998807907","","","","Images/NewTrialBC.png","","0"
"image-button-response","657","542562","0.0-13.0-1.199","29","Low_HMMActual","","","","","","null","","","","Images/BlackBeadChoice.png","","null"
"image-button-response","658","543063","0.0-13.0-2.199","29","Low_HMMActual","","","","","","null","","","","Images/BlackBeadChoiceCorrect.png","","null"
"image-button-response","659","543298","0.0-13.0-0.200","29","Low_HMMActual","","","","","","231.69999998807907","","","","Images/NewTrialBC.png","","0"
"image-button-response","660","543600","0.0-13.0-1.200","29","Low_HMMActual","","","","","","null","","","","Images/BlackBeadChoice.png","","null"
"image-button-response","661","544104","0.0-13.0-2.200","29","Low_HMMActual","","","","","","null","","","","Images/BlackBeadChoiceCorrect.png","","null"
"image-button-response","662","544517","0.0-13.0-0.201","29","Low_HMMActual","","","","","","408.2000000476837","","","","Images/NewTrialBC.png","","0"
"image-button-response","663","544820","0.0-13.0-1.201","29","Low_HMMActual","","","","","","null","","","","Images/BlackBeadChoice.png","","null"
"image-button-response","664","545323","0.0-13.0-2.201","29","Low_HMMActual","","","","","","null","","","","Images/BlackBeadChoiceCorrect.png","","null"
