"trial_type","trial_index","time_elapsed","internal_node_id","Script_Picker","Block_Type","success","timeout","failed_images","failed_audio","failed_video","rt","url","responses","question_order","stimulus","key_press","response"
"pavlovia","0","36","0.0-0.0","87","Low_HMMActual","","","","","","","","","","","",""
"preload","1","38","0.0-1.0","87","Low_HMMActual","true","false","[]","[]","[]","","","","","","",""
"external-html","2","11336","0.0-2.0-0.0","87","Low_HMMActual","","","","","","11118.60000000149","consent.html","","","","",""
"survey-multi-choice","3","20149","0.0-2.0-1.0","87","Low_HMMActual","","","","","","8805.30000000447","","{""Q0"":""Male"",""Q1"":""White""}","[0,1]","","",""
"survey-text","4","24254","0.0-2.0-2.0","87","Low_HMMActual","","","","","","4090.3000000044703","","{""Q0"":""30""}","","","",""
"survey-text","5","30802","0.0-2.0-3.0","87","Low_HMMActual","","","","","","6444.89999999851","","{""Q0"":""60ce976010390c070c3d2e1e""}","","","",""
"image-keyboard-response","6","51758","0.0-3.0-0.0","87","Low_HMMActual","","","","","","20844.79999999702","","","","tutorial/tutorial1.png"," ",""
"image-keyboard-response","7","72129","0.0-3.0-0.1","87","Low_HMMActual","","","","","","20382.80000000447","","","","tutorial/tutorial2.png"," ",""
"image-keyboard-response","8","76657","0.0-3.0-0.2","87","Low_HMMActual","","","","","","4527.5","","","","tutorial/tutorial3.png"," ",""
"image-keyboard-response","9","79345","0.0-3.0-0.3","87","Low_HMMActual","","","","","","2687.2000000029802","","","","tutorial/tutorial4.png"," ",""
"image-keyboard-response","10","81849","0.0-3.0-0.4","87","Low_HMMActual","","","","","","2503.5999999940395","","","","tutorial/tutorial5.png"," ",""
"image-keyboard-response","11","242377","0.0-3.0-0.5","87","Low_HMMActual","","","","","","160515.20000000298","","","","tutorial/tutorial6.png"," ",""
"image-keyboard-response","12","247345","0.0-3.0-0.6","87","Low_HMMActual","","","","","","4967.20000000298","","","","tutorial/tutorial7.png"," ",""
"image-keyboard-response","13","276485","0.0-3.0-0.7","87","Low_HMMActual","","","","","","29139.5","","","","tutorial/tutorial8.png"," ",""
"image-keyboard-response","14","282777","0.0-3.0-0.8","87","Low_HMMActual","","","","","","6291.5","","","","tutorial/tutorial9.png"," ",""
"image-keyboard-response","15","295325","0.0-3.0-0.9","87","Low_HMMActual","","","","","","12546.79999999702","","","","tutorial/tutorial10.png"," ",""
"image-keyboard-response","16","305194","0.0-3.0-0.10","87","Low_HMMActual","","","","","","9868.60000000149","","","","tutorial/tutorial11.png"," ",""
"image-keyboard-response","17","316273","0.0-3.0-0.11","87","Low_HMMActual","","","","","","11078.39999999851","","","","tutorial/tutorial12.png"," ",""
"image-keyboard-response","18","328145","0.0-3.0-0.12","87","Low_HMMActual","","","","","","11871","","","","tutorial/tutorial13.png"," ",""
"image-keyboard-response","19","340833","0.0-3.0-0.13","87","Low_HMMActual","","","","","","12688","","","","tutorial/tutorial14.png"," ",""
"image-keyboard-response","20","345149","0.0-3.0-0.14","87","Low_HMMActual","","","","","","4315.30000000447","","","","tutorial/tutorial15.png"," ",""
"image-keyboard-response","21","352709","0.0-4.0","87","Low_HMMActual","","","","","","7559.30000000447","","","","tutorial/tutorial16.png","arrowup",""
"image-keyboard-response","22","364399","0.0-5.0","87","Low_HMMActual","","","","","","8241.69999999553","","","","tutorial/tutorial17.png","arrowright",""
"image-keyboard-response","23","373411","0.0-6.0","87","Low_HMMActual","","","","","","6847.10000000149","","","","tutorial/tutorial18.png","arrowleft",""
"image-keyboard-response","24","394863","0.0-7.0","87","Low_HMMActual","","","","","","19480.10000000149","","","","tutorial/tutorial19.png"," ",""
"html-keyboard-response","25","416840","0.0-8.0","88","Low_HMMActual","","","","","","21973.20000000298","","","","<div class=""container"" style=""height:800px;width:800px;display:flex;flex-direction:column;justify-content:center;align-items:center;text-align:center;font-weight:normal;font-family:Arial;font-size:20px""><p>Loading episode&hellip;</p><div>"," ",""
"image-button-response","26","445019","0.0-9.0-0.0","88","Low_HMMActual","","","","","","28171.20000000298","","","","Images/NoChoice.png","","2"
"image-button-response","27","445337","0.0-9.0-1.0","88","Low_HMMActual","","","","","","null","","","","Images/WhiteBeadChoice.png","","null"
"image-button-response","28","445851","0.0-9.0-2.0","88","Low_HMMActual","","","","","","null","","","","Images/WhiteBeadChoiceWrong.png","","null"
"image-button-response","29","462432","0.0-9.0-0.1","88","Low_HMMActual","","","","","","16578.59999999404","","","","Images/NewTrialBC.png","","1"
"image-button-response","30","462737","0.0-9.0-1.1","88","Low_HMMActual","","","","","","null","","","","Images/BlackBeadChoice.png","","null"
"image-button-response","31","463249","0.0-9.0-2.1","88","Low_HMMActual","","","","","","null","","","","Images/BlackBeadChoiceCorrect.png","","null"
"image-button-response","32","468280","0.0-9.0-0.2","88","Low_HMMActual","","","","","","5029","","","","Images/NewTrialBC.png","","0"
"image-button-response","33","468587","0.0-9.0-1.2","88","Low_HMMActual","","","","","","null","","","","Images/BlackBeadChoice.png","","null"
"image-button-response","34","469096","0.0-9.0-2.2","88","Low_HMMActual","","","","","","null","","","","Images/BlackBeadChoiceCorrect.png","","null"
"image-button-response","35","471268","0.0-9.0-0.3","88","Low_HMMActual","","","","","","2170.7000000029802","","","","Images/NewTrialBC.png","","0"
"image-button-response","36","471582","0.0-9.0-1.3","88","Low_HMMActual","","","","","","null","","","","Images/BlackBeadChoice.png","","null"
"image-button-response","37","472089","0.0-9.0-2.3","88","Low_HMMActual","","","","","","null","","","","Images/BlackBeadChoiceCorrect.png","","null"
"image-button-response","38","475015","0.0-9.0-0.4","88","Low_HMMActual","","","","","","2925.10000000149","","","","Images/NewTrialBC.png","","1"
"image-button-response","39","475318","0.0-9.0-1.4","88","Low_HMMActual","","","","","","null","","","","Images/BlackBeadChoice.png","","null"
"image-button-response","40","475835","0.0-9.0-2.4","88","Low_HMMActual","","","","","","null","","","","Images/BlackBeadChoiceCorrect.png","","null"
"image-button-response","41","476694","0.0-9.0-0.5","88","Low_HMMActual","","","","","","857.2000000029802","","","","Images/NewTrialBC.png","","1"
"image-button-response","42","476997","0.0-9.0-1.5","88","Low_HMMActual","","","","","","null","","","","Images/BlackBeadChoice.png","","null"
"image-button-response","43","477500","0.0-9.0-2.5","88","Low_HMMActual","","","","","","null","","","","Images/BlackBeadChoiceCorrect.png","","null"
"image-button-response","44","479187","0.0-9.0-0.6","88","Low_HMMActual","","","","","","1684.7999999970198","","","","Images/NewTrialBC.png","","1"
"image-button-response","45","479500","0.0-9.0-1.6","88","Low_HMMActual","","","","","","null","","","","Images/BlackBeadChoice.png","","null"
"image-button-response","46","480015","0.0-9.0-2.6","88","Low_HMMActual","","","","","","null","","","","Images/BlackBeadChoiceCorrect.png","","null"
"image-button-response","47","483110","0.0-9.0-0.7","88","Low_HMMActual","","","","","","3093.89999999851","","","","Images/NewTrialBC.png","","1"
"image-button-response","48","483413","0.0-9.0-1.7","88","Low_HMMActual","","","","","","null","","","","Images/BlackBeadChoice.png","","null"
"image-button-response","49","483922","0.0-9.0-2.7","88","Low_HMMActual","","","","","","null","","","","Images/BlackBeadChoiceCorrect.png","","null"
"image-button-response","50","485269","0.0-9.0-0.8","88","Low_HMMActual","","","","","","1346","","","","Images/NewTrialBC.png","","0"
"image-button-response","51","485578","0.0-9.0-1.8","88","Low_HMMActual","","","","","","null","","","","Images/BlackBeadChoice.png","","null"
"image-button-response","52","486081","0.0-9.0-2.8","88","Low_HMMActual","","","","","","null","","","","Images/BlackBeadChoiceCorrect.png","","null"
"image-button-response","53","487653","0.0-9.0-0.9","88","Low_HMMActual","","","","","","1570.6000000014901","","","","Images/NewTrialBC.png","","1"
"image-button-response","54","487960","0.0-9.0-1.9","88","Low_HMMActual","","","","","","null","","","","Images/BlackBeadChoice.png","","null"
"image-button-response","55","488471","0.0-9.0-2.9","88","Low_HMMActual","","","","","","null","","","","Images/BlackBeadChoiceWrong.png","","null"
"html-keyboard-response","56","493817","0.0-10.0","88","Low_HMMActual","","","","","","5344.69999999553","","","",""," ",""
"image-keyboard-response","57","499321","0.0-11.0","88","Low_HMMActual","","","","","","5502.9000000059605","","","","tutorial/tutorial20.png"," ",""
"html-keyboard-response","58","516393","0.0-12.0","89","Low_HMMActual","","","","","","17068.79999999702","","","","<div class=""container"" style=""height:800px;width:800px;display:flex;flex-direction:column;justify-content:center;align-items:center;text-align:center;font-weight:normal;font-family:Arial;font-size:20px""><p>Loading episode&hellip;</p><div>"," ",""
"image-button-response","59","528825","0.0-13.0-0.0","89","Low_HMMActual","","","","","","12430.70000000298","","","","Images/NoChoice.png","","3"
"image-button-response","60","529129","0.0-13.0-1.0","89","Low_HMMActual","","","","","","null","","","","Images/WhiteBeadChoice.png","","null"
"image-button-response","61","529645","0.0-13.0-2.0","89","Low_HMMActual","","","","","","null","","","","Images/WhiteBeadChoiceWrong.png","","null"
"image-button-response","62","531773","0.0-13.0-0.1","89","Low_HMMActual","","","","","","2126.10000000149","","","","Images/NewTrialBC.png","","1"
"image-button-response","63","532081","0.0-13.0-1.1","89","Low_HMMActual","","","","","","null","","","","Images/BlackBeadChoice.png","","null"
"image-button-response","64","532594","0.0-13.0-2.1","89","Low_HMMActual","","","","","","null","","","","Images/BlackBeadChoiceWrong.png","","null"
"image-button-response","65","534818","0.0-13.0-0.2","89","Low_HMMActual","","","","","","2222.89999999851","","","","Images/NewTrialWC.png","","3"
"image-button-response","66","535129","0.0-13.0-1.2","89","Low_HMMActual","","","","","","null","","","","Images/WhiteBeadChoice.png","","null"
"image-button-response","67","535631","0.0-13.0-2.2","89","Low_HMMActual","","","","","","null","","","","Images/WhiteBeadChoiceCorrect.png","","null"
"image-button-response","68","536660","0.0-13.0-0.3","89","Low_HMMActual","","","","","","1027.5","","","","Images/NewTrialWC.png","","2"
"image-button-response","69","536970","0.0-13.0-1.3","89","Low_HMMActual","","","","","","null","","","","Images/WhiteBeadChoice.png","","null"
"image-button-response","70","537487","0.0-13.0-2.3","89","Low_HMMActual","","","","","","null","","","","Images/WhiteBeadChoiceCorrect.png","","null"
"image-button-response","71","538754","0.0-13.0-0.4","89","Low_HMMActual","","","","","","1265.5999999940395","","","","Images/NewTrialWC.png","","3"
"image-button-response","72","539056","0.0-13.0-1.4","89","Low_HMMActual","","","","","","null","","","","Images/WhiteBeadChoice.png","","null"
"image-button-response","73","539559","0.0-13.0-2.4","89","Low_HMMActual","","","","","","null","","","","Images/WhiteBeadChoiceCorrect.png","","null"
"image-button-response","74","541032","0.0-13.0-0.5","89","Low_HMMActual","","","","","","1472","","","","Images/NewTrialWC.png","","3"
"image-button-response","75","541337","0.0-13.0-1.5","89","Low_HMMActual","","","","","","null","","","","Images/WhiteBeadChoice.png","","null"
"image-button-response","76","541847","0.0-13.0-2.5","89","Low_HMMActual","","","","","","null","","","","Images/WhiteBeadChoiceCorrect.png","","null"
"image-button-response","77","543067","0.0-13.0-0.6","89","Low_HMMActual","","","","","","1218.3000000044703","","","","Images/NewTrialWC.png","","3"
"image-button-response","78","543384","0.0-13.0-1.6","89","Low_HMMActual","","","","","","null","","","","Images/WhiteBeadChoice.png","","null"
"image-button-response","79","543887","0.0-13.0-2.6","89","Low_HMMActual","","","","","","null","","","","Images/WhiteBeadChoiceCorrect.png","","null"
"image-button-response","80","545255","0.0-13.0-0.7","89","Low_HMMActual","","","","","","1366.6000000014901","","","","Images/NewTrialWC.png","","2"
"image-button-response","81","545567","0.0-13.0-1.7","89","Low_HMMActual","","","","","","null","","","","Images/WhiteBeadChoice.png","","null"
"image-button-response","82","546080","0.0-13.0-2.7","89","Low_HMMActual","","","","","","null","","","","Images/WhiteBeadChoiceCorrect.png","","null"
"image-button-response","83","547128","0.0-13.0-0.8","89","Low_HMMActual","","","","","","1046.0999999940395","","","","Images/NewTrialWC.png","","2"
"image-button-response","84","547434","0.0-13.0-1.8","89","Low_HMMActual","","","","","","null","","","","Images/WhiteBeadChoice.png","","null"
"image-button-response","85","547937","0.0-13.0-2.8","89","Low_HMMActual","","","","","","null","","","","Images/WhiteBeadChoiceCorrect.png","","null"
"image-button-response","86","548965","0.0-13.0-0.9","89","Low_HMMActual","","","","","","1026.8000000044703","","","","Images/NewTrialWC.png","","3"
"image-button-response","87","549282","0.0-13.0-1.9","89","Low_HMMActual","","","","","","null","","","","Images/WhiteBeadChoice.png","","null"
"image-button-response","88","549786","0.0-13.0-2.9","89","Low_HMMActual","","","","","","null","","","","Images/WhiteBeadChoiceCorrect.png","","null"
"image-button-response","89","550647","0.0-13.0-0.10","89","Low_HMMActual","","","","","","859.5999999940395","","","","Images/NewTrialWC.png","","3"
"image-button-response","90","550950","0.0-13.0-1.10","89","Low_HMMActual","","","","","","null","","","","Images/WhiteBeadChoice.png","","null"
"image-button-response","91","551458","0.0-13.0-2.10","89","Low_HMMActual","","","","","","null","","","","Images/WhiteBeadChoiceCorrect.png","","null"
"image-button-response","92","552212","0.0-13.0-0.11","89","Low_HMMActual","","","","","","752","","","","Images/NewTrialWC.png","","3"
"image-button-response","93","552519","0.0-13.0-1.11","89","Low_HMMActual","","","","","","null","","","","Images/WhiteBeadChoice.png","","null"
"image-button-response","94","553035","0.0-13.0-2.11","89","Low_HMMActual","","","","","","null","","","","Images/WhiteBeadChoiceWrong.png","","null"
"image-button-response","95","558254","0.0-13.0-0.12","89","Low_HMMActual","","","","","","5218.10000000149","","","","Images/NewTrialBC.png","","2"
"image-button-response","96","558563","0.0-13.0-1.12","89","Low_HMMActual","","","","","","null","","","","Images/WhiteBeadChoice.png","","null"
"image-button-response","97","559080","0.0-13.0-2.12","89","Low_HMMActual","","","","","","null","","","","Images/WhiteBeadChoiceWrong.png","","null"
"image-button-response","98","560331","0.0-13.0-0.13","89","Low_HMMActual","","","","","","1249.6000000014901","","","","Images/NewTrialBC.png","","2"
"image-button-response","99","560643","0.0-13.0-1.13","89","Low_HMMActual","","","","","","null","","","","Images/WhiteBeadChoice.png","","null"
"image-button-response","100","561159","0.0-13.0-2.13","89","Low_HMMActual","","","","","","null","","","","Images/WhiteBeadChoiceWrong.png","","null"
"image-button-response","101","562937","0.0-13.0-0.14","89","Low_HMMActual","","","","","","1776.8000000044703","","","","Images/NewTrialBC.png","","3"
"image-button-response","102","563244","0.0-13.0-1.14","89","Low_HMMActual","","","","","","null","","","","Images/WhiteBeadChoice.png","","null"
"image-button-response","103","563746","0.0-13.0-2.14","89","Low_HMMActual","","","","","","null","","","","Images/WhiteBeadChoiceWrong.png","","null"
"image-button-response","104","568654","0.0-13.0-0.15","89","Low_HMMActual","","","","","","4905.89999999851","","","","Images/NewTrialBC.png","","1"
"image-button-response","105","568962","0.0-13.0-1.15","89","Low_HMMActual","","","","","","null","","","","Images/BlackBeadChoice.png","","null"
"image-button-response","106","569478","0.0-13.0-2.15","89","Low_HMMActual","","","","","","null","","","","Images/BlackBeadChoiceWrong.png","","null"
"image-button-response","107","570570","0.0-13.0-0.16","89","Low_HMMActual","","","","","","1091.1999999955297","","","","Images/NewTrialWC.png","","3"
"image-button-response","108","570875","0.0-13.0-1.16","89","Low_HMMActual","","","","","","null","","","","Images/WhiteBeadChoice.png","","null"
"image-button-response","109","571379","0.0-13.0-2.16","89","Low_HMMActual","","","","","","null","","","","Images/WhiteBeadChoiceWrong.png","","null"
"image-button-response","110","572141","0.0-13.0-0.17","89","Low_HMMActual","","","","","","760.3000000044703","","","","Images/NewTrialBC.png","","1"
"image-button-response","111","572457","0.0-13.0-1.17","89","Low_HMMActual","","","","","","null","","","","Images/BlackBeadChoice.png","","null"
"image-button-response","112","572960","0.0-13.0-2.17","89","Low_HMMActual","","","","","","null","","","","Images/BlackBeadChoiceCorrect.png","","null"
"image-button-response","113","573761","0.0-13.0-0.18","89","Low_HMMActual","","","","","","800.0999999940395","","","","Images/NewTrialBC.png","","1"
"image-button-response","114","574071","0.0-13.0-1.18","89","Low_HMMActual","","","","","","null","","","","Images/BlackBeadChoice.png","","null"
"image-button-response","115","574574","0.0-13.0-2.18","89","Low_HMMActual","","","","","","null","","","","Images/BlackBeadChoiceCorrect.png","","null"
"image-button-response","116","575328","0.0-13.0-0.19","89","Low_HMMActual","","","","","","752.2000000029802","","","","Images/NewTrialBC.png","","0"
"image-button-response","117","575646","0.0-13.0-1.19","89","Low_HMMActual","","","","","","null","","","","Images/BlackBeadChoice.png","","null"
"image-button-response","118","576156","0.0-13.0-2.19","89","Low_HMMActual","","","","","","null","","","","Images/BlackBeadChoiceWrong.png","","null"
"image-button-response","119","579572","0.0-13.0-0.20","89","Low_HMMActual","","","","","","3414.8000000044703","","","","Images/NewTrialWC.png","","3"
"image-button-response","120","579886","0.0-13.0-1.20","89","Low_HMMActual","","","","","","null","","","","Images/WhiteBeadChoice.png","","null"
"image-button-response","121","580388","0.0-13.0-2.20","89","Low_HMMActual","","","","","","null","","","","Images/WhiteBeadChoiceWrong.png","","null"
"image-button-response","122","581302","0.0-13.0-0.21","89","Low_HMMActual","","","","","","911.6000000014901","","","","Images/NewTrialBC.png","","1"
"image-button-response","123","581609","0.0-13.0-1.21","89","Low_HMMActual","","","","","","null","","","","Images/BlackBeadChoice.png","","null"
"image-button-response","124","582111","0.0-13.0-2.21","89","Low_HMMActual","","","","","","null","","","","Images/BlackBeadChoiceCorrect.png","","null"
"image-button-response","125","583145","0.0-13.0-0.22","89","Low_HMMActual","","","","","","1032.4000000059605","","","","Images/NewTrialBC.png","","0"
"image-button-response","126","583455","0.0-13.0-1.22","89","Low_HMMActual","","","","","","null","","","","Images/BlackBeadChoice.png","","null"
"image-button-response","127","583972","0.0-13.0-2.22","89","Low_HMMActual","","","","","","null","","","","Images/BlackBeadChoiceCorrect.png","","null"
"image-button-response","128","584484","0.0-13.0-0.23","89","Low_HMMActual","","","","","","510.5","","","","Images/NewTrialBC.png","","0"
"image-button-response","129","584799","0.0-13.0-1.23","89","Low_HMMActual","","","","","","null","","","","Images/BlackBeadChoice.png","","null"
"image-button-response","130","585301","0.0-13.0-2.23","89","Low_HMMActual","","","","","","null","","","","Images/BlackBeadChoiceCorrect.png","","null"
"image-button-response","131","585639","0.0-13.0-0.24","89","Low_HMMActual","","","","","","337.3999999985099","","","","Images/NewTrialBC.png","","1"
"image-button-response","132","585950","0.0-13.0-1.24","89","Low_HMMActual","","","","","","null","","","","Images/BlackBeadChoice.png","","null"
"image-button-response","133","586456","0.0-13.0-2.24","89","Low_HMMActual","","","","","","null","","","","Images/BlackBeadChoiceCorrect.png","","null"
"image-button-response","134","586949","0.0-13.0-0.25","89","Low_HMMActual","","","","","","491.5","","","","Images/NewTrialBC.png","","1"
"image-button-response","135","587265","0.0-13.0-1.25","89","Low_HMMActual","","","","","","null","","","","Images/BlackBeadChoice.png","","null"
"image-button-response","136","587781","0.0-13.0-2.25","89","Low_HMMActual","","","","","","null","","","","Images/BlackBeadChoiceCorrect.png","","null"
"image-button-response","137","588683","0.0-13.0-0.26","89","Low_HMMActual","","","","","","900.5","","","","Images/NewTrialBC.png","","1"
"image-button-response","138","588997","0.0-13.0-1.26","89","Low_HMMActual","","","","","","null","","","","Images/BlackBeadChoice.png","","null"
"image-button-response","139","589501","0.0-13.0-2.26","89","Low_HMMActual","","","","","","null","","","","Images/BlackBeadChoiceCorrect.png","","null"
"image-button-response","140","590605","0.0-13.0-0.27","89","Low_HMMActual","","","","","","1102.9000000059605","","","","Images/NewTrialBC.png","","1"
"image-button-response","141","590921","0.0-13.0-1.27","89","Low_HMMActual","","","","","","null","","","","Images/BlackBeadChoice.png","","null"
"image-button-response","142","591423","0.0-13.0-2.27","89","Low_HMMActual","","","","","","null","","","","Images/BlackBeadChoiceCorrect.png","","null"
"image-button-response","143","592018","0.0-13.0-0.28","89","Low_HMMActual","","","","","","592.8999999985099","","","","Images/NewTrialBC.png","","0"
"image-button-response","144","592328","0.0-13.0-1.28","89","Low_HMMActual","","","","","","null","","","","Images/BlackBeadChoice.png","","null"
"image-button-response","145","592830","0.0-13.0-2.28","89","Low_HMMActual","","","","","","null","","","","Images/BlackBeadChoiceCorrect.png","","null"
"image-button-response","146","593956","0.0-13.0-0.29","89","Low_HMMActual","","","","","","1125","","","","Images/NewTrialBC.png","","1"
"image-button-response","147","594277","0.0-13.0-1.29","89","Low_HMMActual","","","","","","null","","","","Images/BlackBeadChoice.png","","null"
"image-button-response","148","594780","0.0-13.0-2.29","89","Low_HMMActual","","","","","","null","","","","Images/BlackBeadChoiceCorrect.png","","null"
"image-button-response","149","595608","0.0-13.0-0.30","89","Low_HMMActual","","","","","","826.8999999985099","","","","Images/NewTrialBC.png","","0"
"image-button-response","150","595913","0.0-13.0-1.30","89","Low_HMMActual","","","","","","null","","","","Images/BlackBeadChoice.png","","null"
"image-button-response","151","596419","0.0-13.0-2.30","89","Low_HMMActual","","","","","","null","","","","Images/BlackBeadChoiceWrong.png","","null"
"image-button-response","152","600907","0.0-13.0-0.31","89","Low_HMMActual","","","","","","4486.70000000298","","","","Images/NewTrialWC.png","","1"
"image-button-response","153","601225","0.0-13.0-1.31","89","Low_HMMActual","","","","","","null","","","","Images/BlackBeadChoice.png","","null"
"image-button-response","154","601731","0.0-13.0-2.31","89","Low_HMMActual","","","","","","null","","","","Images/BlackBeadChoiceCorrect.png","","null"
"image-button-response","155","602959","0.0-13.0-0.32","89","Low_HMMActual","","","","","","1226","","","","Images/NewTrialBC.png","","0"
"image-button-response","156","603261","0.0-13.0-1.32","89","Low_HMMActual","","","","","","null","","","","Images/BlackBeadChoice.png","","null"
"image-button-response","157","603764","0.0-13.0-2.32","89","Low_HMMActual","","","","","","null","","","","Images/BlackBeadChoiceCorrect.png","","null"
"image-button-response","158","604262","0.0-13.0-0.33","89","Low_HMMActual","","","","","","496.5","","","","Images/NewTrialBC.png","","0"
"image-button-response","159","604573","0.0-13.0-1.33","89","Low_HMMActual","","","","","","null","","","","Images/BlackBeadChoice.png","","null"
"image-button-response","160","605078","0.0-13.0-2.33","89","Low_HMMActual","","","","","","null","","","","Images/BlackBeadChoiceCorrect.png","","null"
"image-button-response","161","605503","0.0-13.0-0.34","89","Low_HMMActual","","","","","","423.70000000298023","","","","Images/NewTrialBC.png","","0"
"image-button-response","162","605812","0.0-13.0-1.34","89","Low_HMMActual","","","","","","null","","","","Images/BlackBeadChoice.png","","null"
"image-button-response","163","606314","0.0-13.0-2.34","89","Low_HMMActual","","","","","","null","","","","Images/BlackBeadChoiceCorrect.png","","null"
"image-button-response","164","607378","0.0-13.0-0.35","89","Low_HMMActual","","","","","","1063","","","","Images/NewTrialBC.png","","1"
"image-button-response","165","607690","0.0-13.0-1.35","89","Low_HMMActual","","","","","","null","","","","Images/BlackBeadChoice.png","","null"
"image-button-response","166","608201","0.0-13.0-2.35","89","Low_HMMActual","","","","","","null","","","","Images/BlackBeadChoiceCorrect.png","","null"
"image-button-response","167","609757","0.0-13.0-0.36","89","Low_HMMActual","","","","","","1554.6000000014901","","","","Images/NewTrialBC.png","","1"
"image-button-response","168","610072","0.0-13.0-1.36","89","Low_HMMActual","","","","","","null","","","","Images/BlackBeadChoice.png","","null"
"image-button-response","169","610575","0.0-13.0-2.36","89","Low_HMMActual","","","","","","null","","","","Images/BlackBeadChoiceCorrect.png","","null"
"image-button-response","170","611654","0.0-13.0-0.37","89","Low_HMMActual","","","","","","1077.3999999985099","","","","Images/NewTrialBC.png","","0"
"image-button-response","171","611957","0.0-13.0-1.37","89","Low_HMMActual","","","","","","null","","","","Images/BlackBeadChoice.png","","null"
"image-button-response","172","612464","0.0-13.0-2.37","89","Low_HMMActual","","","","","","null","","","","Images/BlackBeadChoiceWrong.png","","null"
"image-button-response","173","614831","0.0-13.0-0.38","89","Low_HMMActual","","","","","","2366","","","","Images/NewTrialWC.png","","1"
"image-button-response","174","615144","0.0-13.0-1.38","89","Low_HMMActual","","","","","","null","","","","Images/BlackBeadChoice.png","","null"
"image-button-response","175","615657","0.0-13.0-2.38","89","Low_HMMActual","","","","","","null","","","","Images/BlackBeadChoiceCorrect.png","","null"
"image-button-response","176","617160","0.0-13.0-0.39","89","Low_HMMActual","","","","","","1501.8999999985099","","","","Images/NewTrialBC.png","","0"
"image-button-response","177","617468","0.0-13.0-1.39","89","Low_HMMActual","","","","","","null","","","","Images/BlackBeadChoice.png","","null"
"image-button-response","178","617984","0.0-13.0-2.39","89","Low_HMMActual","","","","","","null","","","","Images/BlackBeadChoiceCorrect.png","","null"
"image-button-response","179","618686","0.0-13.0-0.40","89","Low_HMMActual","","","","","","699.8999999985099","","","","Images/NewTrialBC.png","","0"
"image-button-response","180","618998","0.0-13.0-1.40","89","Low_HMMActual","","","","","","null","","","","Images/BlackBeadChoice.png","","null"
"image-button-response","181","619511","0.0-13.0-2.40","89","Low_HMMActual","","","","","","null","","","","Images/BlackBeadChoiceWrong.png","","null"
"image-button-response","182","620526","0.0-13.0-0.41","89","Low_HMMActual","","","","","","1013.1000000014901","","","","Images/NewTrialWC.png","","1"
"image-button-response","183","620834","0.0-13.0-1.41","89","Low_HMMActual","","","","","","null","","","","Images/BlackBeadChoice.png","","null"
"image-button-response","184","621339","0.0-13.0-2.41","89","Low_HMMActual","","","","","","null","","","","Images/BlackBeadChoiceWrong.png","","null"
"image-button-response","185","622430","0.0-13.0-0.42","89","Low_HMMActual","","","","","","1089.5","","","","Images/NewTrialWC.png","","1"
"image-button-response","186","622734","0.0-13.0-1.42","89","Low_HMMActual","","","","","","null","","","","Images/BlackBeadChoice.png","","null"
"image-button-response","187","623241","0.0-13.0-2.42","89","Low_HMMActual","","","","","","null","","","","Images/BlackBeadChoiceCorrect.png","","null"
"image-button-response","188","624505","0.0-13.0-0.43","89","Low_HMMActual","","","","","","1262.7999999970198","","","","Images/NewTrialBC.png","","1"
"image-button-response","189","624818","0.0-13.0-1.43","89","Low_HMMActual","","","","","","null","","","","Images/BlackBeadChoice.png","","null"
"image-button-response","190","625336","0.0-13.0-2.43","89","Low_HMMActual","","","","","","null","","","","Images/BlackBeadChoiceWrong.png","","null"
"image-button-response","191","626551","0.0-13.0-0.44","89","Low_HMMActual","","","","","","1214.2999999970198","","","","Images/NewTrialWC.png","","1"
"image-button-response","192","626864","0.0-13.0-1.44","89","Low_HMMActual","","","","","","null","","","","Images/BlackBeadChoice.png","","null"
"image-button-response","193","627366","0.0-13.0-2.44","89","Low_HMMActual","","","","","","null","","","","Images/BlackBeadChoiceWrong.png","","null"
"image-button-response","194","628064","0.0-13.0-0.45","89","Low_HMMActual","","","","","","695.8000000044703","","","","Images/NewTrialWC.png","","3"
"image-button-response","195","628372","0.0-13.0-1.45","89","Low_HMMActual","","","","","","null","","","","Images/WhiteBeadChoice.png","","null"
"image-button-response","196","628884","0.0-13.0-2.45","89","Low_HMMActual","","","","","","null","","","","Images/WhiteBeadChoiceCorrect.png","","null"
"image-button-response","197","629396","0.0-13.0-0.46","89","Low_HMMActual","","","","","","510.3999999985099","","","","Images/NewTrialWC.png","","2"
"image-button-response","198","629702","0.0-13.0-1.46","89","Low_HMMActual","","","","","","null","","","","Images/WhiteBeadChoice.png","","null"
"image-button-response","199","630214","0.0-13.0-2.46","89","Low_HMMActual","","","","","","null","","","","Images/WhiteBeadChoiceCorrect.png","","null"
"image-button-response","200","631343","0.0-13.0-0.47","89","Low_HMMActual","","","","","","1127.6999999955297","","","","Images/NewTrialWC.png","","3"
"image-button-response","201","631645","0.0-13.0-1.47","89","Low_HMMActual","","","","","","null","","","","Images/WhiteBeadChoice.png","","null"
"image-button-response","202","632162","0.0-13.0-2.47","89","Low_HMMActual","","","","","","null","","","","Images/WhiteBeadChoiceCorrect.png","","null"
"image-button-response","203","633547","0.0-13.0-0.48","89","Low_HMMActual","","","","","","1383.7999999970198","","","","Images/NewTrialWC.png","","2"
"image-button-response","204","633859","0.0-13.0-1.48","89","Low_HMMActual","","","","","","null","","","","Images/WhiteBeadChoice.png","","null"
"image-button-response","205","634362","0.0-13.0-2.48","89","Low_HMMActual","","","","","","null","","","","Images/WhiteBeadChoiceCorrect.png","","null"
"image-button-response","206","634909","0.0-13.0-0.49","89","Low_HMMActual","","","","","","545.7000000029802","","","","Images/NewTrialWC.png","","2"
"image-button-response","207","635211","0.0-13.0-1.49","89","Low_HMMActual","","","","","","null","","","","Images/WhiteBeadChoice.png","","null"
"image-button-response","208","635721","0.0-13.0-2.49","89","Low_HMMActual","","","","","","null","","","","Images/WhiteBeadChoiceWrong.png","","null"
"image-button-response","209","638325","0.0-13.0-0.50","89","Low_HMMActual","","","","","","2602.7000000029802","","","","Images/NewTrialBC.png","","3"
"image-button-response","210","638631","0.0-13.0-1.50","89","Low_HMMActual","","","","","","null","","","","Images/WhiteBeadChoice.png","","null"
"image-button-response","211","639144","0.0-13.0-2.50","89","Low_HMMActual","","","","","","null","","","","Images/WhiteBeadChoiceCorrect.png","","null"
"image-button-response","212","640136","0.0-13.0-0.51","89","Low_HMMActual","","","","","","991","","","","Images/NewTrialWC.png","","2"
"image-button-response","213","640449","0.0-13.0-1.51","89","Low_HMMActual","","","","","","null","","","","Images/WhiteBeadChoice.png","","null"
"image-button-response","214","640962","0.0-13.0-2.51","89","Low_HMMActual","","","","","","null","","","","Images/WhiteBeadChoiceCorrect.png","","null"
"image-button-response","215","641424","0.0-13.0-0.52","89","Low_HMMActual","","","","","","460.6000000014901","","","","Images/NewTrialWC.png","","2"
"image-button-response","216","641729","0.0-13.0-1.52","89","Low_HMMActual","","","","","","null","","","","Images/WhiteBeadChoice.png","","null"
"image-button-response","217","642239","0.0-13.0-2.52","89","Low_HMMActual","","","","","","null","","","","Images/WhiteBeadChoiceWrong.png","","null"
"image-button-response","218","643253","0.0-13.0-0.53","89","Low_HMMActual","","","","","","1012.1000000014901","","","","Images/NewTrialBC.png","","3"
"image-button-response","219","643556","0.0-13.0-1.53","89","Low_HMMActual","","","","","","null","","","","Images/WhiteBeadChoice.png","","null"
"image-button-response","220","644069","0.0-13.0-2.53","89","Low_HMMActual","","","","","","null","","","","Images/WhiteBeadChoiceCorrect.png","","null"
"image-button-response","221","644837","0.0-13.0-0.54","89","Low_HMMActual","","","","","","766.1999999955297","","","","Images/NewTrialWC.png","","2"
"image-button-response","222","645148","0.0-13.0-1.54","89","Low_HMMActual","","","","","","null","","","","Images/WhiteBeadChoice.png","","null"
"image-button-response","223","645657","0.0-13.0-2.54","89","Low_HMMActual","","","","","","null","","","","Images/WhiteBeadChoiceCorrect.png","","null"
"image-button-response","224","646355","0.0-13.0-0.55","89","Low_HMMActual","","","","","","695.2999999970198","","","","Images/NewTrialWC.png","","2"
"image-button-response","225","646661","0.0-13.0-1.55","89","Low_HMMActual","","","","","","null","","","","Images/WhiteBeadChoice.png","","null"
"image-button-response","226","647176","0.0-13.0-2.55","89","Low_HMMActual","","","","","","null","","","","Images/WhiteBeadChoiceCorrect.png","","null"
"image-button-response","227","648136","0.0-13.0-0.56","89","Low_HMMActual","","","","","","958.2000000029802","","","","Images/NewTrialWC.png","","2"
"image-button-response","228","648451","0.0-13.0-1.56","89","Low_HMMActual","","","","","","null","","","","Images/WhiteBeadChoice.png","","null"
"image-button-response","229","648960","0.0-13.0-2.56","89","Low_HMMActual","","","","","","null","","","","Images/WhiteBeadChoiceCorrect.png","","null"
"image-button-response","230","650647","0.0-13.0-0.57","89","Low_HMMActual","","","","","","1685.3999999985099","","","","Images/NewTrialWC.png","","2"
"image-button-response","231","650957","0.0-13.0-1.57","89","Low_HMMActual","","","","","","null","","","","Images/WhiteBeadChoice.png","","null"
"image-button-response","232","651464","0.0-13.0-2.57","89","Low_HMMActual","","","","","","null","","","","Images/WhiteBeadChoiceCorrect.png","","null"
"image-button-response","233","652584","0.0-13.0-0.58","89","Low_HMMActual","","","","","","1118.8999999985099","","","","Images/NewTrialWC.png","","2"
"image-button-response","234","652887","0.0-13.0-1.58","89","Low_HMMActual","","","","","","null","","","","Images/WhiteBeadChoice.png","","null"
"image-button-response","235","653393","0.0-13.0-2.58","89","Low_HMMActual","","","","","","null","","","","Images/WhiteBeadChoiceCorrect.png","","null"
"image-button-response","236","654532","0.0-13.0-0.59","89","Low_HMMActual","","","","","","1137.7999999970198","","","","Images/NewTrialWC.png","","2"
"image-button-response","237","654846","0.0-13.0-1.59","89","Low_HMMActual","","","","","","null","","","","Images/WhiteBeadChoice.png","","null"
"image-button-response","238","655360","0.0-13.0-2.59","89","Low_HMMActual","","","","","","null","","","","Images/WhiteBeadChoiceCorrect.png","","null"
"image-button-response","239","656777","0.0-13.0-0.60","89","Low_HMMActual","","","","","","1415.6999999955297","","","","Images/NewTrialWC.png","","3"
"image-button-response","240","657083","0.0-13.0-1.60","89","Low_HMMActual","","","","","","null","","","","Images/WhiteBeadChoice.png","","null"
"image-button-response","241","657590","0.0-13.0-2.60","89","Low_HMMActual","","","","","","null","","","","Images/WhiteBeadChoiceWrong.png","","null"
"image-button-response","242","660106","0.0-13.0-0.61","89","Low_HMMActual","","","","","","2514.5999999940395","","","","Images/NewTrialBC.png","","3"
"image-button-response","243","660417","0.0-13.0-1.61","89","Low_HMMActual","","","","","","null","","","","Images/WhiteBeadChoice.png","","null"
"image-button-response","244","660921","0.0-13.0-2.61","89","Low_HMMActual","","","","","","null","","","","Images/WhiteBeadChoiceCorrect.png","","null"
"image-button-response","245","661878","0.0-13.0-0.62","89","Low_HMMActual","","","","","","955.6000000014901","","","","Images/NewTrialWC.png","","2"
"image-button-response","246","662195","0.0-13.0-1.62","89","Low_HMMActual","","","","","","null","","","","Images/WhiteBeadChoice.png","","null"
"image-button-response","247","662704","0.0-13.0-2.62","89","Low_HMMActual","","","","","","null","","","","Images/WhiteBeadChoiceWrong.png","","null"
"image-button-response","248","664130","0.0-13.0-0.63","89","Low_HMMActual","","","","","","1424.5","","","","Images/NewTrialBC.png","","3"
"image-button-response","249","664433","0.0-13.0-1.63","89","Low_HMMActual","","","","","","null","","","","Images/WhiteBeadChoice.png","","null"
"image-button-response","250","664936","0.0-13.0-2.63","89","Low_HMMActual","","","","","","null","","","","Images/WhiteBeadChoiceCorrect.png","","null"
"image-button-response","251","665661","0.0-13.0-0.64","89","Low_HMMActual","","","","","","723.1000000014901","","","","Images/NewTrialWC.png","","2"
"image-button-response","252","665972","0.0-13.0-1.64","89","Low_HMMActual","","","","","","null","","","","Images/WhiteBeadChoice.png","","null"
"image-button-response","253","666483","0.0-13.0-2.64","89","Low_HMMActual","","","","","","null","","","","Images/WhiteBeadChoiceWrong.png","","null"
"image-button-response","254","667362","0.0-13.0-0.65","89","Low_HMMActual","","","","","","877.2999999970198","","","","Images/NewTrialBC.png","","3"
"image-button-response","255","667671","0.0-13.0-1.65","89","Low_HMMActual","","","","","","null","","","","Images/WhiteBeadChoice.png","","null"
"image-button-response","256","668179","0.0-13.0-2.65","89","Low_HMMActual","","","","","","null","","","","Images/WhiteBeadChoiceWrong.png","","null"
"image-button-response","257","669426","0.0-13.0-0.66","89","Low_HMMActual","","","","","","1245.7999999970198","","","","Images/NewTrialBC.png","","1"
"image-button-response","258","669741","0.0-13.0-1.66","89","Low_HMMActual","","","","","","null","","","","Images/BlackBeadChoice.png","","null"
"image-button-response","259","670243","0.0-13.0-2.66","89","Low_HMMActual","","","","","","null","","","","Images/BlackBeadChoiceCorrect.png","","null"
"image-button-response","260","670680","0.0-13.0-0.67","89","Low_HMMActual","","","","","","435.1000000014901","","","","Images/NewTrialBC.png","","0"
"image-button-response","261","670996","0.0-13.0-1.67","89","Low_HMMActual","","","","","","null","","","","Images/BlackBeadChoice.png","","null"
"image-button-response","262","671500","0.0-13.0-2.67","89","Low_HMMActual","","","","","","null","","","","Images/BlackBeadChoiceCorrect.png","","null"
"image-button-response","263","672117","0.0-13.0-0.68","89","Low_HMMActual","","","","","","615.3000000044703","","","","Images/NewTrialBC.png","","0"
"image-button-response","264","672434","0.0-13.0-1.68","89","Low_HMMActual","","","","","","null","","","","Images/BlackBeadChoice.png","","null"
"image-button-response","265","672945","0.0-13.0-2.68","89","Low_HMMActual","","","","","","null","","","","Images/BlackBeadChoiceCorrect.png","","null"
"image-button-response","266","673901","0.0-13.0-0.69","89","Low_HMMActual","","","","","","954.2000000029802","","","","Images/NewTrialBC.png","","0"
"image-button-response","267","674210","0.0-13.0-1.69","89","Low_HMMActual","","","","","","null","","","","Images/BlackBeadChoice.png","","null"
"image-button-response","268","674721","0.0-13.0-2.69","89","Low_HMMActual","","","","","","null","","","","Images/BlackBeadChoiceCorrect.png","","null"
"image-button-response","269","675328","0.0-13.0-0.70","89","Low_HMMActual","","","","","","605","","","","Images/NewTrialBC.png","","0"
"image-button-response","270","675640","0.0-13.0-1.70","89","Low_HMMActual","","","","","","null","","","","Images/BlackBeadChoice.png","","null"
"image-button-response","271","676156","0.0-13.0-2.70","89","Low_HMMActual","","","","","","null","","","","Images/BlackBeadChoiceCorrect.png","","null"
"image-button-response","272","677058","0.0-13.0-0.71","89","Low_HMMActual","","","","","","899.3999999985099","","","","Images/NewTrialBC.png","","0"
"image-button-response","273","677366","0.0-13.0-1.71","89","Low_HMMActual","","","","","","null","","","","Images/BlackBeadChoice.png","","null"
"image-button-response","274","677880","0.0-13.0-2.71","89","Low_HMMActual","","","","","","null","","","","Images/BlackBeadChoiceWrong.png","","null"
"image-button-response","275","678826","0.0-13.0-0.72","89","Low_HMMActual","","","","","","943.8000000044703","","","","Images/NewTrialWC.png","","1"
"image-button-response","276","679141","0.0-13.0-1.72","89","Low_HMMActual","","","","","","null","","","","Images/BlackBeadChoice.png","","null"
"image-button-response","277","679644","0.0-13.0-2.72","89","Low_HMMActual","","","","","","null","","","","Images/BlackBeadChoiceWrong.png","","null"
"image-button-response","278","680534","0.0-13.0-0.73","89","Low_HMMActual","","","","","","889.1999999955297","","","","Images/NewTrialWC.png","","3"
"image-button-response","279","680841","0.0-13.0-1.73","89","Low_HMMActual","","","","","","null","","","","Images/WhiteBeadChoice.png","","null"
"image-button-response","280","681346","0.0-13.0-2.73","89","Low_HMMActual","","","","","","null","","","","Images/WhiteBeadChoiceCorrect.png","","null"
"image-button-response","281","682189","0.0-13.0-0.74","89","Low_HMMActual","","","","","","841.7999999970198","","","","Images/NewTrialWC.png","","2"
"image-button-response","282","682495","0.0-13.0-1.74","89","Low_HMMActual","","","","","","null","","","","Images/WhiteBeadChoice.png","","null"
"image-button-response","283","683010","0.0-13.0-2.74","89","Low_HMMActual","","","","","","null","","","","Images/WhiteBeadChoiceWrong.png","","null"
"image-button-response","284","683855","0.0-13.0-0.75","89","Low_HMMActual","","","","","","844","","","","Images/NewTrialBC.png","","3"
"image-button-response","285","684172","0.0-13.0-1.75","89","Low_HMMActual","","","","","","null","","","","Images/WhiteBeadChoice.png","","null"
"image-button-response","286","684674","0.0-13.0-2.75","89","Low_HMMActual","","","","","","null","","","","Images/WhiteBeadChoiceWrong.png","","null"
"image-button-response","287","685446","0.0-13.0-0.76","89","Low_HMMActual","","","","","","769.5","","","","Images/NewTrialBC.png","","1"
"image-button-response","288","685751","0.0-13.0-1.76","89","Low_HMMActual","","","","","","null","","","","Images/BlackBeadChoice.png","","null"
"image-button-response","289","686252","0.0-13.0-2.76","89","Low_HMMActual","","","","","","null","","","","Images/BlackBeadChoiceCorrect.png","","null"
"image-button-response","290","687208","0.0-13.0-0.77","89","Low_HMMActual","","","","","","953.8000000044703","","","","Images/NewTrialBC.png","","1"
"image-button-response","291","687514","0.0-13.0-1.77","89","Low_HMMActual","","","","","","null","","","","Images/BlackBeadChoice.png","","null"
"image-button-response","292","688016","0.0-13.0-2.77","89","Low_HMMActual","","","","","","null","","","","Images/BlackBeadChoiceCorrect.png","","null"
"image-button-response","293","688328","0.0-13.0-0.78","89","Low_HMMActual","","","","","","310","","","","Images/NewTrialBC.png","","0"
"image-button-response","294","688638","0.0-13.0-1.78","89","Low_HMMActual","","","","","","null","","","","Images/BlackBeadChoice.png","","null"
"image-button-response","295","689141","0.0-13.0-2.78","89","Low_HMMActual","","","","","","null","","","","Images/BlackBeadChoiceWrong.png","","null"
"image-button-response","296","690871","0.0-13.0-0.79","89","Low_HMMActual","","","","","","1728.2000000029802","","","","Images/NewTrialWC.png","","1"
"image-button-response","297","691178","0.0-13.0-1.79","89","Low_HMMActual","","","","","","null","","","","Images/BlackBeadChoice.png","","null"
"image-button-response","298","691681","0.0-13.0-2.79","89","Low_HMMActual","","","","","","null","","","","Images/BlackBeadChoiceCorrect.png","","null"
"image-button-response","299","692136","0.0-13.0-0.80","89","Low_HMMActual","","","","","","454.1000000014901","","","","Images/NewTrialBC.png","","0"
"image-button-response","300","692453","0.0-13.0-1.80","89","Low_HMMActual","","","","","","null","","","","Images/BlackBeadChoice.png","","null"
"image-button-response","301","692958","0.0-13.0-2.80","89","Low_HMMActual","","","","","","null","","","","Images/BlackBeadChoiceWrong.png","","null"
"image-button-response","302","693728","0.0-13.0-0.81","89","Low_HMMActual","","","","","","769.3000000044703","","","","Images/NewTrialWC.png","","1"
"image-button-response","303","694046","0.0-13.0-1.81","89","Low_HMMActual","","","","","","null","","","","Images/BlackBeadChoice.png","","null"
"image-button-response","304","694548","0.0-13.0-2.81","89","Low_HMMActual","","","","","","null","","","","Images/BlackBeadChoiceCorrect.png","","null"
"image-button-response","305","695133","0.0-13.0-0.82","89","Low_HMMActual","","","","","","583.5","","","","Images/NewTrialBC.png","","0"
"image-button-response","306","695438","0.0-13.0-1.82","89","Low_HMMActual","","","","","","null","","","","Images/BlackBeadChoice.png","","null"
"image-button-response","307","695943","0.0-13.0-2.82","89","Low_HMMActual","","","","","","null","","","","Images/BlackBeadChoiceCorrect.png","","null"
"image-button-response","308","696473","0.0-13.0-0.83","89","Low_HMMActual","","","","","","528.2000000029802","","","","Images/NewTrialBC.png","","0"
"image-button-response","309","696783","0.0-13.0-1.83","89","Low_HMMActual","","","","","","null","","","","Images/BlackBeadChoice.png","","null"
"image-button-response","310","697287","0.0-13.0-2.83","89","Low_HMMActual","","","","","","null","","","","Images/BlackBeadChoiceCorrect.png","","null"
"image-button-response","311","697898","0.0-13.0-0.84","89","Low_HMMActual","","","","","","609.5","","","","Images/NewTrialBC.png","","0"
"image-button-response","312","698207","0.0-13.0-1.84","89","Low_HMMActual","","","","","","null","","","","Images/BlackBeadChoice.png","","null"
"image-button-response","313","698715","0.0-13.0-2.84","89","Low_HMMActual","","","","","","null","","","","Images/BlackBeadChoiceCorrect.png","","null"
"image-button-response","314","699325","0.0-13.0-0.85","89","Low_HMMActual","","","","","","608.6000000014901","","","","Images/NewTrialBC.png","","1"
"image-button-response","315","699639","0.0-13.0-1.85","89","Low_HMMActual","","","","","","null","","","","Images/BlackBeadChoice.png","","null"
"image-button-response","316","700153","0.0-13.0-2.85","89","Low_HMMActual","","","","","","null","","","","Images/BlackBeadChoiceWrong.png","","null"
"image-button-response","317","704528","0.0-13.0-0.86","89","Low_HMMActual","","","","","","4373.9000000059605","","","","Images/NewTrialWC.png","","1"
"image-button-response","318","704843","0.0-13.0-1.86","89","Low_HMMActual","","","","","","null","","","","Images/BlackBeadChoice.png","","null"
"image-button-response","319","705352","0.0-13.0-2.86","89","Low_HMMActual","","","","","","null","","","","Images/BlackBeadChoiceWrong.png","","null"
"image-button-response","320","706190","0.0-13.0-0.87","89","Low_HMMActual","","","","","","835.6999999955297","","","","Images/NewTrialWC.png","","3"
"image-button-response","321","706491","0.0-13.0-1.87","89","Low_HMMActual","","","","","","null","","","","Images/WhiteBeadChoice.png","","null"
"image-button-response","322","706999","0.0-13.0-2.87","89","Low_HMMActual","","","","","","null","","","","Images/WhiteBeadChoiceCorrect.png","","null"
"image-button-response","323","707829","0.0-13.0-0.88","89","Low_HMMActual","","","","","","827.7000000029802","","","","Images/NewTrialWC.png","","2"
"image-button-response","324","708137","0.0-13.0-1.88","89","Low_HMMActual","","","","","","null","","","","Images/WhiteBeadChoice.png","","null"
"image-button-response","325","708650","0.0-13.0-2.88","89","Low_HMMActual","","","","","","null","","","","Images/WhiteBeadChoiceCorrect.png","","null"
"image-button-response","326","709235","0.0-13.0-0.89","89","Low_HMMActual","","","","","","583.7999999970198","","","","Images/NewTrialWC.png","","2"
"image-button-response","327","709544","0.0-13.0-1.89","89","Low_HMMActual","","","","","","null","","","","Images/WhiteBeadChoice.png","","null"
"image-button-response","328","710047","0.0-13.0-2.89","89","Low_HMMActual","","","","","","null","","","","Images/WhiteBeadChoiceCorrect.png","","null"
"image-button-response","329","710975","0.0-13.0-0.90","89","Low_HMMActual","","","","","","926.1000000014901","","","","Images/NewTrialWC.png","","2"
"image-button-response","330","711284","0.0-13.0-1.90","89","Low_HMMActual","","","","","","null","","","","Images/WhiteBeadChoice.png","","null"
"image-button-response","331","711788","0.0-13.0-2.90","89","Low_HMMActual","","","","","","null","","","","Images/WhiteBeadChoiceCorrect.png","","null"
"image-button-response","332","712671","0.0-13.0-0.91","89","Low_HMMActual","","","","","","881.5","","","","Images/NewTrialWC.png","","2"
"image-button-response","333","712977","0.0-13.0-1.91","89","Low_HMMActual","","","","","","null","","","","Images/WhiteBeadChoice.png","","null"
"image-button-response","334","713479","0.0-13.0-2.91","89","Low_HMMActual","","","","","","null","","","","Images/WhiteBeadChoiceCorrect.png","","null"
"image-button-response","335","714178","0.0-13.0-0.92","89","Low_HMMActual","","","","","","696.8999999985099","","","","Images/NewTrialWC.png","","3"
"image-button-response","336","714493","0.0-13.0-1.92","89","Low_HMMActual","","","","","","null","","","","Images/WhiteBeadChoice.png","","null"
"image-button-response","337","714996","0.0-13.0-2.92","89","Low_HMMActual","","","","","","null","","","","Images/WhiteBeadChoiceCorrect.png","","null"
"image-button-response","338","715721","0.0-13.0-0.93","89","Low_HMMActual","","","","","","723.1999999955297","","","","Images/NewTrialWC.png","","3"
"image-button-response","339","716024","0.0-13.0-1.93","89","Low_HMMActual","","","","","","null","","","","Images/WhiteBeadChoice.png","","null"
"image-button-response","340","716537","0.0-13.0-2.93","89","Low_HMMActual","","","","","","null","","","","Images/WhiteBeadChoiceCorrect.png","","null"
"image-button-response","341","717421","0.0-13.0-0.94","89","Low_HMMActual","","","","","","882.2999999970198","","","","Images/NewTrialWC.png","","3"
"image-button-response","342","717730","0.0-13.0-1.94","89","Low_HMMActual","","","","","","null","","","","Images/WhiteBeadChoice.png","","null"
"image-button-response","343","718231","0.0-13.0-2.94","89","Low_HMMActual","","","","","","null","","","","Images/WhiteBeadChoiceCorrect.png","","null"
"image-button-response","344","718765","0.0-13.0-0.95","89","Low_HMMActual","","","","","","532.6000000014901","","","","Images/NewTrialWC.png","","3"
"image-button-response","345","719070","0.0-13.0-1.95","89","Low_HMMActual","","","","","","null","","","","Images/WhiteBeadChoice.png","","null"
"image-button-response","346","719576","0.0-13.0-2.95","89","Low_HMMActual","","","","","","null","","","","Images/WhiteBeadChoiceCorrect.png","","null"
"image-button-response","347","720120","0.0-13.0-0.96","89","Low_HMMActual","","","","","","543","","","","Images/NewTrialWC.png","","3"
"image-button-response","348","720424","0.0-13.0-1.96","89","Low_HMMActual","","","","","","null","","","","Images/WhiteBeadChoice.png","","null"
"image-button-response","349","720928","0.0-13.0-2.96","89","Low_HMMActual","","","","","","null","","","","Images/WhiteBeadChoiceCorrect.png","","null"
"image-button-response","350","721460","0.0-13.0-0.97","89","Low_HMMActual","","","","","","531.1000000014901","","","","Images/NewTrialWC.png","","3"
"image-button-response","351","721772","0.0-13.0-1.97","89","Low_HMMActual","","","","","","null","","","","Images/WhiteBeadChoice.png","","null"
"image-button-response","352","722276","0.0-13.0-2.97","89","Low_HMMActual","","","","","","null","","","","Images/WhiteBeadChoiceWrong.png","","null"
"image-button-response","353","723467","0.0-13.0-0.98","89","Low_HMMActual","","","","","","1188.7999999970198","","","","Images/NewTrialBC.png","","3"
"image-button-response","354","723776","0.0-13.0-1.98","89","Low_HMMActual","","","","","","null","","","","Images/WhiteBeadChoice.png","","null"
"image-button-response","355","724290","0.0-13.0-2.98","89","Low_HMMActual","","","","","","null","","","","Images/WhiteBeadChoiceWrong.png","","null"
"image-button-response","356","726251","0.0-13.0-0.99","89","Low_HMMActual","","","","","","1959.8000000044703","","","","Images/NewTrialBC.png","","1"
"image-button-response","357","726558","0.0-13.0-1.99","89","Low_HMMActual","","","","","","null","","","","Images/BlackBeadChoice.png","","null"
"image-button-response","358","727060","0.0-13.0-2.99","89","Low_HMMActual","","","","","","null","","","","Images/BlackBeadChoiceCorrect.png","","null"
"image-button-response","359","727682","0.0-13.0-0.100","89","Low_HMMActual","","","","","","620.5","","","","Images/NewTrialBC.png","","0"
"image-button-response","360","727992","0.0-13.0-1.100","89","Low_HMMActual","","","","","","null","","","","Images/BlackBeadChoice.png","","null"
"image-button-response","361","728496","0.0-13.0-2.100","89","Low_HMMActual","","","","","","null","","","","Images/BlackBeadChoiceCorrect.png","","null"
"image-button-response","362","729098","0.0-13.0-0.101","89","Low_HMMActual","","","","","","599.8999999985099","","","","Images/NewTrialBC.png","","0"
"image-button-response","363","729405","0.0-13.0-1.101","89","Low_HMMActual","","","","","","null","","","","Images/BlackBeadChoice.png","","null"
"image-button-response","364","729917","0.0-13.0-2.101","89","Low_HMMActual","","","","","","null","","","","Images/BlackBeadChoiceCorrect.png","","null"
"image-button-response","365","730615","0.0-13.0-0.102","89","Low_HMMActual","","","","","","696","","","","Images/NewTrialBC.png","","1"
"image-button-response","366","730924","0.0-13.0-1.102","89","Low_HMMActual","","","","","","null","","","","Images/BlackBeadChoice.png","","null"
"image-button-response","367","731425","0.0-13.0-2.102","89","Low_HMMActual","","","","","","null","","","","Images/BlackBeadChoiceCorrect.png","","null"
"image-button-response","368","732088","0.0-13.0-0.103","89","Low_HMMActual","","","","","","660.7000000029802","","","","Images/NewTrialBC.png","","1"
"image-button-response","369","732392","0.0-13.0-1.103","89","Low_HMMActual","","","","","","null","","","","Images/BlackBeadChoice.png","","null"
"image-button-response","370","732902","0.0-13.0-2.103","89","Low_HMMActual","","","","","","null","","","","Images/BlackBeadChoiceCorrect.png","","null"
"image-button-response","371","733438","0.0-13.0-0.104","89","Low_HMMActual","","","","","","534","","","","Images/NewTrialBC.png","","1"
"image-button-response","372","733754","0.0-13.0-1.104","89","Low_HMMActual","","","","","","null","","","","Images/BlackBeadChoice.png","","null"
"image-button-response","373","734263","0.0-13.0-2.104","89","Low_HMMActual","","","","","","null","","","","Images/BlackBeadChoiceCorrect.png","","null"
"image-button-response","374","734816","0.0-13.0-0.105","89","Low_HMMActual","","","","","","551.7000000029802","","","","Images/NewTrialBC.png","","1"
"image-button-response","375","735128","0.0-13.0-1.105","89","Low_HMMActual","","","","","","null","","","","Images/BlackBeadChoice.png","","null"
"image-button-response","376","735637","0.0-13.0-2.105","89","Low_HMMActual","","","","","","null","","","","Images/BlackBeadChoiceCorrect.png","","null"
"image-button-response","377","736166","0.0-13.0-0.106","89","Low_HMMActual","","","","","","527.7000000029802","","","","Images/NewTrialBC.png","","1"
"image-button-response","378","736472","0.0-13.0-1.106","89","Low_HMMActual","","","","","","null","","","","Images/BlackBeadChoice.png","","null"
"image-button-response","379","736986","0.0-13.0-2.106","89","Low_HMMActual","","","","","","null","","","","Images/BlackBeadChoiceCorrect.png","","null"
"image-button-response","380","737446","0.0-13.0-0.107","89","Low_HMMActual","","","","","","458.20000000298023","","","","Images/NewTrialBC.png","","1"
"image-button-response","381","737750","0.0-13.0-1.107","89","Low_HMMActual","","","","","","null","","","","Images/BlackBeadChoice.png","","null"
"image-button-response","382","738252","0.0-13.0-2.107","89","Low_HMMActual","","","","","","null","","","","Images/BlackBeadChoiceCorrect.png","","null"
"image-button-response","383","738980","0.0-13.0-0.108","89","Low_HMMActual","","","","","","726.2999999970198","","","","Images/NewTrialBC.png","","1"
"image-button-response","384","739297","0.0-13.0-1.108","89","Low_HMMActual","","","","","","null","","","","Images/BlackBeadChoice.png","","null"
"image-button-response","385","739801","0.0-13.0-2.108","89","Low_HMMActual","","","","","","null","","","","Images/BlackBeadChoiceCorrect.png","","null"
"image-button-response","386","740436","0.0-13.0-0.109","89","Low_HMMActual","","","","","","633.0999999940395","","","","Images/NewTrialBC.png","","1"
"image-button-response","387","740751","0.0-13.0-1.109","89","Low_HMMActual","","","","","","null","","","","Images/BlackBeadChoice.png","","null"
"image-button-response","388","741267","0.0-13.0-2.109","89","Low_HMMActual","","","","","","null","","","","Images/BlackBeadChoiceCorrect.png","","null"
"image-button-response","389","741652","0.0-13.0-0.110","89","Low_HMMActual","","","","","","384","","","","Images/NewTrialBC.png","","0"
"image-button-response","390","741962","0.0-13.0-1.110","89","Low_HMMActual","","","","","","null","","","","Images/BlackBeadChoice.png","","null"
"image-button-response","391","742472","0.0-13.0-2.110","89","Low_HMMActual","","","","","","null","","","","Images/BlackBeadChoiceCorrect.png","","null"
"image-button-response","392","742923","0.0-13.0-0.111","89","Low_HMMActual","","","","","","449.90000000596046","","","","Images/NewTrialBC.png","","0"
"image-button-response","393","743231","0.0-13.0-1.111","89","Low_HMMActual","","","","","","null","","","","Images/BlackBeadChoice.png","","null"
"image-button-response","394","743734","0.0-13.0-2.111","89","Low_HMMActual","","","","","","null","","","","Images/BlackBeadChoiceCorrect.png","","null"
"image-button-response","395","744235","0.0-13.0-0.112","89","Low_HMMActual","","","","","","499.8999999985099","","","","Images/NewTrialBC.png","","0"
"image-button-response","396","744538","0.0-13.0-1.112","89","Low_HMMActual","","","","","","null","","","","Images/BlackBeadChoice.png","","null"
"image-button-response","397","745040","0.0-13.0-2.112","89","Low_HMMActual","","","","","","null","","","","Images/BlackBeadChoiceCorrect.png","","null"
"image-button-response","398","745628","0.0-13.0-0.113","89","Low_HMMActual","","","","","","586.8999999985099","","","","Images/NewTrialBC.png","","1"
"image-button-response","399","745945","0.0-13.0-1.113","89","Low_HMMActual","","","","","","null","","","","Images/BlackBeadChoice.png","","null"
"image-button-response","400","746448","0.0-13.0-2.113","89","Low_HMMActual","","","","","","null","","","","Images/BlackBeadChoiceCorrect.png","","null"
"image-button-response","401","746879","0.0-13.0-0.114","89","Low_HMMActual","","","","","","428.5","","","","Images/NewTrialBC.png","","1"
"image-button-response","402","747194","0.0-13.0-1.114","89","Low_HMMActual","","","","","","null","","","","Images/BlackBeadChoice.png","","null"
"image-button-response","403","747699","0.0-13.0-2.114","89","Low_HMMActual","","","","","","null","","","","Images/BlackBeadChoiceWrong.png","","null"
"image-button-response","404","749640","0.0-13.0-0.115","89","Low_HMMActual","","","","","","1940.1999999955297","","","","Images/NewTrialWC.png","","1"
"image-button-response","405","749943","0.0-13.0-1.115","89","Low_HMMActual","","","","","","null","","","","Images/BlackBeadChoice.png","","null"
"image-button-response","406","750454","0.0-13.0-2.115","89","Low_HMMActual","","","","","","null","","","","Images/BlackBeadChoiceWrong.png","","null"
"image-button-response","407","751555","0.0-13.0-0.116","89","Low_HMMActual","","","","","","1099.0999999940395","","","","Images/NewTrialWC.png","","3"
"image-button-response","408","751864","0.0-13.0-1.116","89","Low_HMMActual","","","","","","null","","","","Images/WhiteBeadChoice.png","","null"
"image-button-response","409","752366","0.0-13.0-2.116","89","Low_HMMActual","","","","","","null","","","","Images/WhiteBeadChoiceWrong.png","","null"
"image-button-response","410","753956","0.0-13.0-0.117","89","Low_HMMActual","","","","","","1588.1000000014901","","","","Images/NewTrialBC.png","","3"
"image-button-response","411","754269","0.0-13.0-1.117","89","Low_HMMActual","","","","","","null","","","","Images/WhiteBeadChoice.png","","null"
"image-button-response","412","754779","0.0-13.0-2.117","89","Low_HMMActual","","","","","","null","","","","Images/WhiteBeadChoiceCorrect.png","","null"
"image-button-response","413","755527","0.0-13.0-0.118","89","Low_HMMActual","","","","","","747.2000000029802","","","","Images/NewTrialWC.png","","2"
"image-button-response","414","755831","0.0-13.0-1.118","89","Low_HMMActual","","","","","","null","","","","Images/WhiteBeadChoice.png","","null"
"image-button-response","415","756345","0.0-13.0-2.118","89","Low_HMMActual","","","","","","null","","","","Images/WhiteBeadChoiceWrong.png","","null"
"image-button-response","416","757411","0.0-13.0-0.119","89","Low_HMMActual","","","","","","1064.5","","","","Images/NewTrialBC.png","","3"
"image-button-response","417","757722","0.0-13.0-1.119","89","Low_HMMActual","","","","","","null","","","","Images/WhiteBeadChoice.png","","null"
"image-button-response","418","758224","0.0-13.0-2.119","89","Low_HMMActual","","","","","","null","","","","Images/WhiteBeadChoiceCorrect.png","","null"
"image-button-response","419","758653","0.0-13.0-0.120","89","Low_HMMActual","","","","","","427.29999999701977","","","","Images/NewTrialWC.png","","2"
"image-button-response","420","758957","0.0-13.0-1.120","89","Low_HMMActual","","","","","","null","","","","Images/WhiteBeadChoice.png","","null"
"image-button-response","421","759463","0.0-13.0-2.120","89","Low_HMMActual","","","","","","null","","","","Images/WhiteBeadChoiceCorrect.png","","null"
"image-button-response","422","760059","0.0-13.0-0.121","89","Low_HMMActual","","","","","","594.3999999985099","","","","Images/NewTrialWC.png","","2"
"image-button-response","423","760371","0.0-13.0-1.121","89","Low_HMMActual","","","","","","null","","","","Images/WhiteBeadChoice.png","","null"
"image-button-response","424","760887","0.0-13.0-2.121","89","Low_HMMActual","","","","","","null","","","","Images/WhiteBeadChoiceCorrect.png","","null"
"image-button-response","425","761388","0.0-13.0-0.122","89","Low_HMMActual","","","","","","499.59999999403954","","","","Images/NewTrialWC.png","","2"
"image-button-response","426","761704","0.0-13.0-1.122","89","Low_HMMActual","","","","","","null","","","","Images/WhiteBeadChoice.png","","null"
"image-button-response","427","762206","0.0-13.0-2.122","89","Low_HMMActual","","","","","","null","","","","Images/WhiteBeadChoiceCorrect.png","","null"
"image-button-response","428","762702","0.0-13.0-0.123","89","Low_HMMActual","","","","","","493","","","","Images/NewTrialWC.png","","2"
"image-button-response","429","763005","0.0-13.0-1.123","89","Low_HMMActual","","","","","","null","","","","Images/WhiteBeadChoice.png","","null"
"image-button-response","430","763507","0.0-13.0-2.123","89","Low_HMMActual","","","","","","null","","","","Images/WhiteBeadChoiceCorrect.png","","null"
"image-button-response","431","765805","0.0-13.0-0.124","89","Low_HMMActual","","","","","","2295.60000000149","","","","Images/NewTrialWC.png","","3"
"image-button-response","432","766118","0.0-13.0-1.124","89","Low_HMMActual","","","","","","null","","","","Images/WhiteBeadChoice.png","","null"
"image-button-response","433","766625","0.0-13.0-2.124","89","Low_HMMActual","","","","","","null","","","","Images/WhiteBeadChoiceWrong.png","","null"
"image-button-response","434","772771","0.0-13.0-0.125","89","Low_HMMActual","","","","","","6145.20000000298","","","","Images/NewTrialBC.png","","3"
"image-button-response","435","773088","0.0-13.0-1.125","89","Low_HMMActual","","","","","","null","","","","Images/WhiteBeadChoice.png","","null"
"image-button-response","436","773591","0.0-13.0-2.125","89","Low_HMMActual","","","","","","null","","","","Images/WhiteBeadChoiceCorrect.png","","null"
"image-button-response","437","775193","0.0-13.0-0.126","89","Low_HMMActual","","","","","","1600.3000000044703","","","","Images/NewTrialWC.png","","2"
"image-button-response","438","775496","0.0-13.0-1.126","89","Low_HMMActual","","","","","","null","","","","Images/WhiteBeadChoice.png","","null"
"image-button-response","439","776003","0.0-13.0-2.126","89","Low_HMMActual","","","","","","null","","","","Images/WhiteBeadChoiceWrong.png","","null"
"image-button-response","440","780615","0.0-13.0-0.127","89","Low_HMMActual","","","","","","4609.20000000298","","","","Images/NewTrialBC.png","","3"
"image-button-response","441","780929","0.0-13.0-1.127","89","Low_HMMActual","","","","","","null","","","","Images/WhiteBeadChoice.png","","null"
"image-button-response","442","781431","0.0-13.0-2.127","89","Low_HMMActual","","","","","","null","","","","Images/WhiteBeadChoiceWrong.png","","null"
"image-button-response","443","782121","0.0-13.0-0.128","89","Low_HMMActual","","","","","","688.4000000059605","","","","Images/NewTrialBC.png","","1"
"image-button-response","444","782428","0.0-13.0-1.128","89","Low_HMMActual","","","","","","null","","","","Images/BlackBeadChoice.png","","null"
"image-button-response","445","782930","0.0-13.0-2.128","89","Low_HMMActual","","","","","","null","","","","Images/BlackBeadChoiceCorrect.png","","null"
"image-button-response","446","783579","0.0-13.0-0.129","89","Low_HMMActual","","","","","","647.6999999955297","","","","Images/NewTrialBC.png","","0"
"image-button-response","447","783894","0.0-13.0-1.129","89","Low_HMMActual","","","","","","null","","","","Images/BlackBeadChoice.png","","null"
"image-button-response","448","784398","0.0-13.0-2.129","89","Low_HMMActual","","","","","","null","","","","Images/BlackBeadChoiceWrong.png","","null"
"image-button-response","449","784887","0.0-13.0-0.130","89","Low_HMMActual","","","","","","487.40000000596046","","","","Images/NewTrialWC.png","","1"
"image-button-response","450","785190","0.0-13.0-1.130","89","Low_HMMActual","","","","","","null","","","","Images/BlackBeadChoice.png","","null"
"image-button-response","451","785693","0.0-13.0-2.130","89","Low_HMMActual","","","","","","null","","","","Images/BlackBeadChoiceWrong.png","","null"
"image-button-response","452","786541","0.0-13.0-0.131","89","Low_HMMActual","","","","","","846.4000000059605","","","","Images/NewTrialWC.png","","3"
"image-button-response","453","786857","0.0-13.0-1.131","89","Low_HMMActual","","","","","","null","","","","Images/WhiteBeadChoice.png","","null"
"image-button-response","454","787375","0.0-13.0-2.131","89","Low_HMMActual","","","","","","null","","","","Images/WhiteBeadChoiceWrong.png","","null"
"image-button-response","455","788589","0.0-13.0-0.132","89","Low_HMMActual","","","","","","1212.3000000044703","","","","Images/NewTrialBC.png","","3"
"image-button-response","456","788903","0.0-13.0-1.132","89","Low_HMMActual","","","","","","null","","","","Images/WhiteBeadChoice.png","","null"
"image-button-response","457","789404","0.0-13.0-2.132","89","Low_HMMActual","","","","","","null","","","","Images/WhiteBeadChoiceWrong.png","","null"
"image-button-response","458","790329","0.0-13.0-0.133","89","Low_HMMActual","","","","","","923.3000000044703","","","","Images/NewTrialBC.png","","1"
"image-button-response","459","790634","0.0-13.0-1.133","89","Low_HMMActual","","","","","","null","","","","Images/BlackBeadChoice.png","","null"
"image-button-response","460","791146","0.0-13.0-2.133","89","Low_HMMActual","","","","","","null","","","","Images/BlackBeadChoiceWrong.png","","null"
"image-button-response","461","792252","0.0-13.0-0.134","89","Low_HMMActual","","","","","","1104.5","","","","Images/NewTrialWC.png","","1"
"image-button-response","462","792565","0.0-13.0-1.134","89","Low_HMMActual","","","","","","null","","","","Images/BlackBeadChoice.png","","null"
"image-button-response","463","793067","0.0-13.0-2.134","89","Low_HMMActual","","","","","","null","","","","Images/BlackBeadChoiceCorrect.png","","null"
"image-button-response","464","793485","0.0-13.0-0.135","89","Low_HMMActual","","","","","","417","","","","Images/NewTrialBC.png","","0"
"image-button-response","465","793791","0.0-13.0-1.135","89","Low_HMMActual","","","","","","null","","","","Images/BlackBeadChoice.png","","null"
"image-button-response","466","794294","0.0-13.0-2.135","89","Low_HMMActual","","","","","","null","","","","Images/BlackBeadChoiceWrong.png","","null"
"image-button-response","467","796388","0.0-13.0-0.136","89","Low_HMMActual","","","","","","2092.2999999970198","","","","Images/NewTrialWC.png","","1"
"image-button-response","468","796694","0.0-13.0-1.136","89","Low_HMMActual","","","","","","null","","","","Images/BlackBeadChoice.png","","null"
"image-button-response","469","797209","0.0-13.0-2.136","89","Low_HMMActual","","","","","","null","","","","Images/BlackBeadChoiceCorrect.png","","null"
"image-button-response","470","797753","0.0-13.0-0.137","89","Low_HMMActual","","","","","","542.5","","","","Images/NewTrialBC.png","","0"
"image-button-response","471","798059","0.0-13.0-1.137","89","Low_HMMActual","","","","","","null","","","","Images/BlackBeadChoice.png","","null"
"image-button-response","472","798576","0.0-13.0-2.137","89","Low_HMMActual","","","","","","null","","","","Images/BlackBeadChoiceWrong.png","","null"
"image-button-response","473","799460","0.0-13.0-0.138","89","Low_HMMActual","","","","","","882.4000000059605","","","","Images/NewTrialWC.png","","3"
"image-button-response","474","799763","0.0-13.0-1.138","89","Low_HMMActual","","","","","","null","","","","Images/WhiteBeadChoice.png","","null"
"image-button-response","475","800276","0.0-13.0-2.138","89","Low_HMMActual","","","","","","null","","","","Images/WhiteBeadChoiceWrong.png","","null"
"image-button-response","476","800773","0.0-13.0-0.139","89","Low_HMMActual","","","","","","494.6000000014901","","","","Images/NewTrialBC.png","","3"
"image-button-response","477","801076","0.0-13.0-1.139","89","Low_HMMActual","","","","","","null","","","","Images/WhiteBeadChoice.png","","null"
"image-button-response","478","801590","0.0-13.0-2.139","89","Low_HMMActual","","","","","","null","","","","Images/WhiteBeadChoiceCorrect.png","","null"
"image-button-response","479","802069","0.0-13.0-0.140","89","Low_HMMActual","","","","","","477.3999999985099","","","","Images/NewTrialWC.png","","2"
"image-button-response","480","802385","0.0-13.0-1.140","89","Low_HMMActual","","","","","","null","","","","Images/WhiteBeadChoice.png","","null"
"image-button-response","481","802898","0.0-13.0-2.140","89","Low_HMMActual","","","","","","null","","","","Images/WhiteBeadChoiceCorrect.png","","null"
"image-button-response","482","803452","0.0-13.0-0.141","89","Low_HMMActual","","","","","","552.6000000014901","","","","Images/NewTrialWC.png","","2"
"image-button-response","483","803770","0.0-13.0-1.141","89","Low_HMMActual","","","","","","null","","","","Images/WhiteBeadChoice.png","","null"
"image-button-response","484","804272","0.0-13.0-2.141","89","Low_HMMActual","","","","","","null","","","","Images/WhiteBeadChoiceWrong.png","","null"
"image-button-response","485","805702","0.0-13.0-0.142","89","Low_HMMActual","","","","","","1428.7999999970198","","","","Images/NewTrialBC.png","","3"
"image-button-response","486","806007","0.0-13.0-1.142","89","Low_HMMActual","","","","","","null","","","","Images/WhiteBeadChoice.png","","null"
"image-button-response","487","806514","0.0-13.0-2.142","89","Low_HMMActual","","","","","","null","","","","Images/WhiteBeadChoiceCorrect.png","","null"
"image-button-response","488","807075","0.0-13.0-0.143","89","Low_HMMActual","","","","","","558.9000000059605","","","","Images/NewTrialWC.png","","3"
"image-button-response","489","807387","0.0-13.0-1.143","89","Low_HMMActual","","","","","","null","","","","Images/WhiteBeadChoice.png","","null"
"image-button-response","490","807889","0.0-13.0-2.143","89","Low_HMMActual","","","","","","null","","","","Images/WhiteBeadChoiceWrong.png","","null"
"image-button-response","491","808940","0.0-13.0-0.144","89","Low_HMMActual","","","","","","1049","","","","Images/NewTrialBC.png","","3"
"image-button-response","492","809251","0.0-13.0-1.144","89","Low_HMMActual","","","","","","null","","","","Images/WhiteBeadChoice.png","","null"
"image-button-response","493","809753","0.0-13.0-2.144","89","Low_HMMActual","","","","","","null","","","","Images/WhiteBeadChoiceCorrect.png","","null"
"image-button-response","494","810280","0.0-13.0-0.145","89","Low_HMMActual","","","","","","525","","","","Images/NewTrialWC.png","","2"
"image-button-response","495","810587","0.0-13.0-1.145","89","Low_HMMActual","","","","","","null","","","","Images/WhiteBeadChoice.png","","null"
"image-button-response","496","811101","0.0-13.0-2.145","89","Low_HMMActual","","","","","","null","","","","Images/WhiteBeadChoiceCorrect.png","","null"
"image-button-response","497","811655","0.0-13.0-0.146","89","Low_HMMActual","","","","","","551.7000000029802","","","","Images/NewTrialWC.png","","2"
"image-button-response","498","811965","0.0-13.0-1.146","89","Low_HMMActual","","","","","","null","","","","Images/WhiteBeadChoice.png","","null"
"image-button-response","499","812471","0.0-13.0-2.146","89","Low_HMMActual","","","","","","null","","","","Images/WhiteBeadChoiceWrong.png","","null"
"image-button-response","500","813201","0.0-13.0-0.147","89","Low_HMMActual","","","","","","728.5999999940395","","","","Images/NewTrialBC.png","","3"
"image-button-response","501","813516","0.0-13.0-1.147","89","Low_HMMActual","","","","","","null","","","","Images/WhiteBeadChoice.png","","null"
"image-button-response","502","814018","0.0-13.0-2.147","89","Low_HMMActual","","","","","","null","","","","Images/WhiteBeadChoiceCorrect.png","","null"
"image-button-response","503","814635","0.0-13.0-0.148","89","Low_HMMActual","","","","","","614.8999999985099","","","","Images/NewTrialWC.png","","2"
"image-button-response","504","814949","0.0-13.0-1.148","89","Low_HMMActual","","","","","","null","","","","Images/WhiteBeadChoice.png","","null"
"image-button-response","505","815464","0.0-13.0-2.148","89","Low_HMMActual","","","","","","null","","","","Images/WhiteBeadChoiceCorrect.png","","null"
"image-button-response","506","815887","0.0-13.0-0.149","89","Low_HMMActual","","","","","","421.1000000014901","","","","Images/NewTrialWC.png","","2"
"image-button-response","507","816196","0.0-13.0-1.149","89","Low_HMMActual","","","","","","null","","","","Images/WhiteBeadChoice.png","","null"
"image-button-response","508","816703","0.0-13.0-2.149","89","Low_HMMActual","","","","","","null","","","","Images/WhiteBeadChoiceWrong.png","","null"
"image-button-response","509","817432","0.0-13.0-0.150","89","Low_HMMActual","","","","","","726.7999999970198","","","","Images/NewTrialBC.png","","3"
"image-button-response","510","817746","0.0-13.0-1.150","89","Low_HMMActual","","","","","","null","","","","Images/WhiteBeadChoice.png","","null"
"image-button-response","511","818249","0.0-13.0-2.150","89","Low_HMMActual","","","","","","null","","","","Images/WhiteBeadChoiceCorrect.png","","null"
"image-button-response","512","818702","0.0-13.0-0.151","89","Low_HMMActual","","","","","","451.40000000596046","","","","Images/NewTrialWC.png","","2"
"image-button-response","513","819014","0.0-13.0-1.151","89","Low_HMMActual","","","","","","null","","","","Images/WhiteBeadChoice.png","","null"
"image-button-response","514","819517","0.0-13.0-2.151","89","Low_HMMActual","","","","","","null","","","","Images/WhiteBeadChoiceWrong.png","","null"
"image-button-response","515","820106","0.0-13.0-0.152","89","Low_HMMActual","","","","","","587.1000000014901","","","","Images/NewTrialBC.png","","3"
"image-button-response","516","820413","0.0-13.0-1.152","89","Low_HMMActual","","","","","","null","","","","Images/WhiteBeadChoice.png","","null"
"image-button-response","517","820915","0.0-13.0-2.152","89","Low_HMMActual","","","","","","null","","","","Images/WhiteBeadChoiceWrong.png","","null"
"image-button-response","518","821485","0.0-13.0-0.153","89","Low_HMMActual","","","","","","567.8000000044703","","","","Images/NewTrialBC.png","","1"
"image-button-response","519","821794","0.0-13.0-1.153","89","Low_HMMActual","","","","","","null","","","","Images/BlackBeadChoice.png","","null"
"image-button-response","520","822314","0.0-13.0-2.153","89","Low_HMMActual","","","","","","null","","","","Images/BlackBeadChoiceCorrect.png","","null"
"image-button-response","521","822941","0.0-13.0-0.154","89","Low_HMMActual","","","","","","624.8000000044703","","","","Images/NewTrialBC.png","","0"
"image-button-response","522","823249","0.0-13.0-1.154","89","Low_HMMActual","","","","","","null","","","","Images/BlackBeadChoice.png","","null"
"image-button-response","523","823765","0.0-13.0-2.154","89","Low_HMMActual","","","","","","null","","","","Images/BlackBeadChoiceCorrect.png","","null"
"image-button-response","524","824374","0.0-13.0-0.155","89","Low_HMMActual","","","","","","606.8999999985099","","","","Images/NewTrialBC.png","","0"
"image-button-response","525","824678","0.0-13.0-1.155","89","Low_HMMActual","","","","","","null","","","","Images/BlackBeadChoice.png","","null"
"image-button-response","526","825179","0.0-13.0-2.155","89","Low_HMMActual","","","","","","null","","","","Images/BlackBeadChoiceCorrect.png","","null"
"image-button-response","527","825431","0.0-13.0-0.156","89","Low_HMMActual","","","","","","249.40000000596046","","","","Images/NewTrialBC.png","","0"
"image-button-response","528","825741","0.0-13.0-1.156","89","Low_HMMActual","","","","","","null","","","","Images/BlackBeadChoice.png","","null"
"image-button-response","529","826243","0.0-13.0-2.156","89","Low_HMMActual","","","","","","null","","","","Images/BlackBeadChoiceCorrect.png","","null"
"image-button-response","530","826627","0.0-13.0-0.157","89","Low_HMMActual","","","","","","382.3999999985099","","","","Images/NewTrialBC.png","","0"
"image-button-response","531","826942","0.0-13.0-1.157","89","Low_HMMActual","","","","","","null","","","","Images/BlackBeadChoice.png","","null"
"image-button-response","532","827447","0.0-13.0-2.157","89","Low_HMMActual","","","","","","null","","","","Images/BlackBeadChoiceCorrect.png","","null"
"image-button-response","533","828328","0.0-13.0-0.158","89","Low_HMMActual","","","","","","879.8999999985099","","","","Images/NewTrialBC.png","","1"
"image-button-response","534","828641","0.0-13.0-1.158","89","Low_HMMActual","","","","","","null","","","","Images/BlackBeadChoice.png","","null"
"image-button-response","535","829153","0.0-13.0-2.158","89","Low_HMMActual","","","","","","null","","","","Images/BlackBeadChoiceCorrect.png","","null"
"image-button-response","536","829450","0.0-13.0-0.159","89","Low_HMMActual","","","","","","295.8999999985099","","","","Images/NewTrialBC.png","","1"
"image-button-response","537","829757","0.0-13.0-1.159","89","Low_HMMActual","","","","","","null","","","","Images/BlackBeadChoice.png","","null"
"image-button-response","538","830263","0.0-13.0-2.159","89","Low_HMMActual","","","","","","null","","","","Images/BlackBeadChoiceCorrect.png","","null"
"image-button-response","539","830550","0.0-13.0-0.160","89","Low_HMMActual","","","","","","286","","","","Images/NewTrialBC.png","","1"
"image-button-response","540","830854","0.0-13.0-1.160","89","Low_HMMActual","","","","","","null","","","","Images/BlackBeadChoice.png","","null"
"image-button-response","541","831364","0.0-13.0-2.160","89","Low_HMMActual","","","","","","null","","","","Images/BlackBeadChoiceCorrect.png","","null"
"image-button-response","542","831765","0.0-13.0-0.161","89","Low_HMMActual","","","","","","398.6000000014901","","","","Images/NewTrialBC.png","","1"
"image-button-response","543","832071","0.0-13.0-1.161","89","Low_HMMActual","","","","","","null","","","","Images/BlackBeadChoice.png","","null"
"image-button-response","544","832577","0.0-13.0-2.161","89","Low_HMMActual","","","","","","null","","","","Images/BlackBeadChoiceCorrect.png","","null"
"image-button-response","545","832960","0.0-13.0-0.162","89","Low_HMMActual","","","","","","381.59999999403954","","","","Images/NewTrialBC.png","","1"
"image-button-response","546","833265","0.0-13.0-1.162","89","Low_HMMActual","","","","","","null","","","","Images/BlackBeadChoice.png","","null"
"image-button-response","547","833777","0.0-13.0-2.162","89","Low_HMMActual","","","","","","null","","","","Images/BlackBeadChoiceCorrect.png","","null"
"image-button-response","548","834349","0.0-13.0-0.163","89","Low_HMMActual","","","","","","570.6000000014901","","","","Images/NewTrialBC.png","","0"
"image-button-response","549","834653","0.0-13.0-1.163","89","Low_HMMActual","","","","","","null","","","","Images/BlackBeadChoice.png","","null"
"image-button-response","550","835156","0.0-13.0-2.163","89","Low_HMMActual","","","","","","null","","","","Images/BlackBeadChoiceCorrect.png","","null"
"image-button-response","551","835670","0.0-13.0-0.164","89","Low_HMMActual","","","","","","512.5","","","","Images/NewTrialBC.png","","0"
"image-button-response","552","835972","0.0-13.0-1.164","89","Low_HMMActual","","","","","","null","","","","Images/BlackBeadChoice.png","","null"
"image-button-response","553","836475","0.0-13.0-2.164","89","Low_HMMActual","","","","","","null","","","","Images/BlackBeadChoiceCorrect.png","","null"
"image-button-response","554","837288","0.0-13.0-0.165","89","Low_HMMActual","","","","","","811.1000000014901","","","","Images/NewTrialBC.png","","1"
"image-button-response","555","837604","0.0-13.0-1.165","89","Low_HMMActual","","","","","","null","","","","Images/BlackBeadChoice.png","","null"
"image-button-response","556","838105","0.0-13.0-2.165","89","Low_HMMActual","","","","","","null","","","","Images/BlackBeadChoiceWrong.png","","null"
"image-button-response","557","839144","0.0-13.0-0.166","89","Low_HMMActual","","","","","","1037.7999999970198","","","","Images/NewTrialWC.png","","1"
"image-button-response","558","839454","0.0-13.0-1.166","89","Low_HMMActual","","","","","","null","","","","Images/BlackBeadChoice.png","","null"
"image-button-response","559","839956","0.0-13.0-2.166","89","Low_HMMActual","","","","","","null","","","","Images/BlackBeadChoiceCorrect.png","","null"
"image-button-response","560","840389","0.0-13.0-0.167","89","Low_HMMActual","","","","","","431.20000000298023","","","","Images/NewTrialBC.png","","0"
"image-button-response","561","840704","0.0-13.0-1.167","89","Low_HMMActual","","","","","","null","","","","Images/BlackBeadChoice.png","","null"
"image-button-response","562","841215","0.0-13.0-2.167","89","Low_HMMActual","","","","","","null","","","","Images/BlackBeadChoiceCorrect.png","","null"
"image-button-response","563","841545","0.0-13.0-0.168","89","Low_HMMActual","","","","","","328.8999999985099","","","","Images/NewTrialBC.png","","0"
"image-button-response","564","841853","0.0-13.0-1.168","89","Low_HMMActual","","","","","","null","","","","Images/BlackBeadChoice.png","","null"
"image-button-response","565","842356","0.0-13.0-2.168","89","Low_HMMActual","","","","","","null","","","","Images/BlackBeadChoiceCorrect.png","","null"
"image-button-response","566","842852","0.0-13.0-0.169","89","Low_HMMActual","","","","","","494.8999999985099","","","","Images/NewTrialBC.png","","0"
"image-button-response","567","843184","0.0-13.0-1.169","89","Low_HMMActual","","","","","","null","","","","Images/BlackBeadChoice.png","","null"
"image-button-response","568","843690","0.0-13.0-2.169","89","Low_HMMActual","","","","","","null","","","","Images/BlackBeadChoiceCorrect.png","","null"
"image-button-response","569","844051","0.0-13.0-0.170","89","Low_HMMActual","","","","","","359.79999999701977","","","","Images/NewTrialBC.png","","0"
"image-button-response","570","844367","0.0-13.0-1.170","89","Low_HMMActual","","","","","","null","","","","Images/BlackBeadChoice.png","","null"
"image-button-response","571","844873","0.0-13.0-2.170","89","Low_HMMActual","","","","","","null","","","","Images/BlackBeadChoiceWrong.png","","null"
"image-button-response","572","845864","0.0-13.0-0.171","89","Low_HMMActual","","","","","","990","","","","Images/NewTrialWC.png","","1"
"image-button-response","573","846170","0.0-13.0-1.171","89","Low_HMMActual","","","","","","null","","","","Images/BlackBeadChoice.png","","null"
"image-button-response","574","846683","0.0-13.0-2.171","89","Low_HMMActual","","","","","","null","","","","Images/BlackBeadChoiceCorrect.png","","null"
"image-button-response","575","847438","0.0-13.0-0.172","89","Low_HMMActual","","","","","","753.8999999985099","","","","Images/NewTrialBC.png","","0"
"image-button-response","576","847751","0.0-13.0-1.172","89","Low_HMMActual","","","","","","null","","","","Images/BlackBeadChoice.png","","null"
"image-button-response","577","848254","0.0-13.0-2.172","89","Low_HMMActual","","","","","","null","","","","Images/BlackBeadChoiceCorrect.png","","null"
"image-button-response","578","848732","0.0-13.0-0.173","89","Low_HMMActual","","","","","","476","","","","Images/NewTrialBC.png","","0"
"image-button-response","579","849049","0.0-13.0-1.173","89","Low_HMMActual","","","","","","null","","","","Images/BlackBeadChoice.png","","null"
"image-button-response","580","849554","0.0-13.0-2.173","89","Low_HMMActual","","","","","","null","","","","Images/BlackBeadChoiceCorrect.png","","null"
"image-button-response","581","849724","0.0-13.0-0.174","89","Low_HMMActual","","","","","","168.30000000447035","","","","Images/NewTrialBC.png","","0"
"image-button-response","582","850032","0.0-13.0-1.174","89","Low_HMMActual","","","","","","null","","","","Images/BlackBeadChoice.png","","null"
"image-button-response","583","850533","0.0-13.0-2.174","89","Low_HMMActual","","","","","","null","","","","Images/BlackBeadChoiceCorrect.png","","null"
"image-button-response","584","851764","0.0-13.0-0.175","89","Low_HMMActual","","","","","","1229.1999999955297","","","","Images/NewTrialBC.png","","0"
"image-button-response","585","852080","0.0-13.0-1.175","89","Low_HMMActual","","","","","","null","","","","Images/BlackBeadChoice.png","","null"
"image-button-response","586","852584","0.0-13.0-2.175","89","Low_HMMActual","","","","","","null","","","","Images/BlackBeadChoiceCorrect.png","","null"
"image-button-response","587","852751","0.0-13.0-0.176","89","Low_HMMActual","","","","","","165.60000000149012","","","","Images/NewTrialBC.png","","0"
"image-button-response","588","853063","0.0-13.0-1.176","89","Low_HMMActual","","","","","","null","","","","Images/BlackBeadChoice.png","","null"
"image-button-response","589","853570","0.0-13.0-2.176","89","Low_HMMActual","","","","","","null","","","","Images/BlackBeadChoiceCorrect.png","","null"
"image-button-response","590","853767","0.0-13.0-0.177","89","Low_HMMActual","","","","","","195.60000000149012","","","","Images/NewTrialBC.png","","0"
"image-button-response","591","854082","0.0-13.0-1.177","89","Low_HMMActual","","","","","","null","","","","Images/BlackBeadChoice.png","","null"
"image-button-response","592","854593","0.0-13.0-2.177","89","Low_HMMActual","","","","","","null","","","","Images/BlackBeadChoiceCorrect.png","","null"
"image-button-response","593","855742","0.0-13.0-0.178","89","Low_HMMActual","","","","","","1146.7999999970198","","","","Images/NewTrialBC.png","","0"
"image-button-response","594","856051","0.0-13.0-1.178","89","Low_HMMActual","","","","","","null","","","","Images/BlackBeadChoice.png","","null"
"image-button-response","595","856561","0.0-13.0-2.178","89","Low_HMMActual","","","","","","null","","","","Images/BlackBeadChoiceCorrect.png","","null"
"image-button-response","596","857156","0.0-13.0-0.179","89","Low_HMMActual","","","","","","592.6000000014901","","","","Images/NewTrialBC.png","","0"
"image-button-response","597","857462","0.0-13.0-1.179","89","Low_HMMActual","","","","","","null","","","","Images/BlackBeadChoice.png","","null"
"image-button-response","598","857968","0.0-13.0-2.179","89","Low_HMMActual","","","","","","null","","","","Images/BlackBeadChoiceWrong.png","","null"
"image-button-response","599","859131","0.0-13.0-0.180","89","Low_HMMActual","","","","","","1162.1000000014901","","","","Images/NewTrialWC.png","","1"
"image-button-response","600","859446","0.0-13.0-1.180","89","Low_HMMActual","","","","","","null","","","","Images/BlackBeadChoice.png","","null"
"image-button-response","601","859950","0.0-13.0-2.180","89","Low_HMMActual","","","","","","null","","","","Images/BlackBeadChoiceCorrect.png","","null"
"image-button-response","602","860504","0.0-13.0-0.181","89","Low_HMMActual","","","","","","553.4000000059605","","","","Images/NewTrialBC.png","","0"
"image-button-response","603","860812","0.0-13.0-1.181","89","Low_HMMActual","","","","","","null","","","","Images/BlackBeadChoice.png","","null"
"image-button-response","604","861316","0.0-13.0-2.181","89","Low_HMMActual","","","","","","null","","","","Images/BlackBeadChoiceWrong.png","","null"
"image-button-response","605","862132","0.0-13.0-0.182","89","Low_HMMActual","","","","","","815.1000000014901","","","","Images/NewTrialWC.png","","1"
"image-button-response","606","862443","0.0-13.0-1.182","89","Low_HMMActual","","","","","","null","","","","Images/BlackBeadChoice.png","","null"
"image-button-response","607","862945","0.0-13.0-2.182","89","Low_HMMActual","","","","","","null","","","","Images/BlackBeadChoiceWrong.png","","null"
"image-button-response","608","863568","0.0-13.0-0.183","89","Low_HMMActual","","","","","","620.6000000014901","","","","Images/NewTrialWC.png","","3"
"image-button-response","609","863875","0.0-13.0-1.183","89","Low_HMMActual","","","","","","null","","","","Images/WhiteBeadChoice.png","","null"
"image-button-response","610","864377","0.0-13.0-2.183","89","Low_HMMActual","","","","","","null","","","","Images/WhiteBeadChoiceCorrect.png","","null"
"image-button-response","611","864751","0.0-13.0-0.184","89","Low_HMMActual","","","","","","372.8999999985099","","","","Images/NewTrialWC.png","","2"
"image-button-response","612","865058","0.0-13.0-1.184","89","Low_HMMActual","","","","","","null","","","","Images/WhiteBeadChoice.png","","null"
"image-button-response","613","865566","0.0-13.0-2.184","89","Low_HMMActual","","","","","","null","","","","Images/WhiteBeadChoiceCorrect.png","","null"
"image-button-response","614","865920","0.0-13.0-0.185","89","Low_HMMActual","","","","","","353.1000000014901","","","","Images/NewTrialWC.png","","2"
"image-button-response","615","866228","0.0-13.0-1.185","89","Low_HMMActual","","","","","","null","","","","Images/WhiteBeadChoice.png","","null"
"image-button-response","616","866738","0.0-13.0-2.185","89","Low_HMMActual","","","","","","null","","","","Images/WhiteBeadChoiceCorrect.png","","null"
"image-button-response","617","867143","0.0-13.0-0.186","89","Low_HMMActual","","","","","","403.8999999985099","","","","Images/NewTrialWC.png","","2"
"image-button-response","618","867445","0.0-13.0-1.186","89","Low_HMMActual","","","","","","null","","","","Images/WhiteBeadChoice.png","","null"
"image-button-response","619","867961","0.0-13.0-2.186","89","Low_HMMActual","","","","","","null","","","","Images/WhiteBeadChoiceWrong.png","","null"
"image-button-response","620","868419","0.0-13.0-0.187","89","Low_HMMActual","","","","","","452.3999999985099","","","","Images/NewTrialBC.png","","3"
"image-button-response","621","868722","0.0-13.0-1.187","89","Low_HMMActual","","","","","","null","","","","Images/WhiteBeadChoice.png","","null"
"image-button-response","622","869223","0.0-13.0-2.187","89","Low_HMMActual","","","","","","null","","","","Images/WhiteBeadChoiceWrong.png","","null"
"image-button-response","623","869827","0.0-13.0-0.188","89","Low_HMMActual","","","","","","602.7000000029802","","","","Images/NewTrialBC.png","","1"
"image-button-response","624","870133","0.0-13.0-1.188","89","Low_HMMActual","","","","","","null","","","","Images/BlackBeadChoice.png","","null"
"image-button-response","625","870639","0.0-13.0-2.188","89","Low_HMMActual","","","","","","null","","","","Images/BlackBeadChoiceWrong.png","","null"
"image-button-response","626","871586","0.0-13.0-0.189","89","Low_HMMActual","","","","","","945.7000000029802","","","","Images/NewTrialWC.png","","1"
"image-button-response","627","871895","0.0-13.0-1.189","89","Low_HMMActual","","","","","","null","","","","Images/BlackBeadChoice.png","","null"
"image-button-response","628","872407","0.0-13.0-2.189","89","Low_HMMActual","","","","","","null","","","","Images/BlackBeadChoiceWrong.png","","null"
"image-button-response","629","873037","0.0-13.0-0.190","89","Low_HMMActual","","","","","","628.8000000044703","","","","Images/NewTrialWC.png","","3"
"image-button-response","630","873340","0.0-13.0-1.190","89","Low_HMMActual","","","","","","null","","","","Images/WhiteBeadChoice.png","","null"
"image-button-response","631","873841","0.0-13.0-2.190","89","Low_HMMActual","","","","","","null","","","","Images/WhiteBeadChoiceCorrect.png","","null"
"image-button-response","632","874345","0.0-13.0-0.191","89","Low_HMMActual","","","","","","502.59999999403954","","","","Images/NewTrialWC.png","","2"
"image-button-response","633","874656","0.0-13.0-1.191","89","Low_HMMActual","","","","","","null","","","","Images/WhiteBeadChoice.png","","null"
"image-button-response","634","875160","0.0-13.0-2.191","89","Low_HMMActual","","","","","","null","","","","Images/WhiteBeadChoiceWrong.png","","null"
"image-button-response","635","875815","0.0-13.0-0.192","89","Low_HMMActual","","","","","","653.5","","","","Images/NewTrialBC.png","","3"
"image-button-response","636","876121","0.0-13.0-1.192","89","Low_HMMActual","","","","","","null","","","","Images/WhiteBeadChoice.png","","null"
"image-button-response","637","876623","0.0-13.0-2.192","89","Low_HMMActual","","","","","","null","","","","Images/WhiteBeadChoiceCorrect.png","","null"
"image-button-response","638","877145","0.0-13.0-0.193","89","Low_HMMActual","","","","","","521","","","","Images/NewTrialWC.png","","2"
"image-button-response","639","877475","0.0-13.0-1.193","89","Low_HMMActual","","","","","","null","","","","Images/WhiteBeadChoice.png","","null"
"image-button-response","640","877987","0.0-13.0-2.193","89","Low_HMMActual","","","","","","null","","","","Images/WhiteBeadChoiceCorrect.png","","null"
"image-button-response","641","878396","0.0-13.0-0.194","89","Low_HMMActual","","","","","","407.5","","","","Images/NewTrialWC.png","","2"
"image-button-response","642","878702","0.0-13.0-1.194","89","Low_HMMActual","","","","","","null","","","","Images/WhiteBeadChoice.png","","null"
"image-button-response","643","879205","0.0-13.0-2.194","89","Low_HMMActual","","","","","","null","","","","Images/WhiteBeadChoiceCorrect.png","","null"
"image-button-response","644","879639","0.0-13.0-0.195","89","Low_HMMActual","","","","","","432.8999999985099","","","","Images/NewTrialWC.png","","2"
"image-button-response","645","879947","0.0-13.0-1.195","89","Low_HMMActual","","","","","","null","","","","Images/WhiteBeadChoice.png","","null"
"image-button-response","646","880451","0.0-13.0-2.195","89","Low_HMMActual","","","","","","null","","","","Images/WhiteBeadChoiceWrong.png","","null"
"image-button-response","647","880947","0.0-13.0-0.196","89","Low_HMMActual","","","","","","494.5","","","","Images/NewTrialBC.png","","3"
"image-button-response","648","881248","0.0-13.0-1.196","89","Low_HMMActual","","","","","","null","","","","Images/WhiteBeadChoice.png","","null"
"image-button-response","649","881751","0.0-13.0-2.196","89","Low_HMMActual","","","","","","null","","","","Images/WhiteBeadChoiceWrong.png","","null"
"image-button-response","650","882413","0.0-13.0-0.197","89","Low_HMMActual","","","","","","661.3000000044703","","","","Images/NewTrialBC.png","","1"
"image-button-response","651","882721","0.0-13.0-1.197","89","Low_HMMActual","","","","","","null","","","","Images/BlackBeadChoice.png","","null"
"image-button-response","652","883223","0.0-13.0-2.197","89","Low_HMMActual","","","","","","null","","","","Images/BlackBeadChoiceWrong.png","","null"
"image-button-response","653","884423","0.0-13.0-0.198","89","Low_HMMActual","","","","","","1199.6000000014901","","","","Images/NewTrialWC.png","","1"
"image-button-response","654","884737","0.0-13.0-1.198","89","Low_HMMActual","","","","","","null","","","","Images/BlackBeadChoice.png","","null"
"image-button-response","655","885253","0.0-13.0-2.198","89","Low_HMMActual","","","","","","null","","","","Images/BlackBeadChoiceCorrect.png","","null"
"image-button-response","656","887168","0.0-13.0-0.199","89","Low_HMMActual","","","","","","1914","","","","Images/NewTrialBC.png","","1"
"image-button-response","657","887485","0.0-13.0-1.199","89","Low_HMMActual","","","","","","null","","","","Images/BlackBeadChoice.png","","null"
"image-button-response","658","887995","0.0-13.0-2.199","89","Low_HMMActual","","","","","","null","","","","Images/BlackBeadChoiceWrong.png","","null"
"image-button-response","659","888876","0.0-13.0-0.200","89","Low_HMMActual","","","","","","879.6000000014901","","","","Images/NewTrialWC.png","","1"
"image-button-response","660","889188","0.0-13.0-1.200","89","Low_HMMActual","","","","","","null","","","","Images/BlackBeadChoice.png","","null"
"image-button-response","661","889689","0.0-13.0-2.200","89","Low_HMMActual","","","","","","null","","","","Images/BlackBeadChoiceWrong.png","","null"
"image-button-response","662","890505","0.0-13.0-0.201","89","Low_HMMActual","","","","","","814.3000000044703","","","","Images/NewTrialWC.png","","3"
"image-button-response","663","890814","0.0-13.0-1.201","89","Low_HMMActual","","","","","","null","","","","Images/WhiteBeadChoice.png","","null"
"image-button-response","664","891327","0.0-13.0-2.201","89","Low_HMMActual","","","","","","null","","","","Images/WhiteBeadChoiceCorrect.png","","null"
"image-button-response","665","891929","0.0-13.0-0.202","89","Low_HMMActual","","","","","","601","","","","Images/NewTrialWC.png","","2"
"image-button-response","666","892242","0.0-13.0-1.202","89","Low_HMMActual","","","","","","null","","","","Images/WhiteBeadChoice.png","","null"
