"trial_type","trial_index","time_elapsed","internal_node_id","Script_Picker","Block_Type","success","timeout","failed_images","failed_audio","failed_video","rt","url","responses","question_order","stimulus","key_press","response"
"pavlovia","0","60","0.0-0.0","64","Low_HMMActual","","","","","","","","","","","",""
"preload","1","62","0.0-1.0","64","Low_HMMActual","true","false","[]","[]","[]","","","","","","",""
"external-html","2","7793","0.0-2.0-0.0","64","Low_HMMActual","","","","","","7537.399999999934","consent.html","","","","",""
"survey-multi-choice","3","13010","0.0-2.0-1.0","64","Low_HMMActual","","","","","","5214.209999999866","","{""Q0"":""Female"",""Q1"":""White""}","[0,1]","","",""
"survey-text","4","15454","0.0-2.0-2.0","64","Low_HMMActual","","","","","","2441.1800000000294","","{""Q0"":""22""}","","","",""
"survey-text","5","22068","0.0-2.0-3.0","64","Low_HMMActual","","","","","","6509.465000000091","","{""Q0"":""5da7d64e077d260014a456f0""}","","","",""
"image-keyboard-response","6","33786","0.0-3.0-0.0","64","Low_HMMActual","","","","","","11613.664999999852","","","","tutorial/tutorial1.png"," ",""
"image-keyboard-response","7","40630","0.0-3.0-0.1","64","Low_HMMActual","","","","","","6842.940000000002","","","","tutorial/tutorial2.png"," ",""
"image-keyboard-response","8","43508","0.0-3.0-0.2","64","Low_HMMActual","","","","","","2876.8450000002267","","","","tutorial/tutorial3.png"," ",""
"image-keyboard-response","9","45730","0.0-3.0-0.3","64","Low_HMMActual","","","","","","2221.3200000001016","","","","tutorial/tutorial4.png"," ",""
"image-keyboard-response","10","47899","0.0-3.0-0.4","64","Low_HMMActual","","","","","","2168.009999999864","","","","tutorial/tutorial5.png"," ",""
"image-keyboard-response","11","54230","0.0-3.0-0.5","64","Low_HMMActual","","","","","","6330.244999999646","","","","tutorial/tutorial6.png"," ",""
"image-keyboard-response","12","57406","0.0-3.0-0.6","64","Low_HMMActual","","","","","","3174.989999999976","","","","tutorial/tutorial7.png"," ",""
"image-keyboard-response","13","74974","0.0-3.0-0.7","64","Low_HMMActual","","","","","","17567.674999999785","","","","tutorial/tutorial8.png"," ",""
"image-keyboard-response","14","79189","0.0-3.0-0.8","64","Low_HMMActual","","","","","","4213.905000000072","","","","tutorial/tutorial9.png"," ",""
"image-keyboard-response","15","86440","0.0-3.0-0.9","64","Low_HMMActual","","","","","","7249.4200000001","","","","tutorial/tutorial10.png"," ",""
"image-keyboard-response","16","90015","0.0-3.0-0.10","64","Low_HMMActual","","","","","","3574.4800000002288","","","","tutorial/tutorial11.png"," ",""
"image-keyboard-response","17","95141","0.0-3.0-0.11","64","Low_HMMActual","","","","","","5124.6099999998405","","","","tutorial/tutorial12.png"," ",""
"image-keyboard-response","18","101761","0.0-3.0-0.12","64","Low_HMMActual","","","","","","6619.575000000172","","","","tutorial/tutorial13.png"," ",""
"image-keyboard-response","19","108541","0.0-3.0-0.13","64","Low_HMMActual","","","","","","6779.199999999953","","","","tutorial/tutorial14.png"," ",""
"image-keyboard-response","20","110571","0.0-3.0-0.14","64","Low_HMMActual","","","","","","2029.04499999978","","","","tutorial/tutorial15.png"," ",""
"image-keyboard-response","21","116532","0.0-4.0","64","Low_HMMActual","","","","","","5959.679999999935","","","","tutorial/tutorial16.png","arrowup",""
"image-keyboard-response","22","123642","0.0-5.0","64","Low_HMMActual","","","","","","5518.055000000008","","","","tutorial/tutorial17.png","arrowright",""
"image-keyboard-response","23","128618","0.0-6.0","64","Low_HMMActual","","","","","","4050.2200000000885","","","","tutorial/tutorial18.png","arrowleft",""
"image-keyboard-response","24","135081","0.0-7.0","64","Low_HMMActual","","","","","","5603.450000000041","","","","tutorial/tutorial19.png"," ",""
"html-keyboard-response","25","158112","0.0-8.0","65","Low_HMMActual","","","","","","23027.944999999832","","","","<div class=""container"" style=""height:800px;width:800px;display:flex;flex-direction:column;justify-content:center;align-items:center;text-align:center;font-weight:normal;font-family:Arial;font-size:20px""><p>Loading episode&hellip;</p><div>"," ",""
"image-button-response","26","166822","0.0-9.0-0.0","65","Low_HMMActual","","","","","","8704.81500000006","","","","Images/NoChoice.png","","1"
"image-button-response","27","167124","0.0-9.0-1.0","65","Low_HMMActual","","","","","","null","","","","Images/BlackBeadChoice.png","","null"
"image-button-response","28","167626","0.0-9.0-2.0","65","Low_HMMActual","","","","","","null","","","","Images/BlackBeadChoiceWrong.png","","null"
"image-button-response","29","175282","0.0-9.0-0.1","65","Low_HMMActual","","","","","","7653.549999999988","","","","Images/NewTrialWC.png","","2"
"image-button-response","30","175585","0.0-9.0-1.1","65","Low_HMMActual","","","","","","null","","","","Images/WhiteBeadChoice.png","","null"
"image-button-response","31","176091","0.0-9.0-2.1","65","Low_HMMActual","","","","","","null","","","","Images/WhiteBeadChoiceCorrect.png","","null"
"image-button-response","32","178004","0.0-9.0-0.2","65","Low_HMMActual","","","","","","1909.799999999901","","","","Images/NewTrialWC.png","","3"
"image-button-response","33","178307","0.0-9.0-1.2","65","Low_HMMActual","","","","","","null","","","","Images/WhiteBeadChoice.png","","null"
"image-button-response","34","178809","0.0-9.0-2.2","65","Low_HMMActual","","","","","","null","","","","Images/WhiteBeadChoiceCorrect.png","","null"
"image-button-response","35","180874","0.0-9.0-0.3","65","Low_HMMActual","","","","","","2062.259999999689","","","","Images/NewTrialWC.png","","2"
"image-button-response","36","181177","0.0-9.0-1.3","65","Low_HMMActual","","","","","","null","","","","Images/WhiteBeadChoice.png","","null"
"image-button-response","37","181680","0.0-9.0-2.3","65","Low_HMMActual","","","","","","null","","","","Images/WhiteBeadChoiceCorrect.png","","null"
"image-button-response","38","183141","0.0-9.0-0.4","65","Low_HMMActual","","","","","","1459.3749999999127","","","","Images/NewTrialWC.png","","2"
"image-button-response","39","183443","0.0-9.0-1.4","65","Low_HMMActual","","","","","","null","","","","Images/WhiteBeadChoice.png","","null"
"image-button-response","40","183949","0.0-9.0-2.4","65","Low_HMMActual","","","","","","null","","","","Images/WhiteBeadChoiceCorrect.png","","null"
"image-button-response","41","187743","0.0-9.0-0.5","65","Low_HMMActual","","","","","","3792.5700000000943","","","","Images/NewTrialWC.png","","3"
"image-button-response","42","188046","0.0-9.0-1.5","65","Low_HMMActual","","","","","","null","","","","Images/WhiteBeadChoice.png","","null"
"image-button-response","43","188550","0.0-9.0-2.5","65","Low_HMMActual","","","","","","null","","","","Images/WhiteBeadChoiceWrong.png","","null"
"image-button-response","44","191414","0.0-9.0-0.6","65","Low_HMMActual","","","","","","2862.5550000001676","","","","Images/NewTrialBC.png","","3"
"image-button-response","45","191716","0.0-9.0-1.6","65","Low_HMMActual","","","","","","null","","","","Images/WhiteBeadChoice.png","","null"
"image-button-response","46","192218","0.0-9.0-2.6","65","Low_HMMActual","","","","","","null","","","","Images/WhiteBeadChoiceWrong.png","","null"
"image-button-response","47","193928","0.0-9.0-0.7","65","Low_HMMActual","","","","","","1707.8649999998452","","","","Images/NewTrialBC.png","","1"
"image-button-response","48","194230","0.0-9.0-1.7","65","Low_HMMActual","","","","","","null","","","","Images/BlackBeadChoice.png","","null"
"image-button-response","49","194732","0.0-9.0-2.7","65","Low_HMMActual","","","","","","null","","","","Images/BlackBeadChoiceWrong.png","","null"
"image-button-response","50","195949","0.0-9.0-0.8","65","Low_HMMActual","","","","","","1215.0000000001455","","","","Images/NewTrialWC.png","","1"
"image-button-response","51","196251","0.0-9.0-1.8","65","Low_HMMActual","","","","","","null","","","","Images/BlackBeadChoice.png","","null"
"image-button-response","52","196754","0.0-9.0-2.8","65","Low_HMMActual","","","","","","null","","","","Images/BlackBeadChoiceWrong.png","","null"
"image-button-response","53","197598","0.0-9.0-0.9","65","Low_HMMActual","","","","","","839.8050000000803","","","","Images/NewTrialWC.png","","2"
"image-button-response","54","197899","0.0-9.0-1.9","65","Low_HMMActual","","","","","","null","","","","Images/WhiteBeadChoice.png","","null"
"image-button-response","55","198404","0.0-9.0-2.9","65","Low_HMMActual","","","","","","null","","","","Images/WhiteBeadChoiceWrong.png","","null"
"html-keyboard-response","56","201218","0.0-10.0","65","Low_HMMActual","","","","","","2812.3399999999383","","","",""," ",""
"image-keyboard-response","57","205299","0.0-11.0","65","Low_HMMActual","","","","","","4080.2950000002165","","","","tutorial/tutorial20.png"," ",""
"html-keyboard-response","58","212170","0.0-12.0","66","Low_HMMActual","","","","","","6869.500000000262","","","","<div class=""container"" style=""height:800px;width:800px;display:flex;flex-direction:column;justify-content:center;align-items:center;text-align:center;font-weight:normal;font-family:Arial;font-size:20px""><p>Loading episode&hellip;</p><div>"," ",""
"image-button-response","59","215924","0.0-13.0-0.0","66","Low_HMMActual","","","","","","3751.4449999998615","","","","Images/NoChoice.png","","1"
"image-button-response","60","216230","0.0-13.0-1.0","66","Low_HMMActual","","","","","","null","","","","Images/BlackBeadChoice.png","","null"
"image-button-response","61","216733","0.0-13.0-2.0","66","Low_HMMActual","","","","","","null","","","","Images/BlackBeadChoiceWrong.png","","null"
"image-button-response","62","220979","0.0-13.0-0.1","66","Low_HMMActual","","","","","","4243.72999999969","","","","Images/NewTrialWC.png","","3"
"image-button-response","63","221281","0.0-13.0-1.1","66","Low_HMMActual","","","","","","null","","","","Images/WhiteBeadChoice.png","","null"
"image-button-response","64","221783","0.0-13.0-2.1","66","Low_HMMActual","","","","","","null","","","","Images/WhiteBeadChoiceCorrect.png","","null"
"image-button-response","65","223085","0.0-13.0-0.2","66","Low_HMMActual","","","","","","1299.599999999802","","","","Images/NewTrialWC.png","","2"
"image-button-response","66","223387","0.0-13.0-1.2","66","Low_HMMActual","","","","","","null","","","","Images/WhiteBeadChoice.png","","null"
"image-button-response","67","223892","0.0-13.0-2.2","66","Low_HMMActual","","","","","","null","","","","Images/WhiteBeadChoiceCorrect.png","","null"
"image-button-response","68","225340","0.0-13.0-0.3","66","Low_HMMActual","","","","","","1445.445000000298","","","","Images/NewTrialWC.png","","2"
"image-button-response","69","225645","0.0-13.0-1.3","66","Low_HMMActual","","","","","","null","","","","Images/WhiteBeadChoice.png","","null"
"image-button-response","70","226147","0.0-13.0-2.3","66","Low_HMMActual","","","","","","null","","","","Images/WhiteBeadChoiceCorrect.png","","null"
"image-button-response","71","226989","0.0-13.0-0.4","66","Low_HMMActual","","","","","","839.8550000001851","","","","Images/NewTrialWC.png","","1"
"image-button-response","72","227291","0.0-13.0-1.4","66","Low_HMMActual","","","","","","null","","","","Images/BlackBeadChoice.png","","null"
"image-button-response","73","227793","0.0-13.0-2.4","66","Low_HMMActual","","","","","","null","","","","Images/BlackBeadChoiceWrong.png","","null"
"image-button-response","74","228929","0.0-13.0-0.5","66","Low_HMMActual","","","","","","1134.5099999998347","","","","Images/NewTrialWC.png","","2"
"image-button-response","75","229231","0.0-13.0-1.5","66","Low_HMMActual","","","","","","null","","","","Images/WhiteBeadChoice.png","","null"
"image-button-response","76","229733","0.0-13.0-2.5","66","Low_HMMActual","","","","","","null","","","","Images/WhiteBeadChoiceCorrect.png","","null"
"image-button-response","77","230554","0.0-13.0-0.6","66","Low_HMMActual","","","","","","819.2950000002165","","","","Images/NewTrialWC.png","","2"
"image-button-response","78","230856","0.0-13.0-1.6","66","Low_HMMActual","","","","","","null","","","","Images/WhiteBeadChoice.png","","null"
"image-button-response","79","231360","0.0-13.0-2.6","66","Low_HMMActual","","","","","","null","","","","Images/WhiteBeadChoiceCorrect.png","","null"
"image-button-response","80","232286","0.0-13.0-0.7","66","Low_HMMActual","","","","","","913.480000000156","","","","Images/NewTrialWC.png","","2"
"image-button-response","81","232588","0.0-13.0-1.7","66","Low_HMMActual","","","","","","null","","","","Images/WhiteBeadChoice.png","","null"
"image-button-response","82","233089","0.0-13.0-2.7","66","Low_HMMActual","","","","","","null","","","","Images/WhiteBeadChoiceWrong.png","","null"
"image-button-response","83","233870","0.0-13.0-0.8","66","Low_HMMActual","","","","","","778.8700000001118","","","","Images/NewTrialBC.png","","1"
"image-button-response","84","234173","0.0-13.0-1.8","66","Low_HMMActual","","","","","","null","","","","Images/BlackBeadChoice.png","","null"
"image-button-response","85","234675","0.0-13.0-2.8","66","Low_HMMActual","","","","","","null","","","","Images/BlackBeadChoiceWrong.png","","null"
"image-button-response","86","235124","0.0-13.0-0.9","66","Low_HMMActual","","","","","","446.8499999998312","","","","Images/NewTrialWC.png","","2"
"image-button-response","87","235426","0.0-13.0-1.9","66","Low_HMMActual","","","","","","null","","","","Images/WhiteBeadChoice.png","","null"
"image-button-response","88","235937","0.0-13.0-2.9","66","Low_HMMActual","","","","","","null","","","","Images/WhiteBeadChoiceWrong.png","","null"
"image-button-response","89","237489","0.0-13.0-0.10","66","Low_HMMActual","","","","","","1550.1949999997742","","","","Images/NewTrialBC.png","","3"
"image-button-response","90","237793","0.0-13.0-1.10","66","Low_HMMActual","","","","","","null","","","","Images/WhiteBeadChoice.png","","null"
"image-button-response","91","238294","0.0-13.0-2.10","66","Low_HMMActual","","","","","","null","","","","Images/WhiteBeadChoiceCorrect.png","","null"
"image-button-response","92","239387","0.0-13.0-0.11","66","Low_HMMActual","","","","","","1089.840000000113","","","","Images/NewTrialWC.png","","2"
"image-button-response","93","239693","0.0-13.0-1.11","66","Low_HMMActual","","","","","","null","","","","Images/WhiteBeadChoice.png","","null"
"image-button-response","94","240196","0.0-13.0-2.11","66","Low_HMMActual","","","","","","null","","","","Images/WhiteBeadChoiceCorrect.png","","null"
"image-button-response","95","242169","0.0-13.0-0.12","66","Low_HMMActual","","","","","","1970.7950000001583","","","","Images/NewTrialWC.png","","1"
"image-button-response","96","242470","0.0-13.0-1.12","66","Low_HMMActual","","","","","","null","","","","Images/BlackBeadChoice.png","","null"
"image-button-response","97","242972","0.0-13.0-2.12","66","Low_HMMActual","","","","","","null","","","","Images/BlackBeadChoiceWrong.png","","null"
"image-button-response","98","243402","0.0-13.0-0.13","66","Low_HMMActual","","","","","","428.1850000002305","","","","Images/NewTrialWC.png","","1"
"image-button-response","99","243705","0.0-13.0-1.13","66","Low_HMMActual","","","","","","null","","","","Images/BlackBeadChoice.png","","null"
"image-button-response","100","244207","0.0-13.0-2.13","66","Low_HMMActual","","","","","","null","","","","Images/BlackBeadChoiceWrong.png","","null"
"image-button-response","101","245541","0.0-13.0-0.14","66","Low_HMMActual","","","","","","1332.2700000003388","","","","Images/NewTrialWC.png","","3"
"image-button-response","102","245843","0.0-13.0-1.14","66","Low_HMMActual","","","","","","null","","","","Images/WhiteBeadChoice.png","","null"
"image-button-response","103","246345","0.0-13.0-2.14","66","Low_HMMActual","","","","","","null","","","","Images/WhiteBeadChoiceCorrect.png","","null"
"image-button-response","104","246988","0.0-13.0-0.15","66","Low_HMMActual","","","","","","640.6200000001118","","","","Images/NewTrialWC.png","","2"
"image-button-response","105","247293","0.0-13.0-1.15","66","Low_HMMActual","","","","","","null","","","","Images/WhiteBeadChoice.png","","null"
"image-button-response","106","247798","0.0-13.0-2.15","66","Low_HMMActual","","","","","","null","","","","Images/WhiteBeadChoiceCorrect.png","","null"
"image-button-response","107","248326","0.0-13.0-0.16","66","Low_HMMActual","","","","","","524.9650000000838","","","","Images/NewTrialWC.png","","2"
"image-button-response","108","248628","0.0-13.0-1.16","66","Low_HMMActual","","","","","","null","","","","Images/WhiteBeadChoice.png","","null"
"image-button-response","109","249130","0.0-13.0-2.16","66","Low_HMMActual","","","","","","null","","","","Images/WhiteBeadChoiceCorrect.png","","null"
"image-button-response","110","249749","0.0-13.0-0.17","66","Low_HMMActual","","","","","","616.8000000002212","","","","Images/NewTrialWC.png","","2"
"image-button-response","111","250052","0.0-13.0-1.17","66","Low_HMMActual","","","","","","null","","","","Images/WhiteBeadChoice.png","","null"
"image-button-response","112","250553","0.0-13.0-2.17","66","Low_HMMActual","","","","","","null","","","","Images/WhiteBeadChoiceCorrect.png","","null"
"image-button-response","113","251153","0.0-13.0-0.18","66","Low_HMMActual","","","","","","597.0350000002363","","","","Images/NewTrialWC.png","","2"
"image-button-response","114","251469","0.0-13.0-1.18","66","Low_HMMActual","","","","","","null","","","","Images/WhiteBeadChoice.png","","null"
"image-button-response","115","251972","0.0-13.0-2.18","66","Low_HMMActual","","","","","","null","","","","Images/WhiteBeadChoiceWrong.png","","null"
"image-button-response","116","253157","0.0-13.0-0.19","66","Low_HMMActual","","","","","","1183.539999999979","","","","Images/NewTrialBC.png","","1"
"image-button-response","117","253459","0.0-13.0-1.19","66","Low_HMMActual","","","","","","null","","","","Images/BlackBeadChoice.png","","null"
"image-button-response","118","253961","0.0-13.0-2.19","66","Low_HMMActual","","","","","","null","","","","Images/BlackBeadChoiceWrong.png","","null"
"image-button-response","119","254594","0.0-13.0-0.20","66","Low_HMMActual","","","","","","630.5250000000233","","","","Images/NewTrialWC.png","","2"
"image-button-response","120","254900","0.0-13.0-1.20","66","Low_HMMActual","","","","","","null","","","","Images/WhiteBeadChoice.png","","null"
"image-button-response","121","255404","0.0-13.0-2.20","66","Low_HMMActual","","","","","","null","","","","Images/WhiteBeadChoiceWrong.png","","null"
"image-button-response","122","258395","0.0-13.0-0.21","66","Low_HMMActual","","","","","","2988.485000000306","","","","Images/NewTrialBC.png","","1"
"image-button-response","123","258701","0.0-13.0-1.21","66","Low_HMMActual","","","","","","null","","","","Images/BlackBeadChoice.png","","null"
"image-button-response","124","259203","0.0-13.0-2.21","66","Low_HMMActual","","","","","","null","","","","Images/BlackBeadChoiceCorrect.png","","null"
"image-button-response","125","260341","0.0-13.0-0.22","66","Low_HMMActual","","","","","","1135.7600000000966","","","","Images/NewTrialBC.png","","1"
"image-button-response","126","260643","0.0-13.0-1.22","66","Low_HMMActual","","","","","","null","","","","Images/BlackBeadChoice.png","","null"
"image-button-response","127","261146","0.0-13.0-2.22","66","Low_HMMActual","","","","","","null","","","","Images/BlackBeadChoiceCorrect.png","","null"
"image-button-response","128","261970","0.0-13.0-0.23","66","Low_HMMActual","","","","","","821.6400000001304","","","","Images/NewTrialBC.png","","0"
"image-button-response","129","262274","0.0-13.0-1.23","66","Low_HMMActual","","","","","","null","","","","Images/BlackBeadChoice.png","","null"
"image-button-response","130","262776","0.0-13.0-2.23","66","Low_HMMActual","","","","","","null","","","","Images/BlackBeadChoiceCorrect.png","","null"
"image-button-response","131","263224","0.0-13.0-0.24","66","Low_HMMActual","","","","","","445.69499999989057","","","","Images/NewTrialBC.png","","1"
"image-button-response","132","263526","0.0-13.0-1.24","66","Low_HMMActual","","","","","","null","","","","Images/BlackBeadChoice.png","","null"
"image-button-response","133","264028","0.0-13.0-2.24","66","Low_HMMActual","","","","","","null","","","","Images/BlackBeadChoiceCorrect.png","","null"
"image-button-response","134","264639","0.0-13.0-0.25","66","Low_HMMActual","","","","","","608.2599999999511","","","","Images/NewTrialBC.png","","1"
"image-button-response","135","264943","0.0-13.0-1.25","66","Low_HMMActual","","","","","","null","","","","Images/BlackBeadChoice.png","","null"
"image-button-response","136","265449","0.0-13.0-2.25","66","Low_HMMActual","","","","","","null","","","","Images/BlackBeadChoiceWrong.png","","null"
"image-button-response","137","266813","0.0-13.0-0.26","66","Low_HMMActual","","","","","","1361.695000000007","","","","Images/NewTrialWC.png","","3"
"image-button-response","138","267116","0.0-13.0-1.26","66","Low_HMMActual","","","","","","null","","","","Images/WhiteBeadChoice.png","","null"
"image-button-response","139","267618","0.0-13.0-2.26","66","Low_HMMActual","","","","","","null","","","","Images/WhiteBeadChoiceWrong.png","","null"
"image-button-response","140","268095","0.0-13.0-0.27","66","Low_HMMActual","","","","","","474.44499999983236","","","","Images/NewTrialBC.png","","0"
"image-button-response","141","268401","0.0-13.0-1.27","66","Low_HMMActual","","","","","","null","","","","Images/BlackBeadChoice.png","","null"
"image-button-response","142","268907","0.0-13.0-2.27","66","Low_HMMActual","","","","","","null","","","","Images/BlackBeadChoiceCorrect.png","","null"
"image-button-response","143","269225","0.0-13.0-0.28","66","Low_HMMActual","","","","","","315.0350000000908","","","","Images/NewTrialBC.png","","0"
"image-button-response","144","269531","0.0-13.0-1.28","66","Low_HMMActual","","","","","","null","","","","Images/BlackBeadChoice.png","","null"
"image-button-response","145","270034","0.0-13.0-2.28","66","Low_HMMActual","","","","","","null","","","","Images/BlackBeadChoiceCorrect.png","","null"
"image-button-response","146","270604","0.0-13.0-0.29","66","Low_HMMActual","","","","","","567.9799999998068","","","","Images/NewTrialBC.png","","0"
"image-button-response","147","270910","0.0-13.0-1.29","66","Low_HMMActual","","","","","","null","","","","Images/BlackBeadChoice.png","","null"
"image-button-response","148","271411","0.0-13.0-2.29","66","Low_HMMActual","","","","","","null","","","","Images/BlackBeadChoiceWrong.png","","null"
"image-button-response","149","272534","0.0-13.0-0.30","66","Low_HMMActual","","","","","","1119.9900000001653","","","","Images/NewTrialWC.png","","2"
"image-button-response","150","272836","0.0-13.0-1.30","66","Low_HMMActual","","","","","","null","","","","Images/WhiteBeadChoice.png","","null"
"image-button-response","151","273339","0.0-13.0-2.30","66","Low_HMMActual","","","","","","null","","","","Images/WhiteBeadChoiceWrong.png","","null"
"image-button-response","152","273976","0.0-13.0-0.31","66","Low_HMMActual","","","","","","633.8799999998882","","","","Images/NewTrialBC.png","","1"
"image-button-response","153","274278","0.0-13.0-1.31","66","Low_HMMActual","","","","","","null","","","","Images/BlackBeadChoice.png","","null"
"image-button-response","154","274780","0.0-13.0-2.31","66","Low_HMMActual","","","","","","null","","","","Images/BlackBeadChoiceCorrect.png","","null"
"image-button-response","155","275399","0.0-13.0-0.32","66","Low_HMMActual","","","","","","616.5949999999139","","","","Images/NewTrialBC.png","","0"
"image-button-response","156","275704","0.0-13.0-1.32","66","Low_HMMActual","","","","","","null","","","","Images/BlackBeadChoice.png","","null"
"image-button-response","157","276206","0.0-13.0-2.32","66","Low_HMMActual","","","","","","null","","","","Images/BlackBeadChoiceCorrect.png","","null"
"image-button-response","158","276549","0.0-13.0-0.33","66","Low_HMMActual","","","","","","340.60499999986496","","","","Images/NewTrialBC.png","","0"
"image-button-response","159","276854","0.0-13.0-1.33","66","Low_HMMActual","","","","","","null","","","","Images/BlackBeadChoice.png","","null"
"image-button-response","160","277358","0.0-13.0-2.33","66","Low_HMMActual","","","","","","null","","","","Images/BlackBeadChoiceCorrect.png","","null"
"image-button-response","161","277760","0.0-13.0-0.34","66","Low_HMMActual","","","","","","399.69499999959953","","","","Images/NewTrialBC.png","","0"
"image-button-response","162","278061","0.0-13.0-1.34","66","Low_HMMActual","","","","","","null","","","","Images/BlackBeadChoice.png","","null"
"image-button-response","163","278566","0.0-13.0-2.34","66","Low_HMMActual","","","","","","null","","","","Images/BlackBeadChoiceCorrect.png","","null"
"image-button-response","164","279119","0.0-13.0-0.35","66","Low_HMMActual","","","","","","551.12999999983","","","","Images/NewTrialBC.png","","0"
"image-button-response","165","279423","0.0-13.0-1.35","66","Low_HMMActual","","","","","","null","","","","Images/BlackBeadChoice.png","","null"
"image-button-response","166","279927","0.0-13.0-2.35","66","Low_HMMActual","","","","","","null","","","","Images/BlackBeadChoiceCorrect.png","","null"
"image-button-response","167","280424","0.0-13.0-0.36","66","Low_HMMActual","","","","","","493.6800000000512","","","","Images/NewTrialBC.png","","0"
"image-button-response","168","280726","0.0-13.0-1.36","66","Low_HMMActual","","","","","","null","","","","Images/BlackBeadChoice.png","","null"
"image-button-response","169","281228","0.0-13.0-2.36","66","Low_HMMActual","","","","","","null","","","","Images/BlackBeadChoiceCorrect.png","","null"
"image-button-response","170","282080","0.0-13.0-0.37","66","Low_HMMActual","","","","","","850.0850000000792","","","","Images/NewTrialBC.png","","0"
"image-button-response","171","282382","0.0-13.0-1.37","66","Low_HMMActual","","","","","","null","","","","Images/BlackBeadChoice.png","","null"
"image-button-response","172","282884","0.0-13.0-2.37","66","Low_HMMActual","","","","","","null","","","","Images/BlackBeadChoiceCorrect.png","","null"
"image-button-response","173","283306","0.0-13.0-0.38","66","Low_HMMActual","","","","","","410.8450000003213","","","","Images/NewTrialBC.png","","0"
"image-button-response","174","283611","0.0-13.0-1.38","66","Low_HMMActual","","","","","","null","","","","Images/BlackBeadChoice.png","","null"
"image-button-response","175","284113","0.0-13.0-2.38","66","Low_HMMActual","","","","","","null","","","","Images/BlackBeadChoiceWrong.png","","null"
"image-button-response","176","286425","0.0-13.0-0.39","66","Low_HMMActual","","","","","","2310.565000000235","","","","Images/NewTrialWC.png","","1"
"image-button-response","177","286732","0.0-13.0-1.39","66","Low_HMMActual","","","","","","null","","","","Images/BlackBeadChoice.png","","null"
"image-button-response","178","287234","0.0-13.0-2.39","66","Low_HMMActual","","","","","","null","","","","Images/BlackBeadChoiceCorrect.png","","null"
"image-button-response","179","288275","0.0-13.0-0.40","66","Low_HMMActual","","","","","","1039.8749999999418","","","","Images/NewTrialBC.png","","0"
"image-button-response","180","288581","0.0-13.0-1.40","66","Low_HMMActual","","","","","","null","","","","Images/BlackBeadChoice.png","","null"
"image-button-response","181","289084","0.0-13.0-2.40","66","Low_HMMActual","","","","","","null","","","","Images/BlackBeadChoiceCorrect.png","","null"
"image-button-response","182","289642","0.0-13.0-0.41","66","Low_HMMActual","","","","","","555.9699999999139","","","","Images/NewTrialBC.png","","0"
"image-button-response","183","289945","0.0-13.0-1.41","66","Low_HMMActual","","","","","","null","","","","Images/BlackBeadChoice.png","","null"
"image-button-response","184","290450","0.0-13.0-2.41","66","Low_HMMActual","","","","","","null","","","","Images/BlackBeadChoiceCorrect.png","","null"
"image-button-response","185","291033","0.0-13.0-0.42","66","Low_HMMActual","","","","","","579.8549999999814","","","","Images/NewTrialBC.png","","0"
"image-button-response","186","291335","0.0-13.0-1.42","66","Low_HMMActual","","","","","","null","","","","Images/BlackBeadChoice.png","","null"
"image-button-response","187","291836","0.0-13.0-2.42","66","Low_HMMActual","","","","","","null","","","","Images/BlackBeadChoiceWrong.png","","null"
"image-button-response","188","293002","0.0-13.0-0.43","66","Low_HMMActual","","","","","","1163.719999999972","","","","Images/NewTrialWC.png","","1"
"image-button-response","189","293304","0.0-13.0-1.43","66","Low_HMMActual","","","","","","null","","","","Images/BlackBeadChoice.png","","null"
"image-button-response","190","293808","0.0-13.0-2.43","66","Low_HMMActual","","","","","","null","","","","Images/BlackBeadChoiceCorrect.png","","null"
"image-button-response","191","294453","0.0-13.0-0.44","66","Low_HMMActual","","","","","","643.0799999998417","","","","Images/NewTrialBC.png","","1"
"image-button-response","192","294760","0.0-13.0-1.44","66","Low_HMMActual","","","","","","null","","","","Images/BlackBeadChoice.png","","null"
"image-button-response","193","295262","0.0-13.0-2.44","66","Low_HMMActual","","","","","","null","","","","Images/BlackBeadChoiceCorrect.png","","null"
"image-button-response","194","295589","0.0-13.0-0.45","66","Low_HMMActual","","","","","","325.695000000007","","","","Images/NewTrialBC.png","","1"
"image-button-response","195","295895","0.0-13.0-1.45","66","Low_HMMActual","","","","","","null","","","","Images/BlackBeadChoice.png","","null"
"image-button-response","196","296396","0.0-13.0-2.45","66","Low_HMMActual","","","","","","null","","","","Images/BlackBeadChoiceCorrect.png","","null"
"image-button-response","197","296901","0.0-13.0-0.46","66","Low_HMMActual","","","","","","502.69000000029337","","","","Images/NewTrialBC.png","","0"
"image-button-response","198","297205","0.0-13.0-1.46","66","Low_HMMActual","","","","","","null","","","","Images/BlackBeadChoice.png","","null"
"image-button-response","199","297715","0.0-13.0-2.46","66","Low_HMMActual","","","","","","null","","","","Images/BlackBeadChoiceCorrect.png","","null"
"image-button-response","200","298059","0.0-13.0-0.47","66","Low_HMMActual","","","","","","341.29499999969266","","","","Images/NewTrialBC.png","","0"
"image-button-response","201","298364","0.0-13.0-1.47","66","Low_HMMActual","","","","","","null","","","","Images/BlackBeadChoice.png","","null"
"image-button-response","202","298871","0.0-13.0-2.47","66","Low_HMMActual","","","","","","null","","","","Images/BlackBeadChoiceCorrect.png","","null"
"image-button-response","203","299421","0.0-13.0-0.48","66","Low_HMMActual","","","","","","547.2700000000768","","","","Images/NewTrialBC.png","","0"
"image-button-response","204","299723","0.0-13.0-1.48","66","Low_HMMActual","","","","","","null","","","","Images/BlackBeadChoice.png","","null"
"image-button-response","205","300226","0.0-13.0-2.48","66","Low_HMMActual","","","","","","null","","","","Images/BlackBeadChoiceCorrect.png","","null"
"image-button-response","206","300728","0.0-13.0-0.49","66","Low_HMMActual","","","","","","499.3350000004284","","","","Images/NewTrialBC.png","","0"
"image-button-response","207","301034","0.0-13.0-1.49","66","Low_HMMActual","","","","","","null","","","","Images/BlackBeadChoice.png","","null"
"image-button-response","208","301539","0.0-13.0-2.49","66","Low_HMMActual","","","","","","null","","","","Images/BlackBeadChoiceCorrect.png","","null"
"image-button-response","209","302079","0.0-13.0-0.50","66","Low_HMMActual","","","","","","529.414999999979","","","","Images/NewTrialBC.png","","0"
"image-button-response","210","302380","0.0-13.0-1.50","66","Low_HMMActual","","","","","","null","","","","Images/BlackBeadChoice.png","","null"
"image-button-response","211","302882","0.0-13.0-2.50","66","Low_HMMActual","","","","","","null","","","","Images/BlackBeadChoiceCorrect.png","","null"
"image-button-response","212","303573","0.0-13.0-0.51","66","Low_HMMActual","","","","","","688.5800000000163","","","","Images/NewTrialBC.png","","0"
"image-button-response","213","303877","0.0-13.0-1.51","66","Low_HMMActual","","","","","","null","","","","Images/BlackBeadChoice.png","","null"
"image-button-response","214","304382","0.0-13.0-2.51","66","Low_HMMActual","","","","","","null","","","","Images/BlackBeadChoiceCorrect.png","","null"
"image-button-response","215","304904","0.0-13.0-0.52","66","Low_HMMActual","","","","","","520.0100000002421","","","","Images/NewTrialBC.png","","0"
"image-button-response","216","305207","0.0-13.0-1.52","66","Low_HMMActual","","","","","","null","","","","Images/BlackBeadChoice.png","","null"
"image-button-response","217","305718","0.0-13.0-2.52","66","Low_HMMActual","","","","","","null","","","","Images/BlackBeadChoiceCorrect.png","","null"
"image-button-response","218","306246","0.0-13.0-0.53","66","Low_HMMActual","","","","","","525.3900000002468","","","","Images/NewTrialBC.png","","0"
"image-button-response","219","306549","0.0-13.0-1.53","66","Low_HMMActual","","","","","","null","","","","Images/BlackBeadChoice.png","","null"
"image-button-response","220","307055","0.0-13.0-2.53","66","Low_HMMActual","","","","","","null","","","","Images/BlackBeadChoiceCorrect.png","","null"
"image-button-response","221","307529","0.0-13.0-0.54","66","Low_HMMActual","","","","","","471.0500000001048","","","","Images/NewTrialBC.png","","0"
"image-button-response","222","307832","0.0-13.0-1.54","66","Low_HMMActual","","","","","","null","","","","Images/BlackBeadChoice.png","","null"
"image-button-response","223","308335","0.0-13.0-2.54","66","Low_HMMActual","","","","","","null","","","","Images/BlackBeadChoiceWrong.png","","null"
"image-button-response","224","310270","0.0-13.0-0.55","66","Low_HMMActual","","","","","","1932.9849999999278","","","","Images/NewTrialWC.png","","3"
"image-button-response","225","310573","0.0-13.0-1.55","66","Low_HMMActual","","","","","","null","","","","Images/WhiteBeadChoice.png","","null"
"image-button-response","226","311075","0.0-13.0-2.55","66","Low_HMMActual","","","","","","null","","","","Images/WhiteBeadChoiceCorrect.png","","null"
"image-button-response","227","312140","0.0-13.0-0.56","66","Low_HMMActual","","","","","","1062.669999999809","","","","Images/NewTrialWC.png","","3"
"image-button-response","228","312445","0.0-13.0-1.56","66","Low_HMMActual","","","","","","null","","","","Images/WhiteBeadChoice.png","","null"
"image-button-response","229","312947","0.0-13.0-2.56","66","Low_HMMActual","","","","","","null","","","","Images/WhiteBeadChoiceCorrect.png","","null"
"image-button-response","230","313522","0.0-13.0-0.57","66","Low_HMMActual","","","","","","573.4099999999744","","","","Images/NewTrialWC.png","","2"
"image-button-response","231","313827","0.0-13.0-1.57","66","Low_HMMActual","","","","","","null","","","","Images/WhiteBeadChoice.png","","null"
"image-button-response","232","314330","0.0-13.0-2.57","66","Low_HMMActual","","","","","","null","","","","Images/WhiteBeadChoiceCorrect.png","","null"
"image-button-response","233","314716","0.0-13.0-0.58","66","Low_HMMActual","","","","","","370.8350000001956","","","","Images/NewTrialWC.png","","2"
"image-button-response","234","315018","0.0-13.0-1.58","66","Low_HMMActual","","","","","","null","","","","Images/WhiteBeadChoice.png","","null"
"image-button-response","235","315519","0.0-13.0-2.58","66","Low_HMMActual","","","","","","null","","","","Images/WhiteBeadChoiceWrong.png","","null"
"image-button-response","236","316669","0.0-13.0-0.59","66","Low_HMMActual","","","","","","1147.764999999723","","","","Images/NewTrialBC.png","","3"
"image-button-response","237","316972","0.0-13.0-1.59","66","Low_HMMActual","","","","","","null","","","","Images/WhiteBeadChoice.png","","null"
"image-button-response","238","317473","0.0-13.0-2.59","66","Low_HMMActual","","","","","","null","","","","Images/WhiteBeadChoiceCorrect.png","","null"
"image-button-response","239","317875","0.0-13.0-0.60","66","Low_HMMActual","","","","","","399.4649999999674","","","","Images/NewTrialWC.png","","2"
"image-button-response","240","318177","0.0-13.0-1.60","66","Low_HMMActual","","","","","","null","","","","Images/WhiteBeadChoice.png","","null"
"image-button-response","241","318682","0.0-13.0-2.60","66","Low_HMMActual","","","","","","null","","","","Images/WhiteBeadChoiceWrong.png","","null"
"image-button-response","242","319773","0.0-13.0-0.61","66","Low_HMMActual","","","","","","1089.070000000007","","","","Images/NewTrialBC.png","","2"
"image-button-response","243","320075","0.0-13.0-1.61","66","Low_HMMActual","","","","","","null","","","","Images/WhiteBeadChoice.png","","null"
"image-button-response","244","320577","0.0-13.0-2.61","66","Low_HMMActual","","","","","","null","","","","Images/WhiteBeadChoiceWrong.png","","null"
"image-button-response","245","321592","0.0-13.0-0.62","66","Low_HMMActual","","","","","","1013.1150000001653","","","","Images/NewTrialBC.png","","1"
"image-button-response","246","321895","0.0-13.0-1.62","66","Low_HMMActual","","","","","","null","","","","Images/BlackBeadChoice.png","","null"
"image-button-response","247","322397","0.0-13.0-2.62","66","Low_HMMActual","","","","","","null","","","","Images/BlackBeadChoiceCorrect.png","","null"
"image-button-response","248","322864","0.0-13.0-0.63","66","Low_HMMActual","","","","","","465.28499999979977","","","","Images/NewTrialBC.png","","0"
"image-button-response","249","323167","0.0-13.0-1.63","66","Low_HMMActual","","","","","","null","","","","Images/BlackBeadChoice.png","","null"
"image-button-response","250","323670","0.0-13.0-2.63","66","Low_HMMActual","","","","","","null","","","","Images/BlackBeadChoiceCorrect.png","","null"
"image-button-response","251","324103","0.0-13.0-0.64","66","Low_HMMActual","","","","","","431.31999999971595","","","","Images/NewTrialBC.png","","0"
"image-button-response","252","324407","0.0-13.0-1.64","66","Low_HMMActual","","","","","","null","","","","Images/BlackBeadChoice.png","","null"
"image-button-response","253","324909","0.0-13.0-2.64","66","Low_HMMActual","","","","","","null","","","","Images/BlackBeadChoiceWrong.png","","null"
"image-button-response","254","326010","0.0-13.0-0.65","66","Low_HMMActual","","","","","","1099.259999999951","","","","Images/NewTrialWC.png","","3"
"image-button-response","255","326312","0.0-13.0-1.65","66","Low_HMMActual","","","","","","null","","","","Images/WhiteBeadChoice.png","","null"
"image-button-response","256","326815","0.0-13.0-2.65","66","Low_HMMActual","","","","","","null","","","","Images/WhiteBeadChoiceCorrect.png","","null"
"image-button-response","257","327462","0.0-13.0-0.66","66","Low_HMMActual","","","","","","646.0449999999837","","","","Images/NewTrialWC.png","","2"
"image-button-response","258","327765","0.0-13.0-1.66","66","Low_HMMActual","","","","","","null","","","","Images/WhiteBeadChoice.png","","null"
"image-button-response","259","328266","0.0-13.0-2.66","66","Low_HMMActual","","","","","","null","","","","Images/WhiteBeadChoiceWrong.png","","null"
"image-button-response","260","328894","0.0-13.0-0.67","66","Low_HMMActual","","","","","","625.7399999999325","","","","Images/NewTrialBC.png","","1"
"image-button-response","261","329199","0.0-13.0-1.67","66","Low_HMMActual","","","","","","null","","","","Images/BlackBeadChoice.png","","null"
"image-button-response","262","329702","0.0-13.0-2.67","66","Low_HMMActual","","","","","","null","","","","Images/BlackBeadChoiceCorrect.png","","null"
"image-button-response","263","330389","0.0-13.0-0.68","66","Low_HMMActual","","","","","","683.6699999998673","","","","Images/NewTrialBC.png","","1"
"image-button-response","264","330690","0.0-13.0-1.68","66","Low_HMMActual","","","","","","null","","","","Images/BlackBeadChoice.png","","null"
"image-button-response","265","331195","0.0-13.0-2.68","66","Low_HMMActual","","","","","","null","","","","Images/BlackBeadChoiceCorrect.png","","null"
"image-button-response","266","331744","0.0-13.0-0.69","66","Low_HMMActual","","","","","","545.7900000000955","","","","Images/NewTrialBC.png","","0"
"image-button-response","267","332049","0.0-13.0-1.69","66","Low_HMMActual","","","","","","null","","","","Images/BlackBeadChoice.png","","null"
"image-button-response","268","332556","0.0-13.0-2.69","66","Low_HMMActual","","","","","","null","","","","Images/BlackBeadChoiceCorrect.png","","null"
"image-button-response","269","332880","0.0-13.0-0.70","66","Low_HMMActual","","","","","","320.894999999844","","","","Images/NewTrialBC.png","","0"
"image-button-response","270","333182","0.0-13.0-1.70","66","Low_HMMActual","","","","","","null","","","","Images/BlackBeadChoice.png","","null"
"image-button-response","271","333685","0.0-13.0-2.70","66","Low_HMMActual","","","","","","null","","","","Images/BlackBeadChoiceWrong.png","","null"
"image-button-response","272","334976","0.0-13.0-0.71","66","Low_HMMActual","","","","","","1277.2450000002282","","","","Images/NewTrialWC.png","","3"
"image-button-response","273","335279","0.0-13.0-1.71","66","Low_HMMActual","","","","","","null","","","","Images/WhiteBeadChoice.png","","null"
"image-button-response","274","335780","0.0-13.0-2.71","66","Low_HMMActual","","","","","","null","","","","Images/WhiteBeadChoiceWrong.png","","null"
"image-button-response","275","338074","0.0-13.0-0.72","66","Low_HMMActual","","","","","","2291.369999999879","","","","Images/NewTrialBC.png","","3"
"image-button-response","276","338376","0.0-13.0-1.72","66","Low_HMMActual","","","","","","null","","","","Images/WhiteBeadChoice.png","","null"
"image-button-response","277","338879","0.0-13.0-2.72","66","Low_HMMActual","","","","","","null","","","","Images/WhiteBeadChoiceWrong.png","","null"
"image-button-response","278","339437","0.0-13.0-0.73","66","Low_HMMActual","","","","","","555.9250000001048","","","","Images/NewTrialBC.png","","1"
"image-button-response","279","339739","0.0-13.0-1.73","66","Low_HMMActual","","","","","","null","","","","Images/BlackBeadChoice.png","","null"
"image-button-response","280","340246","0.0-13.0-2.73","66","Low_HMMActual","","","","","","null","","","","Images/BlackBeadChoiceWrong.png","","null"
"image-button-response","281","341109","0.0-13.0-0.74","66","Low_HMMActual","","","","","","850.0049999997718","","","","Images/NewTrialWC.png","","2"
"image-button-response","282","341412","0.0-13.0-1.74","66","Low_HMMActual","","","","","","null","","","","Images/WhiteBeadChoice.png","","null"
"image-button-response","283","341915","0.0-13.0-2.74","66","Low_HMMActual","","","","","","null","","","","Images/WhiteBeadChoiceCorrect.png","","null"
"image-button-response","284","342471","0.0-13.0-0.75","66","Low_HMMActual","","","","","","553.3550000000396","","","","Images/NewTrialWC.png","","2"
"image-button-response","285","342774","0.0-13.0-1.75","66","Low_HMMActual","","","","","","null","","","","Images/WhiteBeadChoice.png","","null"
"image-button-response","286","343276","0.0-13.0-2.75","66","Low_HMMActual","","","","","","null","","","","Images/WhiteBeadChoiceWrong.png","","null"
"image-button-response","287","344147","0.0-13.0-0.76","66","Low_HMMActual","","","","","","868.800000000163","","","","Images/NewTrialBC.png","","1"
"image-button-response","288","344451","0.0-13.0-1.76","66","Low_HMMActual","","","","","","null","","","","Images/BlackBeadChoice.png","","null"
"image-button-response","289","344957","0.0-13.0-2.76","66","Low_HMMActual","","","","","","null","","","","Images/BlackBeadChoiceCorrect.png","","null"
"image-button-response","290","345397","0.0-13.0-0.77","66","Low_HMMActual","","","","","","435.905000000319","","","","Images/NewTrialBC.png","","1"
"image-button-response","291","345702","0.0-13.0-1.77","66","Low_HMMActual","","","","","","null","","","","Images/BlackBeadChoice.png","","null"
"image-button-response","292","346204","0.0-13.0-2.77","66","Low_HMMActual","","","","","","null","","","","Images/BlackBeadChoiceCorrect.png","","null"
"image-button-response","293","346464","0.0-13.0-0.78","66","Low_HMMActual","","","","","","257.4049999998533","","","","Images/NewTrialBC.png","","0"
"image-button-response","294","346768","0.0-13.0-1.78","66","Low_HMMActual","","","","","","null","","","","Images/BlackBeadChoice.png","","null"
"image-button-response","295","347271","0.0-13.0-2.78","66","Low_HMMActual","","","","","","null","","","","Images/BlackBeadChoiceWrong.png","","null"
"image-button-response","296","349739","0.0-13.0-0.79","66","Low_HMMActual","","","","","","2466.4750000001513","","","","Images/NewTrialWC.png","","0"
"image-button-response","297","350046","0.0-13.0-1.79","66","Low_HMMActual","","","","","","null","","","","Images/BlackBeadChoice.png","","null"
"image-button-response","298","350551","0.0-13.0-2.79","66","Low_HMMActual","","","","","","null","","","","Images/BlackBeadChoiceWrong.png","","null"
"image-button-response","299","351929","0.0-13.0-0.80","66","Low_HMMActual","","","","","","1375.1900000002352","","","","Images/NewTrialWC.png","","3"
"image-button-response","300","352232","0.0-13.0-1.80","66","Low_HMMActual","","","","","","null","","","","Images/WhiteBeadChoice.png","","null"
"image-button-response","301","352736","0.0-13.0-2.80","66","Low_HMMActual","","","","","","null","","","","Images/WhiteBeadChoiceWrong.png","","null"
"image-button-response","302","353649","0.0-13.0-0.81","66","Low_HMMActual","","","","","","911.1699999998091","","","","Images/NewTrialBC.png","","1"
"image-button-response","303","353952","0.0-13.0-1.81","66","Low_HMMActual","","","","","","null","","","","Images/BlackBeadChoice.png","","null"
"image-button-response","304","354458","0.0-13.0-2.81","66","Low_HMMActual","","","","","","null","","","","Images/BlackBeadChoiceCorrect.png","","null"
"image-button-response","305","354987","0.0-13.0-0.82","66","Low_HMMActual","","","","","","527.0150000001304","","","","Images/NewTrialBC.png","","0"
"image-button-response","306","355290","0.0-13.0-1.82","66","Low_HMMActual","","","","","","null","","","","Images/BlackBeadChoice.png","","null"
"image-button-response","307","355796","0.0-13.0-2.82","66","Low_HMMActual","","","","","","null","","","","Images/BlackBeadChoiceCorrect.png","","null"
"image-button-response","308","356081","0.0-13.0-0.83","66","Low_HMMActual","","","","","","282.8250000002445","","","","Images/NewTrialBC.png","","0"
"image-button-response","309","356383","0.0-13.0-1.83","66","Low_HMMActual","","","","","","null","","","","Images/BlackBeadChoice.png","","null"
"image-button-response","310","356887","0.0-13.0-2.83","66","Low_HMMActual","","","","","","null","","","","Images/BlackBeadChoiceCorrect.png","","null"
"image-button-response","311","357409","0.0-13.0-0.84","66","Low_HMMActual","","","","","","519.1600000002654","","","","Images/NewTrialBC.png","","0"
"image-button-response","312","357711","0.0-13.0-1.84","66","Low_HMMActual","","","","","","null","","","","Images/BlackBeadChoice.png","","null"
"image-button-response","313","358213","0.0-13.0-2.84","66","Low_HMMActual","","","","","","null","","","","Images/BlackBeadChoiceCorrect.png","","null"
"image-button-response","314","358590","0.0-13.0-0.85","66","Low_HMMActual","","","","","","374.339999999851","","","","Images/NewTrialBC.png","","0"
"image-button-response","315","358896","0.0-13.0-1.85","66","Low_HMMActual","","","","","","null","","","","Images/BlackBeadChoice.png","","null"
"image-button-response","316","359402","0.0-13.0-2.85","66","Low_HMMActual","","","","","","null","","","","Images/BlackBeadChoiceCorrect.png","","null"
"image-button-response","317","359839","0.0-13.0-0.86","66","Low_HMMActual","","","","","","434.5450000000419","","","","Images/NewTrialBC.png","","0"
"image-button-response","318","360150","0.0-13.0-1.86","66","Low_HMMActual","","","","","","null","","","","Images/BlackBeadChoice.png","","null"
"image-button-response","319","360656","0.0-13.0-2.86","66","Low_HMMActual","","","","","","null","","","","Images/BlackBeadChoiceCorrect.png","","null"
"image-button-response","320","361065","0.0-13.0-0.87","66","Low_HMMActual","","","","","","406.98500000010245","","","","Images/NewTrialBC.png","","0"
"image-button-response","321","361368","0.0-13.0-1.87","66","Low_HMMActual","","","","","","null","","","","Images/BlackBeadChoice.png","","null"
"image-button-response","322","361879","0.0-13.0-2.87","66","Low_HMMActual","","","","","","null","","","","Images/BlackBeadChoiceCorrect.png","","null"
"image-button-response","323","363428","0.0-13.0-0.88","66","Low_HMMActual","","","","","","1547.6900000003516","","","","Images/NewTrialBC.png","","3"
"image-button-response","324","363731","0.0-13.0-1.88","66","Low_HMMActual","","","","","","null","","","","Images/WhiteBeadChoice.png","","null"
"image-button-response","325","364236","0.0-13.0-2.88","66","Low_HMMActual","","","","","","null","","","","Images/WhiteBeadChoiceCorrect.png","","null"
"image-button-response","326","365286","0.0-13.0-0.89","66","Low_HMMActual","","","","","","1047.8050000001676","","","","Images/NewTrialWC.png","","2"
"image-button-response","327","365591","0.0-13.0-1.89","66","Low_HMMActual","","","","","","null","","","","Images/WhiteBeadChoice.png","","null"
"image-button-response","328","366096","0.0-13.0-2.89","66","Low_HMMActual","","","","","","null","","","","Images/WhiteBeadChoiceCorrect.png","","null"
"image-button-response","329","367257","0.0-13.0-0.90","66","Low_HMMActual","","","","","","1157.7099999999627","","","","Images/NewTrialWC.png","","2"
"image-button-response","330","367559","0.0-13.0-1.90","66","Low_HMMActual","","","","","","null","","","","Images/WhiteBeadChoice.png","","null"
"image-button-response","331","368066","0.0-13.0-2.90","66","Low_HMMActual","","","","","","null","","","","Images/WhiteBeadChoiceWrong.png","","null"
"image-button-response","332","368664","0.0-13.0-0.91","66","Low_HMMActual","","","","","","595.0000000002328","","","","Images/NewTrialBC.png","","1"
"image-button-response","333","368969","0.0-13.0-1.91","66","Low_HMMActual","","","","","","null","","","","Images/BlackBeadChoice.png","","null"
"image-button-response","334","369471","0.0-13.0-2.91","66","Low_HMMActual","","","","","","null","","","","Images/BlackBeadChoiceCorrect.png","","null"
"image-button-response","335","369848","0.0-13.0-0.92","66","Low_HMMActual","","","","","","375.0749999998952","","","","Images/NewTrialBC.png","","0"
"image-button-response","336","370155","0.0-13.0-1.92","66","Low_HMMActual","","","","","","null","","","","Images/BlackBeadChoice.png","","null"
"image-button-response","337","370661","0.0-13.0-2.92","66","Low_HMMActual","","","","","","null","","","","Images/BlackBeadChoiceCorrect.png","","null"
"image-button-response","338","370907","0.0-13.0-0.93","66","Low_HMMActual","","","","","","242.8650000001653","","","","Images/NewTrialBC.png","","0"
"image-button-response","339","371209","0.0-13.0-1.93","66","Low_HMMActual","","","","","","null","","","","Images/BlackBeadChoice.png","","null"
"image-button-response","340","371711","0.0-13.0-2.93","66","Low_HMMActual","","","","","","null","","","","Images/BlackBeadChoiceCorrect.png","","null"
"image-button-response","341","372032","0.0-13.0-0.94","66","Low_HMMActual","","","","","","318.8149999996531","","","","Images/NewTrialBC.png","","0"
"image-button-response","342","372337","0.0-13.0-1.94","66","Low_HMMActual","","","","","","null","","","","Images/BlackBeadChoice.png","","null"
"image-button-response","343","372840","0.0-13.0-2.94","66","Low_HMMActual","","","","","","null","","","","Images/BlackBeadChoiceCorrect.png","","null"
"image-button-response","344","373158","0.0-13.0-0.95","66","Low_HMMActual","","","","","","306.9049999999115","","","","Images/NewTrialBC.png","","0"
"image-button-response","345","373461","0.0-13.0-1.95","66","Low_HMMActual","","","","","","null","","","","Images/BlackBeadChoice.png","","null"
"image-button-response","346","373962","0.0-13.0-2.95","66","Low_HMMActual","","","","","","null","","","","Images/BlackBeadChoiceCorrect.png","","null"
"image-button-response","347","374460","0.0-13.0-0.96","66","Low_HMMActual","","","","","","495.71000000013737","","","","Images/NewTrialBC.png","","0"
"image-button-response","348","374762","0.0-13.0-1.96","66","Low_HMMActual","","","","","","null","","","","Images/BlackBeadChoice.png","","null"
"image-button-response","349","375268","0.0-13.0-2.96","66","Low_HMMActual","","","","","","null","","","","Images/BlackBeadChoiceCorrect.png","","null"
"image-button-response","350","375626","0.0-13.0-0.97","66","Low_HMMActual","","","","","","354.5549999998766","","","","Images/NewTrialBC.png","","0"
"image-button-response","351","375933","0.0-13.0-1.97","66","Low_HMMActual","","","","","","null","","","","Images/BlackBeadChoice.png","","null"
"image-button-response","352","376438","0.0-13.0-2.97","66","Low_HMMActual","","","","","","null","","","","Images/BlackBeadChoiceCorrect.png","","null"
"image-button-response","353","376818","0.0-13.0-0.98","66","Low_HMMActual","","","","","","377.7850000000908","","","","Images/NewTrialBC.png","","0"
"image-button-response","354","377121","0.0-13.0-1.98","66","Low_HMMActual","","","","","","null","","","","Images/BlackBeadChoice.png","","null"
"image-button-response","355","377623","0.0-13.0-2.98","66","Low_HMMActual","","","","","","null","","","","Images/BlackBeadChoiceCorrect.png","","null"
"image-button-response","356","377957","0.0-13.0-0.99","66","Low_HMMActual","","","","","","331.2399999999907","","","","Images/NewTrialBC.png","","0"
"image-button-response","357","378262","0.0-13.0-1.99","66","Low_HMMActual","","","","","","null","","","","Images/BlackBeadChoice.png","","null"
"image-button-response","358","378767","0.0-13.0-2.99","66","Low_HMMActual","","","","","","null","","","","Images/BlackBeadChoiceCorrect.png","","null"
"image-button-response","359","379845","0.0-13.0-0.100","66","Low_HMMActual","","","","","","1073.6349999997183","","","","Images/NewTrialBC.png","","0"
"image-button-response","360","380147","0.0-13.0-1.100","66","Low_HMMActual","","","","","","null","","","","Images/BlackBeadChoice.png","","null"
"image-button-response","361","380654","0.0-13.0-2.100","66","Low_HMMActual","","","","","","null","","","","Images/BlackBeadChoiceCorrect.png","","null"
"image-button-response","362","381112","0.0-13.0-0.101","66","Low_HMMActual","","","","","","455.1999999998952","","","","Images/NewTrialBC.png","","0"
"image-button-response","363","381417","0.0-13.0-1.101","66","Low_HMMActual","","","","","","null","","","","Images/BlackBeadChoice.png","","null"
"image-button-response","364","381924","0.0-13.0-2.101","66","Low_HMMActual","","","","","","null","","","","Images/BlackBeadChoiceWrong.png","","null"
"image-button-response","365","383130","0.0-13.0-0.102","66","Low_HMMActual","","","","","","1203.4850000000442","","","","Images/NewTrialWC.png","","3"
"image-button-response","366","383433","0.0-13.0-1.102","66","Low_HMMActual","","","","","","null","","","","Images/WhiteBeadChoice.png","","null"
"image-button-response","367","383940","0.0-13.0-2.102","66","Low_HMMActual","","","","","","null","","","","Images/WhiteBeadChoiceWrong.png","","null"
"image-button-response","368","384470","0.0-13.0-0.103","66","Low_HMMActual","","","","","","526.9149999999208","","","","Images/NewTrialBC.png","","1"
"image-button-response","369","384776","0.0-13.0-1.103","66","Low_HMMActual","","","","","","null","","","","Images/BlackBeadChoice.png","","null"
"image-button-response","370","385278","0.0-13.0-2.103","66","Low_HMMActual","","","","","","null","","","","Images/BlackBeadChoiceWrong.png","","null"
"image-button-response","371","386016","0.0-13.0-0.104","66","Low_HMMActual","","","","","","735.0999999998603","","","","Images/NewTrialWC.png","","1"
"image-button-response","372","386318","0.0-13.0-1.104","66","Low_HMMActual","","","","","","null","","","","Images/BlackBeadChoice.png","","null"
"image-button-response","373","386825","0.0-13.0-2.104","66","Low_HMMActual","","","","","","null","","","","Images/BlackBeadChoiceWrong.png","","null"
"image-button-response","374","387424","0.0-13.0-0.105","66","Low_HMMActual","","","","","","596.109999999986","","","","Images/NewTrialWC.png","","2"
"image-button-response","375","387726","0.0-13.0-1.105","66","Low_HMMActual","","","","","","null","","","","Images/WhiteBeadChoice.png","","null"
"image-button-response","376","388235","0.0-13.0-2.105","66","Low_HMMActual","","","","","","null","","","","Images/WhiteBeadChoiceWrong.png","","null"
"image-button-response","377","389048","0.0-13.0-0.106","66","Low_HMMActual","","","","","","810.6450000000768","","","","Images/NewTrialBC.png","","2"
"image-button-response","378","389354","0.0-13.0-1.106","66","Low_HMMActual","","","","","","null","","","","Images/WhiteBeadChoice.png","","null"
"image-button-response","379","389861","0.0-13.0-2.106","66","Low_HMMActual","","","","","","null","","","","Images/WhiteBeadChoiceWrong.png","","null"
"image-button-response","380","390367","0.0-13.0-0.107","66","Low_HMMActual","","","","","","503.6900000000023","","","","Images/NewTrialBC.png","","2"
"image-button-response","381","390686","0.0-13.0-1.107","66","Low_HMMActual","","","","","","null","","","","Images/WhiteBeadChoice.png","","null"
"image-button-response","382","391190","0.0-13.0-2.107","66","Low_HMMActual","","","","","","null","","","","Images/WhiteBeadChoiceCorrect.png","","null"
"image-button-response","383","391751","0.0-13.0-0.108","66","Low_HMMActual","","","","","","558.5850000001956","","","","Images/NewTrialWC.png","","2"
"image-button-response","384","392056","0.0-13.0-1.108","66","Low_HMMActual","","","","","","null","","","","Images/WhiteBeadChoice.png","","null"
"image-button-response","385","392564","0.0-13.0-2.108","66","Low_HMMActual","","","","","","null","","","","Images/WhiteBeadChoiceWrong.png","","null"
"image-button-response","386","393421","0.0-13.0-0.109","66","Low_HMMActual","","","","","","853.6399999998393","","","","Images/NewTrialBC.png","","1"
"image-button-response","387","393726","0.0-13.0-1.109","66","Low_HMMActual","","","","","","null","","","","Images/BlackBeadChoice.png","","null"
"image-button-response","388","394228","0.0-13.0-2.109","66","Low_HMMActual","","","","","","null","","","","Images/BlackBeadChoiceCorrect.png","","null"
"image-button-response","389","394608","0.0-13.0-0.110","66","Low_HMMActual","","","","","","377.41499999992084","","","","Images/NewTrialBC.png","","0"
"image-button-response","390","394910","0.0-13.0-1.110","66","Low_HMMActual","","","","","","null","","","","Images/BlackBeadChoice.png","","null"
"image-button-response","391","395413","0.0-13.0-2.110","66","Low_HMMActual","","","","","","null","","","","Images/BlackBeadChoiceCorrect.png","","null"
"image-button-response","392","395735","0.0-13.0-0.111","66","Low_HMMActual","","","","","","318.77000000030966","","","","Images/NewTrialBC.png","","0"
"image-button-response","393","396038","0.0-13.0-1.111","66","Low_HMMActual","","","","","","null","","","","Images/BlackBeadChoice.png","","null"
"image-button-response","394","396545","0.0-13.0-2.111","66","Low_HMMActual","","","","","","null","","","","Images/BlackBeadChoiceWrong.png","","null"
"image-button-response","395","397535","0.0-13.0-0.112","66","Low_HMMActual","","","","","","987.739999999525","","","","Images/NewTrialWC.png","","3"
"image-button-response","396","397843","0.0-13.0-1.112","66","Low_HMMActual","","","","","","null","","","","Images/WhiteBeadChoice.png","","null"
"image-button-response","397","398346","0.0-13.0-2.112","66","Low_HMMActual","","","","","","null","","","","Images/WhiteBeadChoiceWrong.png","","null"
"image-button-response","398","399015","0.0-13.0-0.113","66","Low_HMMActual","","","","","","666.9699999997392","","","","Images/NewTrialBC.png","","1"
"image-button-response","399","399322","0.0-13.0-1.113","66","Low_HMMActual","","","","","","null","","","","Images/BlackBeadChoice.png","","null"
"image-button-response","400","399824","0.0-13.0-2.113","66","Low_HMMActual","","","","","","null","","","","Images/BlackBeadChoiceCorrect.png","","null"
"image-button-response","401","400517","0.0-13.0-0.114","66","Low_HMMActual","","","","","","689.9550000003073","","","","Images/NewTrialBC.png","","0"
"image-button-response","402","400823","0.0-13.0-1.114","66","Low_HMMActual","","","","","","null","","","","Images/BlackBeadChoice.png","","null"
"image-button-response","403","401329","0.0-13.0-2.114","66","Low_HMMActual","","","","","","null","","","","Images/BlackBeadChoiceCorrect.png","","null"
"image-button-response","404","401509","0.0-13.0-0.115","66","Low_HMMActual","","","","","","178.44000000011874","","","","Images/NewTrialBC.png","","0"
"image-button-response","405","401811","0.0-13.0-1.115","66","Low_HMMActual","","","","","","null","","","","Images/BlackBeadChoice.png","","null"
"image-button-response","406","402324","0.0-13.0-2.115","66","Low_HMMActual","","","","","","null","","","","Images/BlackBeadChoiceWrong.png","","null"
"image-button-response","407","402812","0.0-13.0-0.116","66","Low_HMMActual","","","","","","485.5299999999115","","","","Images/NewTrialWC.png","","0"
"image-button-response","408","403115","0.0-13.0-1.116","66","Low_HMMActual","","","","","","null","","","","Images/BlackBeadChoice.png","","null"
"image-button-response","409","403621","0.0-13.0-2.116","66","Low_HMMActual","","","","","","null","","","","Images/BlackBeadChoiceWrong.png","","null"
"image-button-response","410","404448","0.0-13.0-0.117","66","Low_HMMActual","","","","","","823.87000000017","","","","Images/NewTrialWC.png","","2"
"image-button-response","411","404751","0.0-13.0-1.117","66","Low_HMMActual","","","","","","null","","","","Images/WhiteBeadChoice.png","","null"
"image-button-response","412","405254","0.0-13.0-2.117","66","Low_HMMActual","","","","","","null","","","","Images/WhiteBeadChoiceCorrect.png","","null"
"image-button-response","413","405747","0.0-13.0-0.118","66","Low_HMMActual","","","","","","490.3749999998836","","","","Images/NewTrialWC.png","","2"
"image-button-response","414","406049","0.0-13.0-1.118","66","Low_HMMActual","","","","","","null","","","","Images/WhiteBeadChoice.png","","null"
"image-button-response","415","406551","0.0-13.0-2.118","66","Low_HMMActual","","","","","","null","","","","Images/WhiteBeadChoiceCorrect.png","","null"
"image-button-response","416","407476","0.0-13.0-0.119","66","Low_HMMActual","","","","","","922.2850000000908","","","","Images/NewTrialWC.png","","2"
"image-button-response","417","407782","0.0-13.0-1.119","66","Low_HMMActual","","","","","","null","","","","Images/WhiteBeadChoice.png","","null"
"image-button-response","418","408284","0.0-13.0-2.119","66","Low_HMMActual","","","","","","null","","","","Images/WhiteBeadChoiceCorrect.png","","null"
"image-button-response","419","408663","0.0-13.0-0.120","66","Low_HMMActual","","","","","","375.4899999999325","","","","Images/NewTrialWC.png","","2"
"image-button-response","420","408969","0.0-13.0-1.120","66","Low_HMMActual","","","","","","null","","","","Images/WhiteBeadChoice.png","","null"
"image-button-response","421","409476","0.0-13.0-2.120","66","Low_HMMActual","","","","","","null","","","","Images/WhiteBeadChoiceCorrect.png","","null"
"image-button-response","422","409849","0.0-13.0-0.121","66","Low_HMMActual","","","","","","370.53999999986263","","","","Images/NewTrialWC.png","","2"
"image-button-response","423","410152","0.0-13.0-1.121","66","Low_HMMActual","","","","","","null","","","","Images/WhiteBeadChoice.png","","null"
"image-button-response","424","410654","0.0-13.0-2.121","66","Low_HMMActual","","","","","","null","","","","Images/WhiteBeadChoiceWrong.png","","null"
"image-button-response","425","412462","0.0-13.0-0.122","66","Low_HMMActual","","","","","","1806.2550000000047","","","","Images/NewTrialBC.png","","1"
"image-button-response","426","412765","0.0-13.0-1.122","66","Low_HMMActual","","","","","","null","","","","Images/BlackBeadChoice.png","","null"
"image-button-response","427","413267","0.0-13.0-2.122","66","Low_HMMActual","","","","","","null","","","","Images/BlackBeadChoiceCorrect.png","","null"
"image-button-response","428","413872","0.0-13.0-0.123","66","Low_HMMActual","","","","","","602.3399999999092","","","","Images/NewTrialBC.png","","0"
"image-button-response","429","414177","0.0-13.0-1.123","66","Low_HMMActual","","","","","","null","","","","Images/BlackBeadChoice.png","","null"
"image-button-response","430","414681","0.0-13.0-2.123","66","Low_HMMActual","","","","","","null","","","","Images/BlackBeadChoiceWrong.png","","null"
"image-button-response","431","415328","0.0-13.0-0.124","66","Low_HMMActual","","","","","","644.6550000000861","","","","Images/NewTrialWC.png","","1"
"image-button-response","432","415630","0.0-13.0-1.124","66","Low_HMMActual","","","","","","null","","","","Images/BlackBeadChoice.png","","null"
"image-button-response","433","416132","0.0-13.0-2.124","66","Low_HMMActual","","","","","","null","","","","Images/BlackBeadChoiceWrong.png","","null"
"image-button-response","434","417306","0.0-13.0-0.125","66","Low_HMMActual","","","","","","1169.220000000263","","","","Images/NewTrialWC.png","","3"
"image-button-response","435","417608","0.0-13.0-1.125","66","Low_HMMActual","","","","","","null","","","","Images/WhiteBeadChoice.png","","null"
"image-button-response","436","418110","0.0-13.0-2.125","66","Low_HMMActual","","","","","","null","","","","Images/WhiteBeadChoiceCorrect.png","","null"
"image-button-response","437","418545","0.0-13.0-0.126","66","Low_HMMActual","","","","","","433.65999999974156","","","","Images/NewTrialWC.png","","2"
"image-button-response","438","418850","0.0-13.0-1.126","66","Low_HMMActual","","","","","","null","","","","Images/WhiteBeadChoice.png","","null"
"image-button-response","439","419356","0.0-13.0-2.126","66","Low_HMMActual","","","","","","null","","","","Images/WhiteBeadChoiceCorrect.png","","null"
"image-button-response","440","419682","0.0-13.0-0.127","66","Low_HMMActual","","","","","","322.719999999681","","","","Images/NewTrialWC.png","","2"
"image-button-response","441","419984","0.0-13.0-1.127","66","Low_HMMActual","","","","","","null","","","","Images/WhiteBeadChoice.png","","null"
"image-button-response","442","420488","0.0-13.0-2.127","66","Low_HMMActual","","","","","","null","","","","Images/WhiteBeadChoiceWrong.png","","null"
"image-button-response","443","421491","0.0-13.0-0.128","66","Low_HMMActual","","","","","","999.9499999998952","","","","Images/NewTrialBC.png","","2"
"image-button-response","444","421793","0.0-13.0-1.128","66","Low_HMMActual","","","","","","null","","","","Images/WhiteBeadChoice.png","","null"
"image-button-response","445","422296","0.0-13.0-2.128","66","Low_HMMActual","","","","","","null","","","","Images/WhiteBeadChoiceWrong.png","","null"
"image-button-response","446","423251","0.0-13.0-0.129","66","Low_HMMActual","","","","","","944.5700000001234","","","","Images/NewTrialBC.png","","0"
"image-button-response","447","423554","0.0-13.0-1.129","66","Low_HMMActual","","","","","","null","","","","Images/BlackBeadChoice.png","","null"
"image-button-response","448","424059","0.0-13.0-2.129","66","Low_HMMActual","","","","","","null","","","","Images/BlackBeadChoiceCorrect.png","","null"
"image-button-response","449","424321","0.0-13.0-0.130","66","Low_HMMActual","","","","","","259.96500000020023","","","","Images/NewTrialBC.png","","0"
"image-button-response","450","424626","0.0-13.0-1.130","66","Low_HMMActual","","","","","","null","","","","Images/BlackBeadChoice.png","","null"
"image-button-response","451","425131","0.0-13.0-2.130","66","Low_HMMActual","","","","","","null","","","","Images/BlackBeadChoiceCorrect.png","","null"
"image-button-response","452","425466","0.0-13.0-0.131","66","Low_HMMActual","","","","","","333.64500000019325","","","","Images/NewTrialBC.png","","0"
"image-button-response","453","425784","0.0-13.0-1.131","66","Low_HMMActual","","","","","","null","","","","Images/BlackBeadChoice.png","","null"
"image-button-response","454","426286","0.0-13.0-2.131","66","Low_HMMActual","","","","","","null","","","","Images/BlackBeadChoiceCorrect.png","","null"
"image-button-response","455","426782","0.0-13.0-0.132","66","Low_HMMActual","","","","","","493.93000000010943","","","","Images/NewTrialBC.png","","0"
"image-button-response","456","427084","0.0-13.0-1.132","66","Low_HMMActual","","","","","","null","","","","Images/BlackBeadChoice.png","","null"
"image-button-response","457","427591","0.0-13.0-2.132","66","Low_HMMActual","","","","","","null","","","","Images/BlackBeadChoiceCorrect.png","","null"
"image-button-response","458","428077","0.0-13.0-0.133","66","Low_HMMActual","","","","","","483.6150000000489","","","","Images/NewTrialBC.png","","0"
"image-button-response","459","428382","0.0-13.0-1.133","66","Low_HMMActual","","","","","","null","","","","Images/BlackBeadChoice.png","","null"
"image-button-response","460","428885","0.0-13.0-2.133","66","Low_HMMActual","","","","","","null","","","","Images/BlackBeadChoiceCorrect.png","","null"
"image-button-response","461","429323","0.0-13.0-0.134","66","Low_HMMActual","","","","","","435.32499999995343","","","","Images/NewTrialBC.png","","0"
"image-button-response","462","429626","0.0-13.0-1.134","66","Low_HMMActual","","","","","","null","","","","Images/BlackBeadChoice.png","","null"
"image-button-response","463","430139","0.0-13.0-2.134","66","Low_HMMActual","","","","","","null","","","","Images/BlackBeadChoiceCorrect.png","","null"
"image-button-response","464","430641","0.0-13.0-0.135","66","Low_HMMActual","","","","","","500.0150000000722","","","","Images/NewTrialBC.png","","0"
"image-button-response","465","430944","0.0-13.0-1.135","66","Low_HMMActual","","","","","","null","","","","Images/BlackBeadChoice.png","","null"
"image-button-response","466","431449","0.0-13.0-2.135","66","Low_HMMActual","","","","","","null","","","","Images/BlackBeadChoiceWrong.png","","null"
"image-button-response","467","432461","0.0-13.0-0.136","66","Low_HMMActual","","","","","","1010.6550000000279","","","","Images/NewTrialWC.png","","1"
"image-button-response","468","432767","0.0-13.0-1.136","66","Low_HMMActual","","","","","","null","","","","Images/BlackBeadChoice.png","","null"
"image-button-response","469","433271","0.0-13.0-2.136","66","Low_HMMActual","","","","","","null","","","","Images/BlackBeadChoiceWrong.png","","null"
"image-button-response","470","434544","0.0-13.0-0.137","66","Low_HMMActual","","","","","","1272.0450000001583","","","","Images/NewTrialWC.png","","1"
"image-button-response","471","434847","0.0-13.0-1.137","66","Low_HMMActual","","","","","","null","","","","Images/BlackBeadChoice.png","","null"
"image-button-response","472","435354","0.0-13.0-2.137","66","Low_HMMActual","","","","","","null","","","","Images/BlackBeadChoiceWrong.png","","null"
"image-button-response","473","436374","0.0-13.0-0.138","66","Low_HMMActual","","","","","","1017.4249999999884","","","","Images/NewTrialWC.png","","2"
"image-button-response","474","436680","0.0-13.0-1.138","66","Low_HMMActual","","","","","","null","","","","Images/WhiteBeadChoice.png","","null"
"image-button-response","475","437187","0.0-13.0-2.138","66","Low_HMMActual","","","","","","null","","","","Images/WhiteBeadChoiceCorrect.png","","null"
"image-button-response","476","437841","0.0-13.0-0.139","66","Low_HMMActual","","","","","","651.8499999997439","","","","Images/NewTrialWC.png","","2"
"image-button-response","477","438144","0.0-13.0-1.139","66","Low_HMMActual","","","","","","null","","","","Images/WhiteBeadChoice.png","","null"
"image-button-response","478","438648","0.0-13.0-2.139","66","Low_HMMActual","","","","","","null","","","","Images/WhiteBeadChoiceCorrect.png","","null"
"image-button-response","479","439071","0.0-13.0-0.140","66","Low_HMMActual","","","","","","420.5299999999115","","","","Images/NewTrialWC.png","","2"
"image-button-response","480","439377","0.0-13.0-1.140","66","Low_HMMActual","","","","","","null","","","","Images/WhiteBeadChoice.png","","null"
"image-button-response","481","439880","0.0-13.0-2.140","66","Low_HMMActual","","","","","","null","","","","Images/WhiteBeadChoiceWrong.png","","null"
"image-button-response","482","440563","0.0-13.0-0.141","66","Low_HMMActual","","","","","","680.2750000001397","","","","Images/NewTrialBC.png","","1"
"image-button-response","483","440868","0.0-13.0-1.141","66","Low_HMMActual","","","","","","null","","","","Images/BlackBeadChoice.png","","null"
"image-button-response","484","441370","0.0-13.0-2.141","66","Low_HMMActual","","","","","","null","","","","Images/BlackBeadChoiceWrong.png","","null"
"image-button-response","485","442082","0.0-13.0-0.142","66","Low_HMMActual","","","","","","709.2199999997392","","","","Images/NewTrialWC.png","","2"
"image-button-response","486","442388","0.0-13.0-1.142","66","Low_HMMActual","","","","","","null","","","","Images/WhiteBeadChoice.png","","null"
"image-button-response","487","442894","0.0-13.0-2.142","66","Low_HMMActual","","","","","","null","","","","Images/WhiteBeadChoiceCorrect.png","","null"
"image-button-response","488","443217","0.0-13.0-0.143","66","Low_HMMActual","","","","","","317.70000000006985","","","","Images/NewTrialWC.png","","2"
"image-button-response","489","443519","0.0-13.0-1.143","66","Low_HMMActual","","","","","","null","","","","Images/WhiteBeadChoice.png","","null"
"image-button-response","490","444026","0.0-13.0-2.143","66","Low_HMMActual","","","","","","null","","","","Images/WhiteBeadChoiceWrong.png","","null"
"image-button-response","491","444688","0.0-13.0-0.144","66","Low_HMMActual","","","","","","659.0800000003655","","","","Images/NewTrialBC.png","","2"
"image-button-response","492","444993","0.0-13.0-1.144","66","Low_HMMActual","","","","","","null","","","","Images/WhiteBeadChoice.png","","null"
"image-button-response","493","445499","0.0-13.0-2.144","66","Low_HMMActual","","","","","","null","","","","Images/WhiteBeadChoiceCorrect.png","","null"
"image-button-response","494","445982","0.0-13.0-0.145","66","Low_HMMActual","","","","","","480.79000000003725","","","","Images/NewTrialWC.png","","2"
"image-button-response","495","446284","0.0-13.0-1.145","66","Low_HMMActual","","","","","","null","","","","Images/WhiteBeadChoice.png","","null"
"image-button-response","496","446787","0.0-13.0-2.145","66","Low_HMMActual","","","","","","null","","","","Images/WhiteBeadChoiceCorrect.png","","null"
"image-button-response","497","447237","0.0-13.0-0.146","66","Low_HMMActual","","","","","","447.340000000142","","","","Images/NewTrialWC.png","","2"
"image-button-response","498","447542","0.0-13.0-1.146","66","Low_HMMActual","","","","","","null","","","","Images/WhiteBeadChoice.png","","null"
"image-button-response","499","448044","0.0-13.0-2.146","66","Low_HMMActual","","","","","","null","","","","Images/WhiteBeadChoiceCorrect.png","","null"
"image-button-response","500","448446","0.0-13.0-0.147","66","Low_HMMActual","","","","","","398.5800000000163","","","","Images/NewTrialWC.png","","2"
"image-button-response","501","448748","0.0-13.0-1.147","66","Low_HMMActual","","","","","","null","","","","Images/WhiteBeadChoice.png","","null"
"image-button-response","502","449250","0.0-13.0-2.147","66","Low_HMMActual","","","","","","null","","","","Images/WhiteBeadChoiceCorrect.png","","null"
"image-button-response","503","450042","0.0-13.0-0.148","66","Low_HMMActual","","","","","","779.7299999997485","","","","Images/NewTrialWC.png","","2"
"image-button-response","504","450347","0.0-13.0-1.148","66","Low_HMMActual","","","","","","null","","","","Images/WhiteBeadChoice.png","","null"
"image-button-response","505","450851","0.0-13.0-2.148","66","Low_HMMActual","","","","","","null","","","","Images/WhiteBeadChoiceCorrect.png","","null"
"image-button-response","506","451380","0.0-13.0-0.149","66","Low_HMMActual","","","","","","521.8650000001653","","","","Images/NewTrialWC.png","","2"
"image-button-response","507","451682","0.0-13.0-1.149","66","Low_HMMActual","","","","","","null","","","","Images/WhiteBeadChoice.png","","null"
"image-button-response","508","452185","0.0-13.0-2.149","66","Low_HMMActual","","","","","","null","","","","Images/WhiteBeadChoiceWrong.png","","null"
"image-button-response","509","452936","0.0-13.0-0.150","66","Low_HMMActual","","","","","","748.979999999865","","","","Images/NewTrialBC.png","","1"
"image-button-response","510","453243","0.0-13.0-1.150","66","Low_HMMActual","","","","","","null","","","","Images/BlackBeadChoice.png","","null"
"image-button-response","511","453745","0.0-13.0-2.150","66","Low_HMMActual","","","","","","null","","","","Images/BlackBeadChoiceWrong.png","","null"
"image-button-response","512","454178","0.0-13.0-0.151","66","Low_HMMActual","","","","","","430.38500000012573","","","","Images/NewTrialWC.png","","2"
"image-button-response","513","454482","0.0-13.0-1.151","66","Low_HMMActual","","","","","","null","","","","Images/WhiteBeadChoice.png","","null"
"image-button-response","514","454984","0.0-13.0-2.151","66","Low_HMMActual","","","","","","null","","","","Images/WhiteBeadChoiceCorrect.png","","null"
"image-button-response","515","455264","0.0-13.0-0.152","66","Low_HMMActual","","","","","","277.3299999998999","","","","Images/NewTrialWC.png","","2"
"image-button-response","516","455569","0.0-13.0-1.152","66","Low_HMMActual","","","","","","null","","","","Images/WhiteBeadChoice.png","","null"
"image-button-response","517","456076","0.0-13.0-2.152","66","Low_HMMActual","","","","","","null","","","","Images/WhiteBeadChoiceCorrect.png","","null"
"image-button-response","518","456408","0.0-13.0-0.153","66","Low_HMMActual","","","","","","329.0250000000233","","","","Images/NewTrialWC.png","","2"
"image-button-response","519","456715","0.0-13.0-1.153","66","Low_HMMActual","","","","","","null","","","","Images/WhiteBeadChoice.png","","null"
"image-button-response","520","457219","0.0-13.0-2.153","66","Low_HMMActual","","","","","","null","","","","Images/WhiteBeadChoiceCorrect.png","","null"
"image-button-response","521","457573","0.0-13.0-0.154","66","Low_HMMActual","","","","","","352.30000000004657","","","","Images/NewTrialWC.png","","2"
"image-button-response","522","457881","0.0-13.0-1.154","66","Low_HMMActual","","","","","","null","","","","Images/WhiteBeadChoice.png","","null"
"image-button-response","523","458396","0.0-13.0-2.154","66","Low_HMMActual","","","","","","null","","","","Images/WhiteBeadChoiceCorrect.png","","null"
"image-button-response","524","458696","0.0-13.0-0.155","66","Low_HMMActual","","","","","","296.78000000014435","","","","Images/NewTrialWC.png","","2"
"image-button-response","525","459001","0.0-13.0-1.155","66","Low_HMMActual","","","","","","null","","","","Images/WhiteBeadChoice.png","","null"
"image-button-response","526","459508","0.0-13.0-2.155","66","Low_HMMActual","","","","","","null","","","","Images/WhiteBeadChoiceCorrect.png","","null"
"image-button-response","527","459893","0.0-13.0-0.156","66","Low_HMMActual","","","","","","382.63000000006286","","","","Images/NewTrialWC.png","","2"
"image-button-response","528","460196","0.0-13.0-1.156","66","Low_HMMActual","","","","","","null","","","","Images/WhiteBeadChoice.png","","null"
"image-button-response","529","460698","0.0-13.0-2.156","66","Low_HMMActual","","","","","","null","","","","Images/WhiteBeadChoiceWrong.png","","null"
"image-button-response","530","461928","0.0-13.0-0.157","66","Low_HMMActual","","","","","","1228.609999999695","","","","Images/NewTrialBC.png","","1"
"image-button-response","531","462231","0.0-13.0-1.157","66","Low_HMMActual","","","","","","null","","","","Images/BlackBeadChoice.png","","null"
"image-button-response","532","462732","0.0-13.0-2.157","66","Low_HMMActual","","","","","","null","","","","Images/BlackBeadChoiceWrong.png","","null"
"image-button-response","533","463197","0.0-13.0-0.158","66","Low_HMMActual","","","","","","462.6849999999977","","","","Images/NewTrialWC.png","","2"
"image-button-response","534","463499","0.0-13.0-1.158","66","Low_HMMActual","","","","","","null","","","","Images/WhiteBeadChoice.png","","null"
"image-button-response","535","464001","0.0-13.0-2.158","66","Low_HMMActual","","","","","","null","","","","Images/WhiteBeadChoiceCorrect.png","","null"
"image-button-response","536","464270","0.0-13.0-0.159","66","Low_HMMActual","","","","","","266.02500000037253","","","","Images/NewTrialWC.png","","2"
"image-button-response","537","464574","0.0-13.0-1.159","66","Low_HMMActual","","","","","","null","","","","Images/WhiteBeadChoice.png","","null"
"image-button-response","538","465078","0.0-13.0-2.159","66","Low_HMMActual","","","","","","null","","","","Images/WhiteBeadChoiceCorrect.png","","null"
"image-button-response","539","465359","0.0-13.0-0.160","66","Low_HMMActual","","","","","","278.8100000002305","","","","Images/NewTrialWC.png","","2"
"image-button-response","540","465662","0.0-13.0-1.160","66","Low_HMMActual","","","","","","null","","","","Images/WhiteBeadChoice.png","","null"
"image-button-response","541","466169","0.0-13.0-2.160","66","Low_HMMActual","","","","","","null","","","","Images/WhiteBeadChoiceCorrect.png","","null"
"image-button-response","542","466562","0.0-13.0-0.161","66","Low_HMMActual","","","","","","389.89500000025146","","","","Images/NewTrialWC.png","","2"
"image-button-response","543","466864","0.0-13.0-1.161","66","Low_HMMActual","","","","","","null","","","","Images/WhiteBeadChoice.png","","null"
"image-button-response","544","467369","0.0-13.0-2.161","66","Low_HMMActual","","","","","","null","","","","Images/WhiteBeadChoiceWrong.png","","null"
"image-button-response","545","468290","0.0-13.0-0.162","66","Low_HMMActual","","","","","","918.6450000001932","","","","Images/NewTrialBC.png","","2"
"image-button-response","546","468593","0.0-13.0-1.162","66","Low_HMMActual","","","","","","null","","","","Images/WhiteBeadChoice.png","","null"
"image-button-response","547","469097","0.0-13.0-2.162","66","Low_HMMActual","","","","","","null","","","","Images/WhiteBeadChoiceCorrect.png","","null"
"image-button-response","548","469532","0.0-13.0-0.163","66","Low_HMMActual","","","","","","432.5800000001327","","","","Images/NewTrialWC.png","","2"
"image-button-response","549","469839","0.0-13.0-1.163","66","Low_HMMActual","","","","","","null","","","","Images/WhiteBeadChoice.png","","null"
"image-button-response","550","470342","0.0-13.0-2.163","66","Low_HMMActual","","","","","","null","","","","Images/WhiteBeadChoiceCorrect.png","","null"
"image-button-response","551","470720","0.0-13.0-0.164","66","Low_HMMActual","","","","","","375.95000000006985","","","","Images/NewTrialWC.png","","2"
"image-button-response","552","471027","0.0-13.0-1.164","66","Low_HMMActual","","","","","","null","","","","Images/WhiteBeadChoice.png","","null"
"image-button-response","553","471531","0.0-13.0-2.164","66","Low_HMMActual","","","","","","null","","","","Images/WhiteBeadChoiceWrong.png","","null"
"image-button-response","554","472286","0.0-13.0-0.165","66","Low_HMMActual","","","","","","752.0100000001839","","","","Images/NewTrialBC.png","","1"
"image-button-response","555","472588","0.0-13.0-1.165","66","Low_HMMActual","","","","","","null","","","","Images/BlackBeadChoice.png","","null"
"image-button-response","556","473090","0.0-13.0-2.165","66","Low_HMMActual","","","","","","null","","","","Images/BlackBeadChoiceWrong.png","","null"
"image-button-response","557","473568","0.0-13.0-0.166","66","Low_HMMActual","","","","","","476.3350000002538","","","","Images/NewTrialWC.png","","2"
"image-button-response","558","473870","0.0-13.0-1.166","66","Low_HMMActual","","","","","","null","","","","Images/WhiteBeadChoice.png","","null"
"image-button-response","559","474372","0.0-13.0-2.166","66","Low_HMMActual","","","","","","null","","","","Images/WhiteBeadChoiceCorrect.png","","null"
"image-button-response","560","474841","0.0-13.0-0.167","66","Low_HMMActual","","","","","","467.07500000001164","","","","Images/NewTrialWC.png","","2"
"image-button-response","561","475144","0.0-13.0-1.167","66","Low_HMMActual","","","","","","null","","","","Images/WhiteBeadChoice.png","","null"
"image-button-response","562","475648","0.0-13.0-2.167","66","Low_HMMActual","","","","","","null","","","","Images/WhiteBeadChoiceCorrect.png","","null"
"image-button-response","563","476036","0.0-13.0-0.168","66","Low_HMMActual","","","","","","385.8199999999488","","","","Images/NewTrialWC.png","","2"
"image-button-response","564","476343","0.0-13.0-1.168","66","Low_HMMActual","","","","","","null","","","","Images/WhiteBeadChoice.png","","null"
"image-button-response","565","476848","0.0-13.0-2.168","66","Low_HMMActual","","","","","","null","","","","Images/WhiteBeadChoiceCorrect.png","","null"
"image-button-response","566","477166","0.0-13.0-0.169","66","Low_HMMActual","","","","","","314.6799999999348","","","","Images/NewTrialWC.png","","2"
"image-button-response","567","477470","0.0-13.0-1.169","66","Low_HMMActual","","","","","","null","","","","Images/WhiteBeadChoice.png","","null"
"image-button-response","568","477985","0.0-13.0-2.169","66","Low_HMMActual","","","","","","null","","","","Images/WhiteBeadChoiceWrong.png","","null"
"image-button-response","569","478696","0.0-13.0-0.170","66","Low_HMMActual","","","","","","708.3099999999977","","","","Images/NewTrialBC.png","","2"
"image-button-response","570","478999","0.0-13.0-1.170","66","Low_HMMActual","","","","","","null","","","","Images/WhiteBeadChoice.png","","null"
"image-button-response","571","479501","0.0-13.0-2.170","66","Low_HMMActual","","","","","","null","","","","Images/WhiteBeadChoiceCorrect.png","","null"
"image-button-response","572","481161","0.0-13.0-0.171","66","Low_HMMActual","","","","","","1657.0700000001816","","","","Images/NewTrialWC.png","","2"
"image-button-response","573","481464","0.0-13.0-1.171","66","Low_HMMActual","","","","","","null","","","","Images/WhiteBeadChoice.png","","null"
"image-button-response","574","481969","0.0-13.0-2.171","66","Low_HMMActual","","","","","","null","","","","Images/WhiteBeadChoiceCorrect.png","","null"
"image-button-response","575","482668","0.0-13.0-0.172","66","Low_HMMActual","","","","","","696.6400000001304","","","","Images/NewTrialWC.png","","2"
"image-button-response","576","482970","0.0-13.0-1.172","66","Low_HMMActual","","","","","","null","","","","Images/WhiteBeadChoice.png","","null"
"image-button-response","577","483473","0.0-13.0-2.172","66","Low_HMMActual","","","","","","null","","","","Images/WhiteBeadChoiceCorrect.png","","null"
"image-button-response","578","483899","0.0-13.0-0.173","66","Low_HMMActual","","","","","","423.2549999997136","","","","Images/NewTrialWC.png","","2"
"image-button-response","579","484202","0.0-13.0-1.173","66","Low_HMMActual","","","","","","null","","","","Images/WhiteBeadChoice.png","","null"
"image-button-response","580","484704","0.0-13.0-2.173","66","Low_HMMActual","","","","","","null","","","","Images/WhiteBeadChoiceCorrect.png","","null"
"image-button-response","581","484968","0.0-13.0-0.174","66","Low_HMMActual","","","","","","261.67000000033295","","","","Images/NewTrialWC.png","","2"
"image-button-response","582","485269","0.0-13.0-1.174","66","Low_HMMActual","","","","","","null","","","","Images/WhiteBeadChoice.png","","null"
"image-button-response","583","485776","0.0-13.0-2.174","66","Low_HMMActual","","","","","","null","","","","Images/WhiteBeadChoiceCorrect.png","","null"
"image-button-response","584","486125","0.0-13.0-0.175","66","Low_HMMActual","","","","","","345.91999999975087","","","","Images/NewTrialWC.png","","2"
"image-button-response","585","486435","0.0-13.0-1.175","66","Low_HMMActual","","","","","","null","","","","Images/WhiteBeadChoice.png","","null"
"image-button-response","586","486941","0.0-13.0-2.175","66","Low_HMMActual","","","","","","null","","","","Images/WhiteBeadChoiceCorrect.png","","null"
"image-button-response","587","487307","0.0-13.0-0.176","66","Low_HMMActual","","","","","","364.1250000000582","","","","Images/NewTrialWC.png","","2"
"image-button-response","588","487611","0.0-13.0-1.176","66","Low_HMMActual","","","","","","null","","","","Images/WhiteBeadChoice.png","","null"
"image-button-response","589","488113","0.0-13.0-2.176","66","Low_HMMActual","","","","","","null","","","","Images/WhiteBeadChoiceCorrect.png","","null"
"image-button-response","590","488419","0.0-13.0-0.177","66","Low_HMMActual","","","","","","302.67499999987194","","","","Images/NewTrialWC.png","","2"
"image-button-response","591","488726","0.0-13.0-1.177","66","Low_HMMActual","","","","","","null","","","","Images/WhiteBeadChoice.png","","null"
"image-button-response","592","489231","0.0-13.0-2.177","66","Low_HMMActual","","","","","","null","","","","Images/WhiteBeadChoiceWrong.png","","null"
"image-button-response","593","490997","0.0-13.0-0.178","66","Low_HMMActual","","","","","","1763.4100000000326","","","","Images/NewTrialBC.png","","3"
"image-button-response","594","491300","0.0-13.0-1.178","66","Low_HMMActual","","","","","","null","","","","Images/WhiteBeadChoice.png","","null"
"image-button-response","595","491802","0.0-13.0-2.178","66","Low_HMMActual","","","","","","null","","","","Images/WhiteBeadChoiceWrong.png","","null"
"image-button-response","596","492468","0.0-13.0-0.179","66","Low_HMMActual","","","","","","663.9100000002072","","","","Images/NewTrialBC.png","","1"
"image-button-response","597","492770","0.0-13.0-1.179","66","Low_HMMActual","","","","","","null","","","","Images/BlackBeadChoice.png","","null"
"image-button-response","598","493273","0.0-13.0-2.179","66","Low_HMMActual","","","","","","null","","","","Images/BlackBeadChoiceCorrect.png","","null"
"image-button-response","599","493560","0.0-13.0-0.180","66","Low_HMMActual","","","","","","284.75000000029104","","","","Images/NewTrialBC.png","","0"
"image-button-response","600","493863","0.0-13.0-1.180","66","Low_HMMActual","","","","","","null","","","","Images/BlackBeadChoice.png","","null"
"image-button-response","601","494367","0.0-13.0-2.180","66","Low_HMMActual","","","","","","null","","","","Images/BlackBeadChoiceCorrect.png","","null"
"image-button-response","602","495133","0.0-13.0-0.181","66","Low_HMMActual","","","","","","761.9549999998999","","","","Images/NewTrialBC.png","","0"
"image-button-response","603","495437","0.0-13.0-1.181","66","Low_HMMActual","","","","","","null","","","","Images/BlackBeadChoice.png","","null"
"image-button-response","604","495941","0.0-13.0-2.181","66","Low_HMMActual","","","","","","null","","","","Images/BlackBeadChoiceCorrect.png","","null"
"image-button-response","605","496253","0.0-13.0-0.182","66","Low_HMMActual","","","","","","308.81999999977415","","","","Images/NewTrialBC.png","","0"
"image-button-response","606","496561","0.0-13.0-1.182","66","Low_HMMActual","","","","","","null","","","","Images/BlackBeadChoice.png","","null"
"image-button-response","607","497064","0.0-13.0-2.182","66","Low_HMMActual","","","","","","null","","","","Images/BlackBeadChoiceCorrect.png","","null"
"image-button-response","608","497383","0.0-13.0-0.183","66","Low_HMMActual","","","","","","317.4450000001816","","","","Images/NewTrialBC.png","","0"
"image-button-response","609","497686","0.0-13.0-1.183","66","Low_HMMActual","","","","","","null","","","","Images/BlackBeadChoice.png","","null"
"image-button-response","610","498188","0.0-13.0-2.183","66","Low_HMMActual","","","","","","null","","","","Images/BlackBeadChoiceWrong.png","","null"
"image-button-response","611","498890","0.0-13.0-0.184","66","Low_HMMActual","","","","","","700.1649999997462","","","","Images/NewTrialWC.png","","1"
"image-button-response","612","499196","0.0-13.0-1.184","66","Low_HMMActual","","","","","","null","","","","Images/BlackBeadChoice.png","","null"
"image-button-response","613","499699","0.0-13.0-2.184","66","Low_HMMActual","","","","","","null","","","","Images/BlackBeadChoiceWrong.png","","null"
"image-button-response","614","500639","0.0-13.0-0.185","66","Low_HMMActual","","","","","","936.7649999999558","","","","Images/NewTrialWC.png","","3"
"image-button-response","615","500942","0.0-13.0-1.185","66","Low_HMMActual","","","","","","null","","","","Images/WhiteBeadChoice.png","","null"
"image-button-response","616","501444","0.0-13.0-2.185","66","Low_HMMActual","","","","","","null","","","","Images/WhiteBeadChoiceCorrect.png","","null"
"image-button-response","617","501936","0.0-13.0-0.186","66","Low_HMMActual","","","","","","489.5850000002538","","","","Images/NewTrialWC.png","","2"
"image-button-response","618","502241","0.0-13.0-1.186","66","Low_HMMActual","","","","","","null","","","","Images/WhiteBeadChoice.png","","null"
"image-button-response","619","502742","0.0-13.0-2.186","66","Low_HMMActual","","","","","","null","","","","Images/WhiteBeadChoiceWrong.png","","null"
"image-button-response","620","503195","0.0-13.0-0.187","66","Low_HMMActual","","","","","","451.300000000163","","","","Images/NewTrialBC.png","","2"
"image-button-response","621","503500","0.0-13.0-1.187","66","Low_HMMActual","","","","","","null","","","","Images/WhiteBeadChoice.png","","null"
"image-button-response","622","504002","0.0-13.0-2.187","66","Low_HMMActual","","","","","","null","","","","Images/WhiteBeadChoiceCorrect.png","","null"
"image-button-response","623","504505","0.0-13.0-0.188","66","Low_HMMActual","","","","","","500.51499999972293","","","","Images/NewTrialWC.png","","2"
"image-button-response","624","504810","0.0-13.0-1.188","66","Low_HMMActual","","","","","","null","","","","Images/WhiteBeadChoice.png","","null"
"image-button-response","625","505312","0.0-13.0-2.188","66","Low_HMMActual","","","","","","null","","","","Images/WhiteBeadChoiceCorrect.png","","null"
"image-button-response","626","505752","0.0-13.0-0.189","66","Low_HMMActual","","","","","","435.73999999987427","","","","Images/NewTrialWC.png","","2"
"image-button-response","627","506054","0.0-13.0-1.189","66","Low_HMMActual","","","","","","null","","","","Images/WhiteBeadChoice.png","","null"
"image-button-response","628","506557","0.0-13.0-2.189","66","Low_HMMActual","","","","","","null","","","","Images/WhiteBeadChoiceCorrect.png","","null"
"image-button-response","629","506885","0.0-13.0-0.190","66","Low_HMMActual","","","","","","326.1899999997695","","","","Images/NewTrialWC.png","","2"
"image-button-response","630","507187","0.0-13.0-1.190","66","Low_HMMActual","","","","","","null","","","","Images/WhiteBeadChoice.png","","null"
"image-button-response","631","507698","0.0-13.0-2.190","66","Low_HMMActual","","","","","","null","","","","Images/WhiteBeadChoiceCorrect.png","","null"
"image-button-response","632","508198","0.0-13.0-0.191","66","Low_HMMActual","","","","","","497.6600000000326","","","","Images/NewTrialWC.png","","2"
"image-button-response","633","508502","0.0-13.0-1.191","66","Low_HMMActual","","","","","","null","","","","Images/WhiteBeadChoice.png","","null"
"image-button-response","634","509005","0.0-13.0-2.191","66","Low_HMMActual","","","","","","null","","","","Images/WhiteBeadChoiceCorrect.png","","null"
"image-button-response","635","509409","0.0-13.0-0.192","66","Low_HMMActual","","","","","","401.05500000028405","","","","Images/NewTrialWC.png","","2"
"image-button-response","636","509712","0.0-13.0-1.192","66","Low_HMMActual","","","","","","null","","","","Images/WhiteBeadChoice.png","","null"
"image-button-response","637","510214","0.0-13.0-2.192","66","Low_HMMActual","","","","","","null","","","","Images/WhiteBeadChoiceCorrect.png","","null"
"image-button-response","638","510530","0.0-13.0-0.193","66","Low_HMMActual","","","","","","313.15500000026077","","","","Images/NewTrialWC.png","","2"
"image-button-response","639","510832","0.0-13.0-1.193","66","Low_HMMActual","","","","","","null","","","","Images/WhiteBeadChoice.png","","null"
"image-button-response","640","511334","0.0-13.0-2.193","66","Low_HMMActual","","","","","","null","","","","Images/WhiteBeadChoiceCorrect.png","","null"
"image-button-response","641","511684","0.0-13.0-0.194","66","Low_HMMActual","","","","","","347.2600000000093","","","","Images/NewTrialWC.png","","3"
"image-button-response","642","511990","0.0-13.0-1.194","66","Low_HMMActual","","","","","","null","","","","Images/WhiteBeadChoice.png","","null"
"image-button-response","643","512495","0.0-13.0-2.194","66","Low_HMMActual","","","","","","null","","","","Images/WhiteBeadChoiceCorrect.png","","null"
"image-button-response","644","513166","0.0-13.0-0.195","66","Low_HMMActual","","","","","","669.269999999844","","","","Images/NewTrialWC.png","","2"
"image-button-response","645","513471","0.0-13.0-1.195","66","Low_HMMActual","","","","","","null","","","","Images/WhiteBeadChoice.png","","null"
"image-button-response","646","513976","0.0-13.0-2.195","66","Low_HMMActual","","","","","","null","","","","Images/WhiteBeadChoiceCorrect.png","","null"
"image-button-response","647","514381","0.0-13.0-0.196","66","Low_HMMActual","","","","","","402.3200000001234","","","","Images/NewTrialWC.png","","2"
"image-button-response","648","514682","0.0-13.0-1.196","66","Low_HMMActual","","","","","","null","","","","Images/WhiteBeadChoice.png","","null"
"image-button-response","649","515187","0.0-13.0-2.196","66","Low_HMMActual","","","","","","null","","","","Images/WhiteBeadChoiceCorrect.png","","null"
"image-button-response","650","516514","0.0-13.0-0.197","66","Low_HMMActual","","","","","","1324.1250000000582","","","","Images/NewTrialWC.png","","2"
"image-button-response","651","516821","0.0-13.0-1.197","66","Low_HMMActual","","","","","","null","","","","Images/WhiteBeadChoice.png","","null"
"image-button-response","652","517328","0.0-13.0-2.197","66","Low_HMMActual","","","","","","null","","","","Images/WhiteBeadChoiceCorrect.png","","null"
"image-button-response","653","519738","0.0-13.0-0.198","66","Low_HMMActual","","","","","","2406.6199999997625","","","","Images/NewTrialWC.png","","2"
"image-button-response","654","520042","0.0-13.0-1.198","66","Low_HMMActual","","","","","","null","","","","Images/WhiteBeadChoice.png","","null"
"image-button-response","655","520544","0.0-13.0-2.198","66","Low_HMMActual","","","","","","null","","","","Images/WhiteBeadChoiceCorrect.png","","null"
"image-button-response","656","520997","0.0-13.0-0.199","66","Low_HMMActual","","","","","","450.929999999993","","","","Images/NewTrialWC.png","","2"
"image-button-response","657","521298","0.0-13.0-1.199","66","Low_HMMActual","","","","","","null","","","","Images/WhiteBeadChoice.png","","null"
"image-button-response","658","521802","0.0-13.0-2.199","66","Low_HMMActual","","","","","","null","","","","Images/WhiteBeadChoiceCorrect.png","","null"
"image-button-response","659","522097","0.0-13.0-0.200","66","Low_HMMActual","","","","","","292.75499999994645","","","","Images/NewTrialWC.png","","2"
"image-button-response","660","522399","0.0-13.0-1.200","66","Low_HMMActual","","","","","","null","","","","Images/WhiteBeadChoice.png","","null"
"image-button-response","661","522909","0.0-13.0-2.200","66","Low_HMMActual","","","","","","null","","","","Images/WhiteBeadChoiceCorrect.png","","null"
