"trial_type","trial_index","time_elapsed","internal_node_id","Script_Picker","Block_Type","success","timeout","failed_images","failed_audio","failed_video","rt","url","responses","question_order","stimulus","key_press","response"
"pavlovia","0","94","0.0-0.0","71","Low_HMMActual","","","","","","","","","","","",""
"preload","1","96","0.0-1.0","71","Low_HMMActual","true","false","[]","[]","[]","","","","","","",""
"external-html","2","2634","0.0-2.0-0.0","71","Low_HMMActual","","","","","","2485.5999999046326","consent.html","","","","",""
"survey-multi-choice","3","5693","0.0-2.0-1.0","71","Low_HMMActual","","","","","","3057.5999999046326","","{""Q0"":""Female"",""Q1"":""White""}","[0,1]","","",""
"survey-text","4","7641","0.0-2.0-2.0","71","Low_HMMActual","","","","","","1944.8000001907349","","{""Q0"":""26""}","","","",""
"survey-text","5","12302","0.0-2.0-3.0","71","Low_HMMActual","","","","","","4549.299999713898","","{""Q0"":""60c86505e26bc5e0e2e725eb""}","","","",""
"image-keyboard-response","6","13187","0.0-3.0-0.0","71","Low_HMMActual","","","","","","780.7999997138977","","","","tutorial/tutorial1.png"," ",""
"image-keyboard-response","7","13944","0.0-3.0-0.1","71","Low_HMMActual","","","","","","753.9000000953674","","","","tutorial/tutorial2.png"," ",""
"image-keyboard-response","8","14391","0.0-3.0-0.2","71","Low_HMMActual","","","","","","445.09999990463257","","","","tutorial/tutorial3.png"," ",""
"image-keyboard-response","9","14784","0.0-3.0-0.3","71","Low_HMMActual","","","","","","391.30000019073486","","","","tutorial/tutorial4.png"," ",""
"image-keyboard-response","10","15151","0.0-3.0-0.4","71","Low_HMMActual","","","","","","365","","","","tutorial/tutorial5.png"," ",""
"image-keyboard-response","11","15554","0.0-3.0-0.5","71","Low_HMMActual","","","","","","402.30000019073486","","","","tutorial/tutorial6.png"," ",""
"image-keyboard-response","12","16040","0.0-3.0-0.6","71","Low_HMMActual","","","","","","484","","","","tutorial/tutorial7.png"," ",""
"image-keyboard-response","13","16449","0.0-3.0-0.7","71","Low_HMMActual","","","","","","407.1000003814697","","","","tutorial/tutorial8.png"," ",""
"image-keyboard-response","14","16961","0.0-3.0-0.8","71","Low_HMMActual","","","","","","509.7999997138977","","","","tutorial/tutorial9.png"," ",""
"image-keyboard-response","15","17935","0.0-3.0-0.9","71","Low_HMMActual","","","","","","972.5","","","","tutorial/tutorial10.png"," ",""
"image-keyboard-response","16","18585","0.0-3.0-0.10","71","Low_HMMActual","","","","","","649","","","","tutorial/tutorial11.png"," ",""
"image-keyboard-response","17","19210","0.0-3.0-0.11","71","Low_HMMActual","","","","","","622.9000000953674","","","","tutorial/tutorial12.png"," ",""
"image-keyboard-response","18","19675","0.0-3.0-0.12","71","Low_HMMActual","","","","","","463.90000009536743","","","","tutorial/tutorial13.png"," ",""
"image-keyboard-response","19","20063","0.0-3.0-0.13","71","Low_HMMActual","","","","","","386.7999997138977","","","","tutorial/tutorial14.png"," ",""
"image-keyboard-response","20","20505","0.0-3.0-0.14","71","Low_HMMActual","","","","","","439.7999997138977","","","","tutorial/tutorial15.png"," ",""
"image-keyboard-response","21","22991","0.0-4.0","71","Low_HMMActual","","","","","","2484.5","","","","tutorial/tutorial16.png","arrowup",""
"image-keyboard-response","22","26529","0.0-5.0","71","Low_HMMActual","","","","","","2376.300000190735","","","","tutorial/tutorial17.png","arrowright",""
"image-keyboard-response","23","28968","0.0-6.0","71","Low_HMMActual","","","","","","1613.2000002861023","","","","tutorial/tutorial18.png","arrowleft",""
"image-keyboard-response","24","31343","0.0-7.0","71","Low_HMMActual","","","","","","1534.9000000953674","","","","tutorial/tutorial19.png"," ",""
"html-keyboard-response","25","51775","0.0-8.0","72","Low_HMMActual","","","","","","20429.900000095367","","","","<div class=""container"" style=""height:800px;width:800px;display:flex;flex-direction:column;justify-content:center;align-items:center;text-align:center;font-weight:normal;font-family:Arial;font-size:20px""><p>Loading episode&hellip;</p><div>"," ",""
"image-button-response","26","60791","0.0-9.0-0.0","72","Low_HMMActual","","","","","","9012.5","","","","Images/NoChoice.png","","0"
"image-button-response","27","61095","0.0-9.0-1.0","72","Low_HMMActual","","","","","","null","","","","Images/BlackBeadChoice.png","","null"
"image-button-response","28","61598","0.0-9.0-2.0","72","Low_HMMActual","","","","","","null","","","","Images/BlackBeadChoiceCorrect.png","","null"
"image-button-response","29","70700","0.0-9.0-0.1","72","Low_HMMActual","","","","","","9081.699999809265","","","","Images/NewTrialBC.png","","0"
"image-button-response","30","71002","0.0-9.0-1.1","72","Low_HMMActual","","","","","","null","","","","Images/BlackBeadChoice.png","","null"
"image-button-response","31","71516","0.0-9.0-2.1","72","Low_HMMActual","","","","","","null","","","","Images/BlackBeadChoiceCorrect.png","","null"
"image-button-response","32","74178","0.0-9.0-0.2","72","Low_HMMActual","","","","","","2659.2999997138977","","","","Images/NewTrialBC.png","","1"
"image-button-response","33","74485","0.0-9.0-1.2","72","Low_HMMActual","","","","","","null","","","","Images/BlackBeadChoice.png","","null"
"image-button-response","34","75002","0.0-9.0-2.2","72","Low_HMMActual","","","","","","null","","","","Images/BlackBeadChoiceCorrect.png","","null"
"image-button-response","35","76484","0.0-9.0-0.3","72","Low_HMMActual","","","","","","1478","","","","Images/NewTrialBC.png","","1"
"image-button-response","36","76786","0.0-9.0-1.3","72","Low_HMMActual","","","","","","null","","","","Images/BlackBeadChoice.png","","null"
"image-button-response","37","77298","0.0-9.0-2.3","72","Low_HMMActual","","","","","","null","","","","Images/BlackBeadChoiceWrong.png","","null"
"image-button-response","38","82792","0.0-9.0-0.4","72","Low_HMMActual","","","","","","5492.900000095367","","","","Images/NewTrialWC.png","","3"
"image-button-response","39","83103","0.0-9.0-1.4","72","Low_HMMActual","","","","","","null","","","","Images/WhiteBeadChoice.png","","null"
"image-button-response","40","83616","0.0-9.0-2.4","72","Low_HMMActual","","","","","","null","","","","Images/WhiteBeadChoiceCorrect.png","","null"
"image-button-response","41","85112","0.0-9.0-0.5","72","Low_HMMActual","","","","","","1492","","","","Images/NewTrialWC.png","","2"
"image-button-response","42","85414","0.0-9.0-1.5","72","Low_HMMActual","","","","","","null","","","","Images/WhiteBeadChoice.png","","null"
"image-button-response","43","85927","0.0-9.0-2.5","72","Low_HMMActual","","","","","","null","","","","Images/WhiteBeadChoiceCorrect.png","","null"
"image-button-response","44","86728","0.0-9.0-0.6","72","Low_HMMActual","","","","","","798.2000002861023","","","","Images/NewTrialWC.png","","2"
"image-button-response","45","87030","0.0-9.0-1.6","72","Low_HMMActual","","","","","","null","","","","Images/WhiteBeadChoice.png","","null"
"image-button-response","46","87543","0.0-9.0-2.6","72","Low_HMMActual","","","","","","null","","","","Images/WhiteBeadChoiceCorrect.png","","null"
"image-button-response","47","88350","0.0-9.0-0.7","72","Low_HMMActual","","","","","","803.8999996185303","","","","Images/NewTrialWC.png","","2"
"image-button-response","48","88652","0.0-9.0-1.7","72","Low_HMMActual","","","","","","null","","","","Images/WhiteBeadChoice.png","","null"
"image-button-response","49","89155","0.0-9.0-2.7","72","Low_HMMActual","","","","","","null","","","","Images/WhiteBeadChoiceCorrect.png","","null"
"image-button-response","50","89490","0.0-9.0-0.8","72","Low_HMMActual","","","","","","332.59999990463257","","","","Images/NewTrialWC.png","","2"
"image-button-response","51","89792","0.0-9.0-1.8","72","Low_HMMActual","","","","","","null","","","","Images/WhiteBeadChoice.png","","null"
"image-button-response","52","90294","0.0-9.0-2.8","72","Low_HMMActual","","","","","","null","","","","Images/WhiteBeadChoiceCorrect.png","","null"
"image-button-response","53","90984","0.0-9.0-0.9","72","Low_HMMActual","","","","","","687.5999999046326","","","","Images/NewTrialWC.png","","2"
"image-button-response","54","91287","0.0-9.0-1.9","72","Low_HMMActual","","","","","","null","","","","Images/WhiteBeadChoice.png","","null"
"image-button-response","55","91792","0.0-9.0-2.9","72","Low_HMMActual","","","","","","null","","","","Images/WhiteBeadChoiceCorrect.png","","null"
"html-keyboard-response","56","94649","0.0-10.0","72","Low_HMMActual","","","","","","2856.199999809265","","","",""," ",""
"image-keyboard-response","57","97393","0.0-11.0","72","Low_HMMActual","","","","","","2742.0999999046326","","","","tutorial/tutorial20.png"," ",""
"html-keyboard-response","58","102264","0.0-12.0","73","Low_HMMActual","","","","","","4863.599999904633","","","","<div class=""container"" style=""height:800px;width:800px;display:flex;flex-direction:column;justify-content:center;align-items:center;text-align:center;font-weight:normal;font-family:Arial;font-size:20px""><p>Loading episode&hellip;</p><div>"," ",""
"image-button-response","59","104452","0.0-13.0-0.0","73","Low_HMMActual","","","","","","2186.5999999046326","","","","Images/NoChoice.png","","0"
"image-button-response","60","104756","0.0-13.0-1.0","73","Low_HMMActual","","","","","","null","","","","Images/BlackBeadChoice.png","","null"
"image-button-response","61","105273","0.0-13.0-2.0","73","Low_HMMActual","","","","","","null","","","","Images/BlackBeadChoiceCorrect.png","","null"
"image-button-response","62","106538","0.0-13.0-0.1","73","Low_HMMActual","","","","","","1262.6000003814697","","","","Images/NewTrialBC.png","","0"
"image-button-response","63","106853","0.0-13.0-1.1","73","Low_HMMActual","","","","","","null","","","","Images/BlackBeadChoice.png","","null"
"image-button-response","64","107367","0.0-13.0-2.1","73","Low_HMMActual","","","","","","null","","","","Images/BlackBeadChoiceWrong.png","","null"
"image-button-response","65","110006","0.0-13.0-0.2","73","Low_HMMActual","","","","","","2635.300000190735","","","","Images/NewTrialWC.png","","3"
"image-button-response","66","110307","0.0-13.0-1.2","73","Low_HMMActual","","","","","","null","","","","Images/WhiteBeadChoice.png","","null"
"image-button-response","67","110810","0.0-13.0-2.2","73","Low_HMMActual","","","","","","null","","","","Images/WhiteBeadChoiceCorrect.png","","null"
"image-button-response","68","111226","0.0-13.0-0.3","73","Low_HMMActual","","","","","","413.5","","","","Images/NewTrialWC.png","","2"
"image-button-response","69","111535","0.0-13.0-1.3","73","Low_HMMActual","","","","","","null","","","","Images/WhiteBeadChoice.png","","null"
"image-button-response","70","112039","0.0-13.0-2.3","73","Low_HMMActual","","","","","","501.7000002861023","","","","Images/WhiteBeadChoiceCorrect.png","","2"
"image-button-response","71","112910","0.0-13.0-0.4","73","Low_HMMActual","","","","","","869.1999998092651","","","","Images/NewTrialWC.png","","2"
"image-button-response","72","113217","0.0-13.0-1.4","73","Low_HMMActual","","","","","","null","","","","Images/WhiteBeadChoice.png","","null"
"image-button-response","73","113727","0.0-13.0-2.4","73","Low_HMMActual","","","","","","null","","","","Images/WhiteBeadChoiceWrong.png","","null"
"image-button-response","74","116138","0.0-13.0-0.5","73","Low_HMMActual","","","","","","2407.1000003814697","","","","Images/NewTrialBC.png","","0"
"image-button-response","75","116445","0.0-13.0-1.5","73","Low_HMMActual","","","","","","null","","","","Images/BlackBeadChoice.png","","null"
"image-button-response","76","116947","0.0-13.0-2.5","73","Low_HMMActual","","","","","","null","","","","Images/BlackBeadChoiceCorrect.png","","null"
"image-button-response","77","117798","0.0-13.0-0.6","73","Low_HMMActual","","","","","","848.7999997138977","","","","Images/NewTrialBC.png","","0"
"image-button-response","78","118101","0.0-13.0-1.6","73","Low_HMMActual","","","","","","null","","","","Images/BlackBeadChoice.png","","null"
"image-button-response","79","118603","0.0-13.0-2.6","73","Low_HMMActual","","","","","","null","","","","Images/BlackBeadChoiceCorrect.png","","null"
"image-button-response","80","119206","0.0-13.0-0.7","73","Low_HMMActual","","","","","","600.8000001907349","","","","Images/NewTrialBC.png","","0"
"image-button-response","81","119511","0.0-13.0-1.7","73","Low_HMMActual","","","","","","null","","","","Images/BlackBeadChoice.png","","null"
"image-button-response","82","120016","0.0-13.0-2.7","73","Low_HMMActual","","","","","","null","","","","Images/BlackBeadChoiceCorrect.png","","null"
"image-button-response","83","121124","0.0-13.0-0.8","73","Low_HMMActual","","","","","","1103.5999999046326","","","","Images/NewTrialBC.png","","0"
"image-button-response","84","121425","0.0-13.0-1.8","73","Low_HMMActual","","","","","","null","","","","Images/BlackBeadChoice.png","","null"
"image-button-response","85","121929","0.0-13.0-2.8","73","Low_HMMActual","","","","","","null","","","","Images/BlackBeadChoiceCorrect.png","","null"
"image-button-response","86","122816","0.0-13.0-0.9","73","Low_HMMActual","","","","","","885.5","","","","Images/NewTrialBC.png","","1"
"image-button-response","87","123121","0.0-13.0-1.9","73","Low_HMMActual","","","","","","null","","","","Images/BlackBeadChoice.png","","null"
"image-button-response","88","123623","0.0-13.0-2.9","73","Low_HMMActual","","","","","","null","","","","Images/BlackBeadChoiceWrong.png","","null"
"image-button-response","89","124882","0.0-13.0-0.10","73","Low_HMMActual","","","","","","1256.7999997138977","","","","Images/NewTrialWC.png","","2"
"image-button-response","90","125194","0.0-13.0-1.10","73","Low_HMMActual","","","","","","null","","","","Images/WhiteBeadChoice.png","","null"
"image-button-response","91","125700","0.0-13.0-2.10","73","Low_HMMActual","","","","","","null","","","","Images/WhiteBeadChoiceWrong.png","","null"
"image-button-response","92","126570","0.0-13.0-0.11","73","Low_HMMActual","","","","","","864.5","","","","Images/NewTrialBC.png","","3"
"image-button-response","93","126874","0.0-13.0-1.11","73","Low_HMMActual","","","","","","null","","","","Images/WhiteBeadChoice.png","","null"
"image-button-response","94","127376","0.0-13.0-2.11","73","Low_HMMActual","","","","","","null","","","","Images/WhiteBeadChoiceWrong.png","","null"
"image-button-response","95","127770","0.0-13.0-0.12","73","Low_HMMActual","","","","","","392.09999990463257","","","","Images/NewTrialBC.png","","0"
"image-button-response","96","128086","0.0-13.0-1.12","73","Low_HMMActual","","","","","","null","","","","Images/BlackBeadChoice.png","","null"
"image-button-response","97","128591","0.0-13.0-2.12","73","Low_HMMActual","","","","","","null","","","","Images/BlackBeadChoiceWrong.png","","null"
"image-button-response","98","131482","0.0-13.0-0.13","73","Low_HMMActual","","","","","","2888.9000000953674","","","","Images/NewTrialWC.png","","2"
"image-button-response","99","131783","0.0-13.0-1.13","73","Low_HMMActual","","","","","","null","","","","Images/WhiteBeadChoice.png","","null"
"image-button-response","100","132285","0.0-13.0-2.13","73","Low_HMMActual","","","","","","null","","","","Images/WhiteBeadChoiceWrong.png","","null"
"image-button-response","101","134904","0.0-13.0-0.14","73","Low_HMMActual","","","","","","2616.5","","","","Images/NewTrialBC.png","","1"
"image-button-response","102","135208","0.0-13.0-1.14","73","Low_HMMActual","","","","","","null","","","","Images/BlackBeadChoice.png","","null"
"image-button-response","103","135721","0.0-13.0-2.14","73","Low_HMMActual","","","","","","null","","","","Images/BlackBeadChoiceCorrect.png","","null"
"image-button-response","104","136154","0.0-13.0-0.15","73","Low_HMMActual","","","","","","427","","","","Images/NewTrialBC.png","","0"
"image-button-response","105","136469","0.0-13.0-1.15","73","Low_HMMActual","","","","","","null","","","","Images/BlackBeadChoice.png","","null"
"image-button-response","106","136981","0.0-13.0-2.15","73","Low_HMMActual","","","","","","null","","","","Images/BlackBeadChoiceCorrect.png","","null"
"image-button-response","107","137748","0.0-13.0-0.16","73","Low_HMMActual","","","","","","762.5999999046326","","","","Images/NewTrialBC.png","","0"
"image-button-response","108","138055","0.0-13.0-1.16","73","Low_HMMActual","","","","","","null","","","","Images/BlackBeadChoice.png","","null"
"image-button-response","109","138571","0.0-13.0-2.16","73","Low_HMMActual","","","","","","null","","","","Images/BlackBeadChoiceCorrect.png","","null"
"image-button-response","110","139560","0.0-13.0-0.17","73","Low_HMMActual","","","","","","986.7999997138977","","","","Images/NewTrialBC.png","","0"
"image-button-response","111","139879","0.0-13.0-1.17","73","Low_HMMActual","","","","","","null","","","","Images/BlackBeadChoice.png","","null"
"image-button-response","112","140391","0.0-13.0-2.17","73","Low_HMMActual","","","","","","null","","","","Images/BlackBeadChoiceCorrect.png","","null"
"image-button-response","113","141120","0.0-13.0-0.18","73","Low_HMMActual","","","","","","727.8000001907349","","","","Images/NewTrialBC.png","","0"
"image-button-response","114","141436","0.0-13.0-1.18","73","Low_HMMActual","","","","","","null","","","","Images/BlackBeadChoice.png","","null"
"image-button-response","115","141950","0.0-13.0-2.18","73","Low_HMMActual","","","","","","null","","","","Images/BlackBeadChoiceWrong.png","","null"
"image-button-response","116","143778","0.0-13.0-0.19","73","Low_HMMActual","","","","","","1826","","","","Images/NewTrialWC.png","","1"
"image-button-response","117","144081","0.0-13.0-1.19","73","Low_HMMActual","","","","","","null","","","","Images/BlackBeadChoice.png","","null"
"image-button-response","118","144594","0.0-13.0-2.19","73","Low_HMMActual","","","","","","null","","","","Images/BlackBeadChoiceCorrect.png","","null"
"image-button-response","119","145519","0.0-13.0-0.20","73","Low_HMMActual","","","","","","924","","","","Images/NewTrialBC.png","","0"
"image-button-response","120","145829","0.0-13.0-1.20","73","Low_HMMActual","","","","","","null","","","","Images/BlackBeadChoice.png","","null"
"image-button-response","121","146344","0.0-13.0-2.20","73","Low_HMMActual","","","","","","null","","","","Images/BlackBeadChoiceCorrect.png","","null"
"image-button-response","122","146755","0.0-13.0-0.21","73","Low_HMMActual","","","","","","408.5","","","","Images/NewTrialBC.png","","0"
"image-button-response","123","147062","0.0-13.0-1.21","73","Low_HMMActual","","","","","","null","","","","Images/BlackBeadChoice.png","","null"
"image-button-response","124","147564","0.0-13.0-2.21","73","Low_HMMActual","","","","","","null","","","","Images/BlackBeadChoiceWrong.png","","null"
"image-button-response","125","148060","0.0-13.0-0.22","73","Low_HMMActual","","","","","","492.1000003814697","","","","Images/NewTrialWC.png","","3"
"image-button-response","126","148364","0.0-13.0-1.22","73","Low_HMMActual","","","","","","null","","","","Images/WhiteBeadChoice.png","","null"
"image-button-response","127","148866","0.0-13.0-2.22","73","Low_HMMActual","","","","","","null","","","","Images/WhiteBeadChoiceCorrect.png","","null"
"image-button-response","128","149132","0.0-13.0-0.23","73","Low_HMMActual","","","","","","264","","","","Images/NewTrialWC.png","","2"
"image-button-response","129","149434","0.0-13.0-1.23","73","Low_HMMActual","","","","","","null","","","","Images/WhiteBeadChoice.png","","null"
"image-button-response","130","149936","0.0-13.0-2.23","73","Low_HMMActual","","","","","","null","","","","Images/WhiteBeadChoiceCorrect.png","","null"
"image-button-response","131","150652","0.0-13.0-0.24","73","Low_HMMActual","","","","","","713.3999996185303","","","","Images/NewTrialWC.png","","2"
"image-button-response","132","150955","0.0-13.0-1.24","73","Low_HMMActual","","","","","","null","","","","Images/WhiteBeadChoice.png","","null"
"image-button-response","133","151465","0.0-13.0-2.24","73","Low_HMMActual","","","","","","null","","","","Images/WhiteBeadChoiceWrong.png","","null"
"image-button-response","134","152920","0.0-13.0-0.25","73","Low_HMMActual","","","","","","1452.3000001907349","","","","Images/NewTrialBC.png","","1"
"image-button-response","135","153226","0.0-13.0-1.25","73","Low_HMMActual","","","","","","null","","","","Images/BlackBeadChoice.png","","null"
"image-button-response","136","153730","0.0-13.0-2.25","73","Low_HMMActual","","","","","","null","","","","Images/BlackBeadChoiceWrong.png","","null"
"image-button-response","137","154757","0.0-13.0-0.26","73","Low_HMMActual","","","","","","1023.5","","","","Images/NewTrialWC.png","","1"
"image-button-response","138","155059","0.0-13.0-1.26","73","Low_HMMActual","","","","","","null","","","","Images/BlackBeadChoice.png","","null"
"image-button-response","139","155561","0.0-13.0-2.26","73","Low_HMMActual","","","","","","null","","","","Images/BlackBeadChoiceWrong.png","","null"
"image-button-response","140","156332","0.0-13.0-0.27","73","Low_HMMActual","","","","","","765.9000000953674","","","","Images/NewTrialWC.png","","2"
"image-button-response","141","156634","0.0-13.0-1.27","73","Low_HMMActual","","","","","","null","","","","Images/WhiteBeadChoice.png","","null"
"image-button-response","142","157142","0.0-13.0-2.27","73","Low_HMMActual","","","","","","null","","","","Images/WhiteBeadChoiceWrong.png","","null"
"image-button-response","143","158054","0.0-13.0-0.28","73","Low_HMMActual","","","","","","909.5","","","","Images/NewTrialBC.png","","3"
"image-button-response","144","158356","0.0-13.0-1.28","73","Low_HMMActual","","","","","","null","","","","Images/WhiteBeadChoice.png","","null"
"image-button-response","145","158858","0.0-13.0-2.28","73","Low_HMMActual","","","","","","null","","","","Images/WhiteBeadChoiceWrong.png","","null"
"image-button-response","146","159256","0.0-13.0-0.29","73","Low_HMMActual","","","","","","396.19999980926514","","","","Images/NewTrialBC.png","","0"
"image-button-response","147","159562","0.0-13.0-1.29","73","Low_HMMActual","","","","","","null","","","","Images/BlackBeadChoice.png","","null"
"image-button-response","148","160063","0.0-13.0-2.29","73","Low_HMMActual","","","","","","null","","","","Images/BlackBeadChoiceWrong.png","","null"
"image-button-response","149","162012","0.0-13.0-0.30","73","Low_HMMActual","","","","","","1946.2000002861023","","","","Images/NewTrialWC.png","","3"
"image-button-response","150","162314","0.0-13.0-1.30","73","Low_HMMActual","","","","","","null","","","","Images/WhiteBeadChoice.png","","null"
"image-button-response","151","162817","0.0-13.0-2.30","73","Low_HMMActual","","","","","","null","","","","Images/WhiteBeadChoiceWrong.png","","null"
"image-button-response","152","164104","0.0-13.0-0.31","73","Low_HMMActual","","","","","","1284.3000001907349","","","","Images/NewTrialBC.png","","3"
"image-button-response","153","164406","0.0-13.0-1.31","73","Low_HMMActual","","","","","","null","","","","Images/WhiteBeadChoice.png","","null"
"image-button-response","154","164909","0.0-13.0-2.31","73","Low_HMMActual","","","","","","null","","","","Images/WhiteBeadChoiceWrong.png","","null"
"image-button-response","155","165449","0.0-13.0-0.32","73","Low_HMMActual","","","","","","537.8000001907349","","","","Images/NewTrialBC.png","","1"
"image-button-response","156","165763","0.0-13.0-1.32","73","Low_HMMActual","","","","","","null","","","","Images/BlackBeadChoice.png","","null"
"image-button-response","157","166276","0.0-13.0-2.32","73","Low_HMMActual","","","","","","null","","","","Images/BlackBeadChoiceCorrect.png","","null"
"image-button-response","158","166948","0.0-13.0-0.33","73","Low_HMMActual","","","","","","667.6999998092651","","","","Images/NewTrialBC.png","","1"
"image-button-response","159","167255","0.0-13.0-1.33","73","Low_HMMActual","","","","","","null","","","","Images/BlackBeadChoice.png","","null"
"image-button-response","160","167770","0.0-13.0-2.33","73","Low_HMMActual","","","","","","null","","","","Images/BlackBeadChoiceCorrect.png","","null"
"image-button-response","161","168252","0.0-13.0-0.34","73","Low_HMMActual","","","","","","479.30000019073486","","","","Images/NewTrialBC.png","","0"
"image-button-response","162","168569","0.0-13.0-1.34","73","Low_HMMActual","","","","","","null","","","","Images/BlackBeadChoice.png","","null"
"image-button-response","163","169086","0.0-13.0-2.34","73","Low_HMMActual","","","","","","null","","","","Images/BlackBeadChoiceCorrect.png","","null"
"image-button-response","164","169777","0.0-13.0-0.35","73","Low_HMMActual","","","","","","684.6999998092651","","","","Images/NewTrialBC.png","","0"
"image-button-response","165","170082","0.0-13.0-1.35","73","Low_HMMActual","","","","","","null","","","","Images/BlackBeadChoice.png","","null"
"image-button-response","166","170597","0.0-13.0-2.35","73","Low_HMMActual","","","","","","null","","","","Images/BlackBeadChoiceCorrect.png","","null"
"image-button-response","167","171442","0.0-13.0-0.36","73","Low_HMMActual","","","","","","841.5","","","","Images/NewTrialBC.png","","0"
"image-button-response","168","171754","0.0-13.0-1.36","73","Low_HMMActual","","","","","","null","","","","Images/BlackBeadChoice.png","","null"
"image-button-response","169","172271","0.0-13.0-2.36","73","Low_HMMActual","","","","","","null","","","","Images/BlackBeadChoiceWrong.png","","null"
"image-button-response","170","174195","0.0-13.0-0.37","73","Low_HMMActual","","","","","","1921.6999998092651","","","","Images/NewTrialWC.png","","3"
"image-button-response","171","174511","0.0-13.0-1.37","73","Low_HMMActual","","","","","","null","","","","Images/WhiteBeadChoice.png","","null"
"image-button-response","172","175027","0.0-13.0-2.37","73","Low_HMMActual","","","","","","null","","","","Images/WhiteBeadChoiceWrong.png","","null"
"image-button-response","173","175872","0.0-13.0-0.38","73","Low_HMMActual","","","","","","843","","","","Images/NewTrialBC.png","","1"
"image-button-response","174","176173","0.0-13.0-1.38","73","Low_HMMActual","","","","","","null","","","","Images/BlackBeadChoice.png","","null"
"image-button-response","175","176685","0.0-13.0-2.38","73","Low_HMMActual","","","","","","null","","","","Images/BlackBeadChoiceWrong.png","","null"
"image-button-response","176","177208","0.0-13.0-0.39","73","Low_HMMActual","","","","","","518.5999999046326","","","","Images/NewTrialWC.png","","1"
"image-button-response","177","177511","0.0-13.0-1.39","73","Low_HMMActual","","","","","","null","","","","Images/BlackBeadChoice.png","","null"
"image-button-response","178","178012","0.0-13.0-2.39","73","Low_HMMActual","","","","","","null","","","","Images/BlackBeadChoiceCorrect.png","","null"
"image-button-response","179","178696","0.0-13.0-0.40","73","Low_HMMActual","","","","","","681.5","","","","Images/NewTrialBC.png","","0"
"image-button-response","180","178997","0.0-13.0-1.40","73","Low_HMMActual","","","","","","null","","","","Images/BlackBeadChoice.png","","null"
"image-button-response","181","179501","0.0-13.0-2.40","73","Low_HMMActual","","","","","","null","","","","Images/BlackBeadChoiceCorrect.png","","null"
"image-button-response","182","180436","0.0-13.0-0.41","73","Low_HMMActual","","","","","","931.0999999046326","","","","Images/NewTrialBC.png","","0"
"image-button-response","183","180747","0.0-13.0-1.41","73","Low_HMMActual","","","","","","null","","","","Images/BlackBeadChoice.png","","null"
"image-button-response","184","181262","0.0-13.0-2.41","73","Low_HMMActual","","","","","","null","","","","Images/BlackBeadChoiceCorrect.png","","null"
"image-button-response","185","182530","0.0-13.0-0.42","73","Low_HMMActual","","","","","","1265.3999996185303","","","","Images/NewTrialBC.png","","0"
"image-button-response","186","182846","0.0-13.0-1.42","73","Low_HMMActual","","","","","","null","","","","Images/BlackBeadChoice.png","","null"
"image-button-response","187","183359","0.0-13.0-2.42","73","Low_HMMActual","","","","","","null","","","","Images/BlackBeadChoiceCorrect.png","","null"
"image-button-response","188","184136","0.0-13.0-0.43","73","Low_HMMActual","","","","","","758.1999998092651","","","","Images/NewTrialBC.png","","0"
"image-button-response","189","184448","0.0-13.0-1.43","73","Low_HMMActual","","","","","","null","","","","Images/BlackBeadChoice.png","","null"
"image-button-response","190","184960","0.0-13.0-2.43","73","Low_HMMActual","","","","","","null","","","","Images/BlackBeadChoiceCorrect.png","","null"
"image-button-response","191","185617","0.0-13.0-0.44","73","Low_HMMActual","","","","","","653.5","","","","Images/NewTrialBC.png","","0"
"image-button-response","192","185928","0.0-13.0-1.44","73","Low_HMMActual","","","","","","null","","","","Images/BlackBeadChoice.png","","null"
"image-button-response","193","186440","0.0-13.0-2.44","73","Low_HMMActual","","","","","","null","","","","Images/BlackBeadChoiceCorrect.png","","null"
"image-button-response","194","187120","0.0-13.0-0.45","73","Low_HMMActual","","","","","","676.5","","","","Images/NewTrialBC.png","","0"
"image-button-response","195","187427","0.0-13.0-1.45","73","Low_HMMActual","","","","","","null","","","","Images/BlackBeadChoice.png","","null"
"image-button-response","196","187942","0.0-13.0-2.45","73","Low_HMMActual","","","","","","null","","","","Images/BlackBeadChoiceWrong.png","","null"
"image-button-response","197","189832","0.0-13.0-0.46","73","Low_HMMActual","","","","","","1884.8999996185303","","","","Images/NewTrialWC.png","","1"
"image-button-response","198","190133","0.0-13.0-1.46","73","Low_HMMActual","","","","","","null","","","","Images/BlackBeadChoice.png","","null"
"image-button-response","199","190635","0.0-13.0-2.46","73","Low_HMMActual","","","","","","null","","","","Images/BlackBeadChoiceWrong.png","","null"
"image-button-response","200","191380","0.0-13.0-0.47","73","Low_HMMActual","","","","","","742.9000000953674","","","","Images/NewTrialWC.png","","2"
"image-button-response","201","191691","0.0-13.0-1.47","73","Low_HMMActual","","","","","","null","","","","Images/WhiteBeadChoice.png","","null"
"image-button-response","202","192196","0.0-13.0-2.47","73","Low_HMMActual","","","","","","null","","","","Images/WhiteBeadChoiceCorrect.png","","null"
"image-button-response","203","193029","0.0-13.0-0.48","73","Low_HMMActual","","","","","","830.3999996185303","","","","Images/NewTrialWC.png","","2"
"image-button-response","204","193335","0.0-13.0-1.48","73","Low_HMMActual","","","","","","null","","","","Images/WhiteBeadChoice.png","","null"
"image-button-response","205","193839","0.0-13.0-2.48","73","Low_HMMActual","","","","","","null","","","","Images/WhiteBeadChoiceCorrect.png","","null"
"image-button-response","206","195312","0.0-13.0-0.49","73","Low_HMMActual","","","","","","1467.2999997138977","","","","Images/NewTrialWC.png","","2"
"image-button-response","207","195623","0.0-13.0-1.49","73","Low_HMMActual","","","","","","null","","","","Images/WhiteBeadChoice.png","","null"
"image-button-response","208","196136","0.0-13.0-2.49","73","Low_HMMActual","","","","","","null","","","","Images/WhiteBeadChoiceCorrect.png","","null"
"image-button-response","209","196744","0.0-13.0-0.50","73","Low_HMMActual","","","","","","603.5999999046326","","","","Images/NewTrialWC.png","","2"
"image-button-response","210","197056","0.0-13.0-1.50","73","Low_HMMActual","","","","","","null","","","","Images/WhiteBeadChoice.png","","null"
"image-button-response","211","197571","0.0-13.0-2.50","73","Low_HMMActual","","","","","","null","","","","Images/WhiteBeadChoiceCorrect.png","","null"
"image-button-response","212","197946","0.0-13.0-0.51","73","Low_HMMActual","","","","","","371.19999980926514","","","","Images/NewTrialWC.png","","2"
"image-button-response","213","198256","0.0-13.0-1.51","73","Low_HMMActual","","","","","","null","","","","Images/WhiteBeadChoice.png","","null"
"image-button-response","214","198770","0.0-13.0-2.51","73","Low_HMMActual","","","","","","null","","","","Images/WhiteBeadChoiceCorrect.png","","null"
"image-button-response","215","199197","0.0-13.0-0.52","73","Low_HMMActual","","","","","","400.09999990463257","","","","Images/NewTrialWC.png","","2"
"image-button-response","216","199501","0.0-13.0-1.52","73","Low_HMMActual","","","","","","null","","","","Images/WhiteBeadChoice.png","","null"
"image-button-response","217","200006","0.0-13.0-2.52","73","Low_HMMActual","","","","","","null","","","","Images/WhiteBeadChoiceWrong.png","","null"
"image-button-response","218","200685","0.0-13.0-0.53","73","Low_HMMActual","","","","","","677.2999997138977","","","","Images/NewTrialBC.png","","3"
"image-button-response","219","200990","0.0-13.0-1.53","73","Low_HMMActual","","","","","","null","","","","Images/WhiteBeadChoice.png","","null"
"image-button-response","220","201493","0.0-13.0-2.53","73","Low_HMMActual","","","","","","null","","","","Images/WhiteBeadChoiceWrong.png","","null"
"image-button-response","221","202134","0.0-13.0-0.54","73","Low_HMMActual","","","","","","637.5999999046326","","","","Images/NewTrialBC.png","","1"
"image-button-response","222","202444","0.0-13.0-1.54","73","Low_HMMActual","","","","","","null","","","","Images/BlackBeadChoice.png","","null"
"image-button-response","223","202946","0.0-13.0-2.54","73","Low_HMMActual","","","","","","null","","","","Images/BlackBeadChoiceCorrect.png","","null"
"image-button-response","224","203251","0.0-13.0-0.55","73","Low_HMMActual","","","","","","299.80000019073486","","","","Images/NewTrialBC.png","","0"
"image-button-response","225","203566","0.0-13.0-1.55","73","Low_HMMActual","","","","","","null","","","","Images/BlackBeadChoice.png","","null"
"image-button-response","226","204079","0.0-13.0-2.55","73","Low_HMMActual","","","","","","null","","","","Images/BlackBeadChoiceCorrect.png","","null"
"image-button-response","227","204526","0.0-13.0-0.56","73","Low_HMMActual","","","","","","443","","","","Images/NewTrialBC.png","","0"
"image-button-response","228","204839","0.0-13.0-1.56","73","Low_HMMActual","","","","","","null","","","","Images/BlackBeadChoice.png","","null"
"image-button-response","229","205342","0.0-13.0-2.56","73","Low_HMMActual","","","","","","null","","","","Images/BlackBeadChoiceCorrect.png","","null"
"image-button-response","230","205874","0.0-13.0-0.57","73","Low_HMMActual","","","","","","527.1000003814697","","","","Images/NewTrialBC.png","","0"
"image-button-response","231","206181","0.0-13.0-1.57","73","Low_HMMActual","","","","","","null","","","","Images/BlackBeadChoice.png","","null"
"image-button-response","232","206694","0.0-13.0-2.57","73","Low_HMMActual","","","","","","null","","","","Images/BlackBeadChoiceCorrect.png","","null"
"image-button-response","233","207028","0.0-13.0-0.58","73","Low_HMMActual","","","","","","332","","","","Images/NewTrialBC.png","","0"
"image-button-response","234","207334","0.0-13.0-1.58","73","Low_HMMActual","","","","","","null","","","","Images/BlackBeadChoice.png","","null"
"image-button-response","235","207848","0.0-13.0-2.58","73","Low_HMMActual","","","","","","null","","","","Images/BlackBeadChoiceCorrect.png","","null"
"image-button-response","236","208087","0.0-13.0-0.59","73","Low_HMMActual","","","","","","236.09999990463257","","","","Images/NewTrialBC.png","","0"
"image-button-response","237","208393","0.0-13.0-1.59","73","Low_HMMActual","","","","","","null","","","","Images/BlackBeadChoice.png","","null"
"image-button-response","238","208897","0.0-13.0-2.59","73","Low_HMMActual","","","","","","null","","","","Images/BlackBeadChoiceCorrect.png","","null"
"image-button-response","239","209554","0.0-13.0-0.60","73","Low_HMMActual","","","","","","654","","","","Images/NewTrialBC.png","","0"
"image-button-response","240","209860","0.0-13.0-1.60","73","Low_HMMActual","","","","","","null","","","","Images/BlackBeadChoice.png","","null"
"image-button-response","241","210374","0.0-13.0-2.60","73","Low_HMMActual","","","","","","null","","","","Images/BlackBeadChoiceCorrect.png","","null"
"image-button-response","242","210816","0.0-13.0-0.61","73","Low_HMMActual","","","","","","417.1000003814697","","","","Images/NewTrialBC.png","","0"
"image-button-response","243","211120","0.0-13.0-1.61","73","Low_HMMActual","","","","","","null","","","","Images/BlackBeadChoice.png","","null"
"image-button-response","244","211632","0.0-13.0-2.61","73","Low_HMMActual","","","","","","null","","","","Images/BlackBeadChoiceWrong.png","","null"
"image-button-response","245","212356","0.0-13.0-0.62","73","Low_HMMActual","","","","","","722.2000002861023","","","","Images/NewTrialWC.png","","1"
"image-button-response","246","212662","0.0-13.0-1.62","73","Low_HMMActual","","","","","","null","","","","Images/BlackBeadChoice.png","","null"
"image-button-response","247","213179","0.0-13.0-2.62","73","Low_HMMActual","","","","","","null","","","","Images/BlackBeadChoiceCorrect.png","","null"
"image-button-response","248","213971","0.0-13.0-0.63","73","Low_HMMActual","","","","","","789.5999999046326","","","","Images/NewTrialBC.png","","1"
"image-button-response","249","214284","0.0-13.0-1.63","73","Low_HMMActual","","","","","","null","","","","Images/BlackBeadChoice.png","","null"
"image-button-response","250","214796","0.0-13.0-2.63","73","Low_HMMActual","","","","","","null","","","","Images/BlackBeadChoiceWrong.png","","null"
"image-button-response","251","215246","0.0-13.0-0.64","73","Low_HMMActual","","","","","","447.2000002861023","","","","Images/NewTrialWC.png","","3"
"image-button-response","252","215549","0.0-13.0-1.64","73","Low_HMMActual","","","","","","null","","","","Images/WhiteBeadChoice.png","","null"
"image-button-response","253","216056","0.0-13.0-2.64","73","Low_HMMActual","","","","","","null","","","","Images/WhiteBeadChoiceWrong.png","","null"
"image-button-response","254","217104","0.0-13.0-0.65","73","Low_HMMActual","","","","","","1042.5999999046326","","","","Images/NewTrialBC.png","","3"
"image-button-response","255","217412","0.0-13.0-1.65","73","Low_HMMActual","","","","","","null","","","","Images/WhiteBeadChoice.png","","null"
"image-button-response","256","217914","0.0-13.0-2.65","73","Low_HMMActual","","","","","","null","","","","Images/WhiteBeadChoiceCorrect.png","","null"
"image-button-response","257","218429","0.0-13.0-0.66","73","Low_HMMActual","","","","","","513.6999998092651","","","","Images/NewTrialWC.png","","2"
"image-button-response","258","218732","0.0-13.0-1.66","73","Low_HMMActual","","","","","","null","","","","Images/WhiteBeadChoice.png","","null"
"image-button-response","259","219248","0.0-13.0-2.66","73","Low_HMMActual","","","","","","null","","","","Images/WhiteBeadChoiceWrong.png","","null"
"image-button-response","260","219932","0.0-13.0-0.67","73","Low_HMMActual","","","","","","679.5999999046326","","","","Images/NewTrialBC.png","","3"
"image-button-response","261","220243","0.0-13.0-1.67","73","Low_HMMActual","","","","","","null","","","","Images/WhiteBeadChoice.png","","null"
"image-button-response","262","220746","0.0-13.0-2.67","73","Low_HMMActual","","","","","","null","","","","Images/WhiteBeadChoiceCorrect.png","","null"
"image-button-response","263","221335","0.0-13.0-0.68","73","Low_HMMActual","","","","","","586.5999999046326","","","","Images/NewTrialWC.png","","3"
"image-button-response","264","221652","0.0-13.0-1.68","73","Low_HMMActual","","","","","","null","","","","Images/WhiteBeadChoice.png","","null"
"image-button-response","265","222165","0.0-13.0-2.68","73","Low_HMMActual","","","","","","null","","","","Images/WhiteBeadChoiceCorrect.png","","null"
"image-button-response","266","222535","0.0-13.0-0.69","73","Low_HMMActual","","","","","","368","","","","Images/NewTrialWC.png","","2"
"image-button-response","267","222851","0.0-13.0-1.69","73","Low_HMMActual","","","","","","null","","","","Images/WhiteBeadChoice.png","","null"
"image-button-response","268","223365","0.0-13.0-2.69","73","Low_HMMActual","","","","","","null","","","","Images/WhiteBeadChoiceCorrect.png","","null"
"image-button-response","269","223810","0.0-13.0-0.70","73","Low_HMMActual","","","","","","443.7000002861023","","","","Images/NewTrialWC.png","","2"
"image-button-response","270","224133","0.0-13.0-1.70","73","Low_HMMActual","","","","","","null","","","","Images/WhiteBeadChoice.png","","null"
"image-button-response","271","224636","0.0-13.0-2.70","73","Low_HMMActual","","","","","","null","","","","Images/WhiteBeadChoiceWrong.png","","null"
"image-button-response","272","225226","0.0-13.0-0.71","73","Low_HMMActual","","","","","","587","","","","Images/NewTrialBC.png","","1"
"image-button-response","273","225543","0.0-13.0-1.71","73","Low_HMMActual","","","","","","null","","","","Images/BlackBeadChoice.png","","null"
"image-button-response","274","226051","0.0-13.0-2.71","73","Low_HMMActual","","","","","","null","","","","Images/BlackBeadChoiceWrong.png","","null"
"image-button-response","275","227297","0.0-13.0-0.72","73","Low_HMMActual","","","","","","1241.8999996185303","","","","Images/NewTrialWC.png","","1"
"image-button-response","276","227602","0.0-13.0-1.72","73","Low_HMMActual","","","","","","null","","","","Images/BlackBeadChoice.png","","null"
"image-button-response","277","228106","0.0-13.0-2.72","73","Low_HMMActual","","","","","","null","","","","Images/BlackBeadChoiceCorrect.png","","null"
"image-button-response","278","228570","0.0-13.0-0.73","73","Low_HMMActual","","","","","","460.80000019073486","","","","Images/NewTrialBC.png","","0"
"image-button-response","279","228880","0.0-13.0-1.73","73","Low_HMMActual","","","","","","null","","","","Images/BlackBeadChoice.png","","null"
"image-button-response","280","229411","0.0-13.0-2.73","73","Low_HMMActual","","","","","","null","","","","Images/BlackBeadChoiceWrong.png","","null"
"image-button-response","281","229986","0.0-13.0-0.74","73","Low_HMMActual","","","","","","571.9000000953674","","","","Images/NewTrialWC.png","","3"
"image-button-response","282","230301","0.0-13.0-1.74","73","Low_HMMActual","","","","","","null","","","","Images/WhiteBeadChoice.png","","null"
"image-button-response","283","230814","0.0-13.0-2.74","73","Low_HMMActual","","","","","","null","","","","Images/WhiteBeadChoiceCorrect.png","","null"
"image-button-response","284","231249","0.0-13.0-0.75","73","Low_HMMActual","","","","","","432.6000003814697","","","","Images/NewTrialWC.png","","2"
"image-button-response","285","231559","0.0-13.0-1.75","73","Low_HMMActual","","","","","","null","","","","Images/WhiteBeadChoice.png","","null"
"image-button-response","286","232073","0.0-13.0-2.75","73","Low_HMMActual","","","","","","null","","","","Images/WhiteBeadChoiceWrong.png","","null"
"image-button-response","287","232735","0.0-13.0-0.76","73","Low_HMMActual","","","","","","659","","","","Images/NewTrialBC.png","","3"
"image-button-response","288","233047","0.0-13.0-1.76","73","Low_HMMActual","","","","","","null","","","","Images/WhiteBeadChoice.png","","null"
"image-button-response","289","233562","0.0-13.0-2.76","73","Low_HMMActual","","","","","","null","","","","Images/WhiteBeadChoiceCorrect.png","","null"
"image-button-response","290","234501","0.0-13.0-0.77","73","Low_HMMActual","","","","","","934","","","","Images/NewTrialWC.png","","3"
"image-button-response","291","234808","0.0-13.0-1.77","73","Low_HMMActual","","","","","","null","","","","Images/WhiteBeadChoice.png","","null"
"image-button-response","292","235319","0.0-13.0-2.77","73","Low_HMMActual","","","","","","null","","","","Images/WhiteBeadChoiceCorrect.png","","null"
"image-button-response","293","235692","0.0-13.0-0.78","73","Low_HMMActual","","","","","","370.7000002861023","","","","Images/NewTrialWC.png","","2"
"image-button-response","294","236003","0.0-13.0-1.78","73","Low_HMMActual","","","","","","null","","","","Images/WhiteBeadChoice.png","","null"
"image-button-response","295","236521","0.0-13.0-2.78","73","Low_HMMActual","","","","","","null","","","","Images/WhiteBeadChoiceWrong.png","","null"
"image-button-response","296","238013","0.0-13.0-0.79","73","Low_HMMActual","","","","","","1486.6999998092651","","","","Images/NewTrialBC.png","","3"
"image-button-response","297","238328","0.0-13.0-1.79","73","Low_HMMActual","","","","","","null","","","","Images/WhiteBeadChoice.png","","null"
"image-button-response","298","238830","0.0-13.0-2.79","73","Low_HMMActual","","","","","","null","","","","Images/WhiteBeadChoiceWrong.png","","null"
"image-button-response","299","239226","0.0-13.0-0.80","73","Low_HMMActual","","","","","","393.59999990463257","","","","Images/NewTrialBC.png","","1"
"image-button-response","300","239529","0.0-13.0-1.80","73","Low_HMMActual","","","","","","null","","","","Images/BlackBeadChoice.png","","null"
"image-button-response","301","240045","0.0-13.0-2.80","73","Low_HMMActual","","","","","","null","","","","Images/BlackBeadChoiceWrong.png","","null"
"image-button-response","302","240829","0.0-13.0-0.81","73","Low_HMMActual","","","","","","782","","","","Images/NewTrialWC.png","","1"
"image-button-response","303","241132","0.0-13.0-1.81","73","Low_HMMActual","","","","","","null","","","","Images/BlackBeadChoice.png","","null"
"image-button-response","304","241637","0.0-13.0-2.81","73","Low_HMMActual","","","","","","null","","","","Images/BlackBeadChoiceWrong.png","","null"
"image-button-response","305","242168","0.0-13.0-0.82","73","Low_HMMActual","","","","","","527","","","","Images/NewTrialWC.png","","3"
"image-button-response","306","242471","0.0-13.0-1.82","73","Low_HMMActual","","","","","","null","","","","Images/WhiteBeadChoice.png","","null"
"image-button-response","307","242974","0.0-13.0-2.82","73","Low_HMMActual","","","","","","null","","","","Images/WhiteBeadChoiceWrong.png","","null"
"image-button-response","308","244348","0.0-13.0-0.83","73","Low_HMMActual","","","","","","1371.2999997138977","","","","Images/NewTrialBC.png","","1"
"image-button-response","309","244658","0.0-13.0-1.83","73","Low_HMMActual","","","","","","null","","","","Images/BlackBeadChoice.png","","null"
"image-button-response","310","245168","0.0-13.0-2.83","73","Low_HMMActual","","","","","","null","","","","Images/BlackBeadChoiceCorrect.png","","null"
"image-button-response","311","245736","0.0-13.0-0.84","73","Low_HMMActual","","","","","","565.7000002861023","","","","Images/NewTrialBC.png","","1"
"image-button-response","312","246053","0.0-13.0-1.84","73","Low_HMMActual","","","","","","null","","","","Images/BlackBeadChoice.png","","null"
"image-button-response","313","246567","0.0-13.0-2.84","73","Low_HMMActual","","","","","","null","","","","Images/BlackBeadChoiceCorrect.png","","null"
"image-button-response","314","247012","0.0-13.0-0.85","73","Low_HMMActual","","","","","","441.09999990463257","","","","Images/NewTrialBC.png","","0"
"image-button-response","315","247316","0.0-13.0-1.85","73","Low_HMMActual","","","","","","null","","","","Images/BlackBeadChoice.png","","null"
"image-button-response","316","247830","0.0-13.0-2.85","73","Low_HMMActual","","","","","","null","","","","Images/BlackBeadChoiceWrong.png","","null"
"image-button-response","317","248687","0.0-13.0-0.86","73","Low_HMMActual","","","","","","855","","","","Images/NewTrialWC.png","","1"
"image-button-response","318","249001","0.0-13.0-1.86","73","Low_HMMActual","","","","","","null","","","","Images/BlackBeadChoice.png","","null"
"image-button-response","319","249514","0.0-13.0-2.86","73","Low_HMMActual","","","","","","null","","","","Images/BlackBeadChoiceWrong.png","","null"
"image-button-response","320","249999","0.0-13.0-0.87","73","Low_HMMActual","","","","","","482.2000002861023","","","","Images/NewTrialWC.png","","3"
"image-button-response","321","250306","0.0-13.0-1.87","73","Low_HMMActual","","","","","","null","","","","Images/WhiteBeadChoice.png","","null"
"image-button-response","322","250811","0.0-13.0-2.87","73","Low_HMMActual","","","","","","null","","","","Images/WhiteBeadChoiceCorrect.png","","null"
"image-button-response","323","251069","0.0-13.0-0.88","73","Low_HMMActual","","","","","","256.5","","","","Images/NewTrialWC.png","","2"
"image-button-response","324","251384","0.0-13.0-1.88","73","Low_HMMActual","","","","","","null","","","","Images/WhiteBeadChoice.png","","null"
"image-button-response","325","251902","0.0-13.0-2.88","73","Low_HMMActual","","","","","","null","","","","Images/WhiteBeadChoiceCorrect.png","","null"
"image-button-response","326","252175","0.0-13.0-0.89","73","Low_HMMActual","","","","","","267.7000002861023","","","","Images/NewTrialWC.png","","2"
"image-button-response","327","252491","0.0-13.0-1.89","73","Low_HMMActual","","","","","","null","","","","Images/WhiteBeadChoice.png","","null"
"image-button-response","328","253011","0.0-13.0-2.89","73","Low_HMMActual","","","","","","null","","","","Images/WhiteBeadChoiceCorrect.png","","null"
"image-button-response","329","253197","0.0-13.0-0.90","73","Low_HMMActual","","","","","","184","","","","Images/NewTrialWC.png","","2"
"image-button-response","330","253507","0.0-13.0-1.90","73","Low_HMMActual","","","","","","null","","","","Images/WhiteBeadChoice.png","","null"
"image-button-response","331","254021","0.0-13.0-2.90","73","Low_HMMActual","","","","","","null","","","","Images/WhiteBeadChoiceCorrect.png","","null"
"image-button-response","332","254196","0.0-13.0-0.91","73","Low_HMMActual","","","","","","169.30000019073486","","","","Images/NewTrialWC.png","","2"
"image-button-response","333","254506","0.0-13.0-1.91","73","Low_HMMActual","","","","","","null","","","","Images/WhiteBeadChoice.png","","null"
"image-button-response","334","255019","0.0-13.0-2.91","73","Low_HMMActual","","","","","","null","","","","Images/WhiteBeadChoiceCorrect.png","","null"
"image-button-response","335","255133","0.0-13.0-0.92","73","Low_HMMActual","","","","","","102.5","","","","Images/NewTrialWC.png","","2"
"image-button-response","336","255439","0.0-13.0-1.92","73","Low_HMMActual","","","","","","null","","","","Images/WhiteBeadChoice.png","","null"
"image-button-response","337","255957","0.0-13.0-2.92","73","Low_HMMActual","","","","","","null","","","","Images/WhiteBeadChoiceCorrect.png","","null"
"image-button-response","338","256660","0.0-13.0-0.93","73","Low_HMMActual","","","","","","697.2000002861023","","","","Images/NewTrialWC.png","","2"
"image-button-response","339","256970","0.0-13.0-1.93","73","Low_HMMActual","","","","","","null","","","","Images/WhiteBeadChoice.png","","null"
"image-button-response","340","257483","0.0-13.0-2.93","73","Low_HMMActual","","","","","","null","","","","Images/WhiteBeadChoiceCorrect.png","","null"
"image-button-response","341","258084","0.0-13.0-0.94","73","Low_HMMActual","","","","","","597.7999997138977","","","","Images/NewTrialWC.png","","2"
"image-button-response","342","258404","0.0-13.0-1.94","73","Low_HMMActual","","","","","","null","","","","Images/WhiteBeadChoice.png","","null"
"image-button-response","343","258919","0.0-13.0-2.94","73","Low_HMMActual","","","","","","null","","","","Images/WhiteBeadChoiceWrong.png","","null"
"image-button-response","344","259487","0.0-13.0-0.95","73","Low_HMMActual","","","","","","565.7000002861023","","","","Images/NewTrialBC.png","","3"
"image-button-response","345","259793","0.0-13.0-1.95","73","Low_HMMActual","","","","","","null","","","","Images/WhiteBeadChoice.png","","null"
"image-button-response","346","260308","0.0-13.0-2.95","73","Low_HMMActual","","","","","","null","","","","Images/WhiteBeadChoiceCorrect.png","","null"
"image-button-response","347","260747","0.0-13.0-0.96","73","Low_HMMActual","","","","","","435.5","","","","Images/NewTrialWC.png","","3"
"image-button-response","348","261053","0.0-13.0-1.96","73","Low_HMMActual","","","","","","null","","","","Images/WhiteBeadChoice.png","","null"
"image-button-response","349","261556","0.0-13.0-2.96","73","Low_HMMActual","","","","","","null","","","","Images/WhiteBeadChoiceCorrect.png","","null"
"image-button-response","350","261973","0.0-13.0-0.97","73","Low_HMMActual","","","","","","415.5","","","","Images/NewTrialWC.png","","2"
"image-button-response","351","262281","0.0-13.0-1.97","73","Low_HMMActual","","","","","","null","","","","Images/WhiteBeadChoice.png","","null"
"image-button-response","352","262788","0.0-13.0-2.97","73","Low_HMMActual","","","","","","null","","","","Images/WhiteBeadChoiceWrong.png","","null"
"image-button-response","353","263254","0.0-13.0-0.98","73","Low_HMMActual","","","","","","460.59999990463257","","","","Images/NewTrialBC.png","","3"
"image-button-response","354","263557","0.0-13.0-1.98","73","Low_HMMActual","","","","","","null","","","","Images/WhiteBeadChoice.png","","null"
"image-button-response","355","264059","0.0-13.0-2.98","73","Low_HMMActual","","","","","","null","","","","Images/WhiteBeadChoiceWrong.png","","null"
"image-button-response","356","264430","0.0-13.0-0.99","73","Low_HMMActual","","","","","","368.5","","","","Images/NewTrialBC.png","","1"
"image-button-response","357","264745","0.0-13.0-1.99","73","Low_HMMActual","","","","","","null","","","","Images/BlackBeadChoice.png","","null"
"image-button-response","358","265249","0.0-13.0-2.99","73","Low_HMMActual","","","","","","null","","","","Images/BlackBeadChoiceWrong.png","","null"
"image-button-response","359","266212","0.0-13.0-0.100","73","Low_HMMActual","","","","","","960.5999999046326","","","","Images/NewTrialWC.png","","1"
"image-button-response","360","266529","0.0-13.0-1.100","73","Low_HMMActual","","","","","","null","","","","Images/BlackBeadChoice.png","","null"
"image-button-response","361","267037","0.0-13.0-2.100","73","Low_HMMActual","","","","","","null","","","","Images/BlackBeadChoiceCorrect.png","","null"
"image-button-response","362","267413","0.0-13.0-0.101","73","Low_HMMActual","","","","","","351.09999990463257","","","","Images/NewTrialBC.png","","0"
"image-button-response","363","267729","0.0-13.0-1.101","73","Low_HMMActual","","","","","","null","","","","Images/BlackBeadChoice.png","","null"
"image-button-response","364","268240","0.0-13.0-2.101","73","Low_HMMActual","","","","","","null","","","","Images/BlackBeadChoiceCorrect.png","","null"
"image-button-response","365","268751","0.0-13.0-0.102","73","Low_HMMActual","","","","","","505.2000002861023","","","","Images/NewTrialBC.png","","0"
"image-button-response","366","269061","0.0-13.0-1.102","73","Low_HMMActual","","","","","","null","","","","Images/BlackBeadChoice.png","","null"
"image-button-response","367","269577","0.0-13.0-2.102","73","Low_HMMActual","","","","","","null","","","","Images/BlackBeadChoiceCorrect.png","","null"
"image-button-response","368","270199","0.0-13.0-0.103","73","Low_HMMActual","","","","","","616.5999999046326","","","","Images/NewTrialBC.png","","0"
"image-button-response","369","270512","0.0-13.0-1.103","73","Low_HMMActual","","","","","","null","","","","Images/BlackBeadChoice.png","","null"
"image-button-response","370","271025","0.0-13.0-2.103","73","Low_HMMActual","","","","","","null","","","","Images/BlackBeadChoiceCorrect.png","","null"
"image-button-response","371","271246","0.0-13.0-0.104","73","Low_HMMActual","","","","","","218.59999990463257","","","","Images/NewTrialBC.png","","0"
"image-button-response","372","271554","0.0-13.0-1.104","73","Low_HMMActual","","","","","","null","","","","Images/BlackBeadChoice.png","","null"
"image-button-response","373","272069","0.0-13.0-2.104","73","Low_HMMActual","","","","","","null","","","","Images/BlackBeadChoiceCorrect.png","","null"
"image-button-response","374","272424","0.0-13.0-0.105","73","Low_HMMActual","","","","","","350.5","","","","Images/NewTrialBC.png","","0"
"image-button-response","375","272740","0.0-13.0-1.105","73","Low_HMMActual","","","","","","null","","","","Images/BlackBeadChoice.png","","null"
"image-button-response","376","273253","0.0-13.0-2.105","73","Low_HMMActual","","","","","","null","","","","Images/BlackBeadChoiceCorrect.png","","null"
"image-button-response","377","273675","0.0-13.0-0.106","73","Low_HMMActual","","","","","","419","","","","Images/NewTrialBC.png","","0"
"image-button-response","378","273984","0.0-13.0-1.106","73","Low_HMMActual","","","","","","null","","","","Images/BlackBeadChoice.png","","null"
"image-button-response","379","274498","0.0-13.0-2.106","73","Low_HMMActual","","","","","","null","","","","Images/BlackBeadChoiceWrong.png","","null"
"image-button-response","380","276058","0.0-13.0-0.107","73","Low_HMMActual","","","","","","1557.3999996185303","","","","Images/NewTrialWC.png","","1"
"image-button-response","381","276363","0.0-13.0-1.107","73","Low_HMMActual","","","","","","null","","","","Images/BlackBeadChoice.png","","null"
"image-button-response","382","276874","0.0-13.0-2.107","73","Low_HMMActual","","","","","","null","","","","Images/BlackBeadChoiceCorrect.png","","null"
"image-button-response","383","277309","0.0-13.0-0.108","73","Low_HMMActual","","","","","","432.90000009536743","","","","Images/NewTrialBC.png","","1"
"image-button-response","384","277611","0.0-13.0-1.108","73","Low_HMMActual","","","","","","null","","","","Images/BlackBeadChoice.png","","null"
"image-button-response","385","278137","0.0-13.0-2.108","73","Low_HMMActual","","","","","","null","","","","Images/BlackBeadChoiceCorrect.png","","null"
"image-button-response","386","278486","0.0-13.0-0.109","73","Low_HMMActual","","","","","","335.5","","","","Images/NewTrialBC.png","","0"
"image-button-response","387","278796","0.0-13.0-1.109","73","Low_HMMActual","","","","","","null","","","","Images/BlackBeadChoice.png","","null"
"image-button-response","388","279311","0.0-13.0-2.109","73","Low_HMMActual","","","","","","null","","","","Images/BlackBeadChoiceCorrect.png","","null"
"image-button-response","389","279629","0.0-13.0-0.110","73","Low_HMMActual","","","","","","316","","","","Images/NewTrialBC.png","","0"
"image-button-response","390","279942","0.0-13.0-1.110","73","Low_HMMActual","","","","","","null","","","","Images/BlackBeadChoice.png","","null"
"image-button-response","391","280447","0.0-13.0-2.110","73","Low_HMMActual","","","","","","null","","","","Images/BlackBeadChoiceCorrect.png","","null"
"image-button-response","392","280760","0.0-13.0-0.111","73","Low_HMMActual","","","","","","308.19999980926514","","","","Images/NewTrialBC.png","","0"
"image-button-response","393","281069","0.0-13.0-1.111","73","Low_HMMActual","","","","","","null","","","","Images/BlackBeadChoice.png","","null"
"image-button-response","394","281599","0.0-13.0-2.111","73","Low_HMMActual","","","","","","null","","","","Images/BlackBeadChoiceCorrect.png","","null"
"image-button-response","395","281963","0.0-13.0-0.112","73","Low_HMMActual","","","","","","360.59999990463257","","","","Images/NewTrialBC.png","","0"
"image-button-response","396","282268","0.0-13.0-1.112","73","Low_HMMActual","","","","","","null","","","","Images/BlackBeadChoice.png","","null"
"image-button-response","397","282780","0.0-13.0-2.112","73","Low_HMMActual","","","","","","null","","","","Images/BlackBeadChoiceCorrect.png","","null"
"image-button-response","398","283213","0.0-13.0-0.113","73","Low_HMMActual","","","","","","430.59999990463257","","","","Images/NewTrialBC.png","","0"
"image-button-response","399","283516","0.0-13.0-1.113","73","Low_HMMActual","","","","","","null","","","","Images/BlackBeadChoice.png","","null"
"image-button-response","400","284028","0.0-13.0-2.113","73","Low_HMMActual","","","","","","null","","","","Images/BlackBeadChoiceCorrect.png","","null"
"image-button-response","401","284487","0.0-13.0-0.114","73","Low_HMMActual","","","","","","455.1000003814697","","","","Images/NewTrialBC.png","","0"
"image-button-response","402","284792","0.0-13.0-1.114","73","Low_HMMActual","","","","","","null","","","","Images/BlackBeadChoice.png","","null"
"image-button-response","403","285305","0.0-13.0-2.114","73","Low_HMMActual","","","","","","null","","","","Images/BlackBeadChoiceWrong.png","","null"
"image-button-response","404","286036","0.0-13.0-0.115","73","Low_HMMActual","","","","","","729.9000000953674","","","","Images/NewTrialWC.png","","1"
"image-button-response","405","286350","0.0-13.0-1.115","73","Low_HMMActual","","","","","","null","","","","Images/BlackBeadChoice.png","","null"
"image-button-response","406","286854","0.0-13.0-2.115","73","Low_HMMActual","","","","","","null","","","","Images/BlackBeadChoiceWrong.png","","null"
"image-button-response","407","287263","0.0-13.0-0.116","73","Low_HMMActual","","","","","","406.69999980926514","","","","Images/NewTrialWC.png","","3"
"image-button-response","408","287576","0.0-13.0-1.116","73","Low_HMMActual","","","","","","null","","","","Images/WhiteBeadChoice.png","","null"
"image-button-response","409","288096","0.0-13.0-2.116","73","Low_HMMActual","","","","","","null","","","","Images/WhiteBeadChoiceWrong.png","","null"
"image-button-response","410","288346","0.0-13.0-0.117","73","Low_HMMActual","","","","","","246.69999980926514","","","","Images/NewTrialBC.png","","3"
"image-button-response","411","288652","0.0-13.0-1.117","73","Low_HMMActual","","","","","","null","","","","Images/WhiteBeadChoice.png","","null"
"image-button-response","412","289156","0.0-13.0-2.117","73","Low_HMMActual","","","","","","null","","","","Images/WhiteBeadChoiceCorrect.png","","null"
"image-button-response","413","289395","0.0-13.0-0.118","73","Low_HMMActual","","","","","","232.2000002861023","","","","Images/NewTrialWC.png","","2"
"image-button-response","414","289700","0.0-13.0-1.118","73","Low_HMMActual","","","","","","null","","","","Images/WhiteBeadChoice.png","","null"
"image-button-response","415","290203","0.0-13.0-2.118","73","Low_HMMActual","","","","","","null","","","","Images/WhiteBeadChoiceWrong.png","","null"
"image-button-response","416","290655","0.0-13.0-0.119","73","Low_HMMActual","","","","","","448.2999997138977","","","","Images/NewTrialBC.png","","3"
"image-button-response","417","290965","0.0-13.0-1.119","73","Low_HMMActual","","","","","","null","","","","Images/WhiteBeadChoice.png","","null"
"image-button-response","418","291475","0.0-13.0-2.119","73","Low_HMMActual","","","","","","null","","","","Images/WhiteBeadChoiceWrong.png","","null"
"image-button-response","419","292167","0.0-13.0-0.120","73","Low_HMMActual","","","","","","690.3000001907349","","","","Images/NewTrialBC.png","","1"
"image-button-response","420","292468","0.0-13.0-1.120","73","Low_HMMActual","","","","","","null","","","","Images/BlackBeadChoice.png","","null"
"image-button-response","421","292973","0.0-13.0-2.120","73","Low_HMMActual","","","","","","null","","","","Images/BlackBeadChoiceCorrect.png","","null"
"image-button-response","422","293166","0.0-13.0-0.121","73","Low_HMMActual","","","","","","190.69999980926514","","","","Images/NewTrialBC.png","","0"
"image-button-response","423","293474","0.0-13.0-1.121","73","Low_HMMActual","","","","","","null","","","","Images/BlackBeadChoice.png","","null"
"image-button-response","424","293991","0.0-13.0-2.121","73","Low_HMMActual","","","","","","null","","","","Images/BlackBeadChoiceCorrect.png","","null"
"image-button-response","425","295531","0.0-13.0-0.122","73","Low_HMMActual","","","","","","1537.0999999046326","","","","Images/NewTrialBC.png","","0"
"image-button-response","426","295839","0.0-13.0-1.122","73","Low_HMMActual","","","","","","null","","","","Images/BlackBeadChoice.png","","null"
"image-button-response","427","296354","0.0-13.0-2.122","73","Low_HMMActual","","","","","","null","","","","Images/BlackBeadChoiceCorrect.png","","null"
"image-button-response","428","296458","0.0-13.0-0.123","73","Low_HMMActual","","","","","","100.59999990463257","","","","Images/NewTrialBC.png","","0"
"image-button-response","429","296770","0.0-13.0-1.123","73","Low_HMMActual","","","","","","null","","","","Images/BlackBeadChoice.png","","null"
"image-button-response","430","297286","0.0-13.0-2.123","73","Low_HMMActual","","","","","","null","","","","Images/BlackBeadChoiceWrong.png","","null"
"image-button-response","431","298473","0.0-13.0-0.124","73","Low_HMMActual","","","","","","1184.2000002861023","","","","Images/NewTrialWC.png","","1"
"image-button-response","432","298775","0.0-13.0-1.124","73","Low_HMMActual","","","","","","null","","","","Images/BlackBeadChoice.png","","null"
"image-button-response","433","299281","0.0-13.0-2.124","73","Low_HMMActual","","","","","","null","","","","Images/BlackBeadChoiceCorrect.png","","null"
"image-button-response","434","299664","0.0-13.0-0.125","73","Low_HMMActual","","","","","","377.59999990463257","","","","Images/NewTrialBC.png","","0"
"image-button-response","435","299985","0.0-13.0-1.125","73","Low_HMMActual","","","","","","null","","","","Images/BlackBeadChoice.png","","null"
"image-button-response","436","300506","0.0-13.0-2.125","73","Low_HMMActual","","","","","","null","","","","Images/BlackBeadChoiceCorrect.png","","null"
"image-button-response","437","301375","0.0-13.0-0.126","73","Low_HMMActual","","","","","","865.3000001907349","","","","Images/NewTrialBC.png","","0"
"image-button-response","438","301692","0.0-13.0-1.126","73","Low_HMMActual","","","","","","null","","","","Images/BlackBeadChoice.png","","null"
"image-button-response","439","302206","0.0-13.0-2.126","73","Low_HMMActual","","","","","","null","","","","Images/BlackBeadChoiceWrong.png","","null"
"image-button-response","440","302823","0.0-13.0-0.127","73","Low_HMMActual","","","","","","601.4000000953674","","","","Images/NewTrialWC.png","","1"
"image-button-response","441","303139","0.0-13.0-1.127","73","Low_HMMActual","","","","","","null","","","","Images/BlackBeadChoice.png","","null"
"image-button-response","442","303641","0.0-13.0-2.127","73","Low_HMMActual","","","","","","null","","","","Images/BlackBeadChoiceCorrect.png","","null"
"image-button-response","443","304174","0.0-13.0-0.128","73","Low_HMMActual","","","","","","524.0999999046326","","","","Images/NewTrialBC.png","","1"
"image-button-response","444","304486","0.0-13.0-1.128","73","Low_HMMActual","","","","","","null","","","","Images/BlackBeadChoice.png","","null"
"image-button-response","445","304997","0.0-13.0-2.128","73","Low_HMMActual","","","","","","null","","","","Images/BlackBeadChoiceWrong.png","","null"
"image-button-response","446","305400","0.0-13.0-0.129","73","Low_HMMActual","","","","","","401.19999980926514","","","","Images/NewTrialWC.png","","3"
"image-button-response","447","305709","0.0-13.0-1.129","73","Low_HMMActual","","","","","","null","","","","Images/WhiteBeadChoice.png","","null"
"image-button-response","448","306224","0.0-13.0-2.129","73","Low_HMMActual","","","","","","null","","","","Images/WhiteBeadChoiceCorrect.png","","null"
"image-button-response","449","307182","0.0-13.0-0.130","73","Low_HMMActual","","","","","","937.3000001907349","","","","Images/NewTrialWC.png","","2"
"image-button-response","450","307485","0.0-13.0-1.130","73","Low_HMMActual","","","","","","null","","","","Images/WhiteBeadChoice.png","","null"
"image-button-response","451","307996","0.0-13.0-2.130","73","Low_HMMActual","","","","","","null","","","","Images/WhiteBeadChoiceCorrect.png","","null"
"image-button-response","452","308143","0.0-13.0-0.131","73","Low_HMMActual","","","","","","144.30000019073486","","","","Images/NewTrialWC.png","","2"
"image-button-response","453","308447","0.0-13.0-1.131","73","Low_HMMActual","","","","","","null","","","","Images/WhiteBeadChoice.png","","null"
"image-button-response","454","308963","0.0-13.0-2.131","73","Low_HMMActual","","","","","","null","","","","Images/WhiteBeadChoiceWrong.png","","null"
"image-button-response","455","309619","0.0-13.0-0.132","73","Low_HMMActual","","","","","","643.5","","","","Images/NewTrialBC.png","","3"
"image-button-response","456","309934","0.0-13.0-1.132","73","Low_HMMActual","","","","","","null","","","","Images/WhiteBeadChoice.png","","null"
"image-button-response","457","310446","0.0-13.0-2.132","73","Low_HMMActual","","","","","","null","","","","Images/WhiteBeadChoiceWrong.png","","null"
"image-button-response","458","310904","0.0-13.0-0.133","73","Low_HMMActual","","","","","","454.90000009536743","","","","Images/NewTrialBC.png","","1"
"image-button-response","459","311214","0.0-13.0-1.133","73","Low_HMMActual","","","","","","null","","","","Images/BlackBeadChoice.png","","null"
"image-button-response","460","311727","0.0-13.0-2.133","73","Low_HMMActual","","","","","","null","","","","Images/BlackBeadChoiceWrong.png","","null"
"image-button-response","461","312667","0.0-13.0-0.134","73","Low_HMMActual","","","","","","938","","","","Images/NewTrialWC.png","","3"
"image-button-response","462","312975","0.0-13.0-1.134","73","Low_HMMActual","","","","","","null","","","","Images/WhiteBeadChoice.png","","null"
"image-button-response","463","313478","0.0-13.0-2.134","73","Low_HMMActual","","","","","","null","","","","Images/WhiteBeadChoiceWrong.png","","null"
"image-button-response","464","314039","0.0-13.0-0.135","73","Low_HMMActual","","","","","","557.9000000953674","","","","Images/NewTrialBC.png","","1"
"image-button-response","465","314344","0.0-13.0-1.135","73","Low_HMMActual","","","","","","null","","","","Images/BlackBeadChoice.png","","null"
"image-button-response","466","314859","0.0-13.0-2.135","73","Low_HMMActual","","","","","","null","","","","Images/BlackBeadChoiceCorrect.png","","null"
"image-button-response","467","315133","0.0-13.0-0.136","73","Low_HMMActual","","","","","","271.40000009536743","","","","Images/NewTrialBC.png","","1"
"image-button-response","468","315450","0.0-13.0-1.136","73","Low_HMMActual","","","","","","null","","","","Images/BlackBeadChoice.png","","null"
"image-button-response","469","315954","0.0-13.0-2.136","73","Low_HMMActual","","","","","","null","","","","Images/BlackBeadChoiceWrong.png","","null"
"image-button-response","470","316534","0.0-13.0-0.137","73","Low_HMMActual","","","","","","578.3000001907349","","","","Images/NewTrialWC.png","","3"
"image-button-response","471","316852","0.0-13.0-1.137","73","Low_HMMActual","","","","","","null","","","","Images/WhiteBeadChoice.png","","null"
"image-button-response","472","317355","0.0-13.0-2.137","73","Low_HMMActual","","","","","","null","","","","Images/WhiteBeadChoiceWrong.png","","null"
"image-button-response","473","318012","0.0-13.0-0.138","73","Low_HMMActual","","","","","","653.9000000953674","","","","Images/NewTrialBC.png","","3"
"image-button-response","474","318317","0.0-13.0-1.138","73","Low_HMMActual","","","","","","null","","","","Images/WhiteBeadChoice.png","","null"
"image-button-response","475","318836","0.0-13.0-2.138","73","Low_HMMActual","","","","","","null","","","","Images/WhiteBeadChoiceCorrect.png","","null"
"image-button-response","476","319191","0.0-13.0-0.139","73","Low_HMMActual","","","","","","350.2000002861023","","","","Images/NewTrialWC.png","","2"
"image-button-response","477","319505","0.0-13.0-1.139","73","Low_HMMActual","","","","","","null","","","","Images/WhiteBeadChoice.png","","null"
"image-button-response","478","320008","0.0-13.0-2.139","73","Low_HMMActual","","","","","","null","","","","Images/WhiteBeadChoiceWrong.png","","null"
"image-button-response","479","320215","0.0-13.0-0.140","73","Low_HMMActual","","","","","","203.5","","","","Images/NewTrialBC.png","","2"
"image-button-response","480","320517","0.0-13.0-1.140","73","Low_HMMActual","","","","","","null","","","","Images/WhiteBeadChoice.png","","null"
"image-button-response","481","321022","0.0-13.0-2.140","73","Low_HMMActual","","","","","","null","","","","Images/WhiteBeadChoiceWrong.png","","null"
"image-button-response","482","321812","0.0-13.0-0.141","73","Low_HMMActual","","","","","","787.6999998092651","","","","Images/NewTrialBC.png","","1"
"image-button-response","483","322125","0.0-13.0-1.141","73","Low_HMMActual","","","","","","null","","","","Images/BlackBeadChoice.png","","null"
"image-button-response","484","322628","0.0-13.0-2.141","73","Low_HMMActual","","","","","","null","","","","Images/BlackBeadChoiceCorrect.png","","null"
"image-button-response","485","324237","0.0-13.0-0.142","73","Low_HMMActual","","","","","","1605.5","","","","Images/NewTrialBC.png","","1"
"image-button-response","486","324539","0.0-13.0-1.142","73","Low_HMMActual","","","","","","null","","","","Images/BlackBeadChoice.png","","null"
"image-button-response","487","325058","0.0-13.0-2.142","73","Low_HMMActual","","","","","","null","","","","Images/BlackBeadChoiceCorrect.png","","null"
"image-button-response","488","328150","0.0-13.0-0.143","73","Low_HMMActual","","","","","","3090.0999999046326","","","","Images/NewTrialBC.png","","1"
"image-button-response","489","328466","0.0-13.0-1.143","73","Low_HMMActual","","","","","","null","","","","Images/BlackBeadChoice.png","","null"
"image-button-response","490","328981","0.0-13.0-2.143","73","Low_HMMActual","","","","","","null","","","","Images/BlackBeadChoiceCorrect.png","","null"
"image-button-response","491","330073","0.0-13.0-0.144","73","Low_HMMActual","","","","","","1087.5","","","","Images/NewTrialBC.png","","1"
"image-button-response","492","330380","0.0-13.0-1.144","73","Low_HMMActual","","","","","","null","","","","Images/BlackBeadChoice.png","","null"
"image-button-response","493","330893","0.0-13.0-2.144","73","Low_HMMActual","","","","","","null","","","","Images/BlackBeadChoiceWrong.png","","null"
"image-button-response","494","332475","0.0-13.0-0.145","73","Low_HMMActual","","","","","","1579.5999999046326","","","","Images/NewTrialWC.png","","1"
"image-button-response","495","332777","0.0-13.0-1.145","73","Low_HMMActual","","","","","","null","","","","Images/BlackBeadChoice.png","","null"
"image-button-response","496","333295","0.0-13.0-2.145","73","Low_HMMActual","","","","","","null","","","","Images/BlackBeadChoiceCorrect.png","","null"
"image-button-response","497","333462","0.0-13.0-0.146","73","Low_HMMActual","","","","","","165.19999980926514","","","","Images/NewTrialBC.png","","1"
"image-button-response","498","333778","0.0-13.0-1.146","73","Low_HMMActual","","","","","","null","","","","Images/BlackBeadChoice.png","","null"
"image-button-response","499","334293","0.0-13.0-2.146","73","Low_HMMActual","","","","","","null","","","","Images/BlackBeadChoiceCorrect.png","","null"
"image-button-response","500","334510","0.0-13.0-0.147","73","Low_HMMActual","","","","","","214.69999980926514","","","","Images/NewTrialBC.png","","0"
"image-button-response","501","334825","0.0-13.0-1.147","73","Low_HMMActual","","","","","","null","","","","Images/BlackBeadChoice.png","","null"
"image-button-response","502","335338","0.0-13.0-2.147","73","Low_HMMActual","","","","","","null","","","","Images/BlackBeadChoiceWrong.png","","null"
"image-button-response","503","335736","0.0-13.0-0.148","73","Low_HMMActual","","","","","","395.30000019073486","","","","Images/NewTrialWC.png","","1"
"image-button-response","504","336042","0.0-13.0-1.148","73","Low_HMMActual","","","","","","null","","","","Images/BlackBeadChoice.png","","null"
"image-button-response","505","336558","0.0-13.0-2.148","73","Low_HMMActual","","","","","","null","","","","Images/BlackBeadChoiceCorrect.png","","null"
"image-button-response","506","336661","0.0-13.0-0.149","73","Low_HMMActual","","","","","","99.80000019073486","","","","Images/NewTrialBC.png","","1"
"image-button-response","507","336964","0.0-13.0-1.149","73","Low_HMMActual","","","","","","null","","","","Images/BlackBeadChoice.png","","null"
"image-button-response","508","337482","0.0-13.0-2.149","73","Low_HMMActual","","","","","","null","","","","Images/BlackBeadChoiceWrong.png","","null"
"image-button-response","509","337960","0.0-13.0-0.150","73","Low_HMMActual","","","","","","471.90000009536743","","","","Images/NewTrialWC.png","","1"
"image-button-response","510","338266","0.0-13.0-1.150","73","Low_HMMActual","","","","","","null","","","","Images/BlackBeadChoice.png","","null"
"image-button-response","511","338768","0.0-13.0-2.150","73","Low_HMMActual","","","","","","null","","","","Images/BlackBeadChoiceCorrect.png","","null"
"image-button-response","512","339237","0.0-13.0-0.151","73","Low_HMMActual","","","","","","465.59999990463257","","","","Images/NewTrialBC.png","","1"
"image-button-response","513","339546","0.0-13.0-1.151","73","Low_HMMActual","","","","","","null","","","","Images/BlackBeadChoice.png","","null"
"image-button-response","514","340049","0.0-13.0-2.151","73","Low_HMMActual","","","","","","null","","","","Images/BlackBeadChoiceWrong.png","","null"
"image-button-response","515","340427","0.0-13.0-0.152","73","Low_HMMActual","","","","","","374.90000009536743","","","","Images/NewTrialWC.png","","3"
"image-button-response","516","340733","0.0-13.0-1.152","73","Low_HMMActual","","","","","","null","","","","Images/WhiteBeadChoice.png","","null"
"image-button-response","517","341251","0.0-13.0-2.152","73","Low_HMMActual","","","","","","null","","","","Images/WhiteBeadChoiceWrong.png","","null"
"image-button-response","518","341437","0.0-13.0-0.153","73","Low_HMMActual","","","","","","182.39999961853027","","","","Images/NewTrialBC.png","","3"
"image-button-response","519","341752","0.0-13.0-1.153","73","Low_HMMActual","","","","","","null","","","","Images/WhiteBeadChoice.png","","null"
"image-button-response","520","342255","0.0-13.0-2.153","73","Low_HMMActual","","","","","","null","","","","Images/WhiteBeadChoiceCorrect.png","","null"
"image-button-response","521","342449","0.0-13.0-0.154","73","Low_HMMActual","","","","","","190.5","","","","Images/NewTrialWC.png","","2"
"image-button-response","522","342756","0.0-13.0-1.154","73","Low_HMMActual","","","","","","null","","","","Images/WhiteBeadChoice.png","","null"
"image-button-response","523","343270","0.0-13.0-2.154","73","Low_HMMActual","","","","","","null","","","","Images/WhiteBeadChoiceCorrect.png","","null"
"image-button-response","524","343855","0.0-13.0-0.155","73","Low_HMMActual","","","","","","583.5999999046326","","","","Images/NewTrialWC.png","","2"
"image-button-response","525","344173","0.0-13.0-1.155","73","Low_HMMActual","","","","","","null","","","","Images/WhiteBeadChoice.png","","null"
"image-button-response","526","344687","0.0-13.0-2.155","73","Low_HMMActual","","","","","","null","","","","Images/WhiteBeadChoiceCorrect.png","","null"
"image-button-response","527","345297","0.0-13.0-0.156","73","Low_HMMActual","","","","","","606.8999996185303","","","","Images/NewTrialWC.png","","2"
"image-button-response","528","345607","0.0-13.0-1.156","73","Low_HMMActual","","","","","","null","","","","Images/WhiteBeadChoice.png","","null"
"image-button-response","529","346121","0.0-13.0-2.156","73","Low_HMMActual","","","","","","null","","","","Images/WhiteBeadChoiceWrong.png","","null"
"image-button-response","530","346759","0.0-13.0-0.157","73","Low_HMMActual","","","","","","635.4000000953674","","","","Images/NewTrialBC.png","","3"
"image-button-response","531","347074","0.0-13.0-1.157","73","Low_HMMActual","","","","","","null","","","","Images/WhiteBeadChoice.png","","null"
"image-button-response","532","347577","0.0-13.0-2.157","73","Low_HMMActual","","","","","","null","","","","Images/WhiteBeadChoiceWrong.png","","null"
"image-button-response","533","348034","0.0-13.0-0.158","73","Low_HMMActual","","","","","","454.09999990463257","","","","Images/NewTrialBC.png","","1"
"image-button-response","534","348336","0.0-13.0-1.158","73","Low_HMMActual","","","","","","null","","","","Images/BlackBeadChoice.png","","null"
"image-button-response","535","348850","0.0-13.0-2.158","73","Low_HMMActual","","","","","","null","","","","Images/BlackBeadChoiceWrong.png","","null"
"image-button-response","536","357978","0.0-13.0-0.159","73","Low_HMMActual","","","","","","9124.5","","","","Images/NewTrialWC.png","","3"
"image-button-response","537","358287","0.0-13.0-1.159","73","Low_HMMActual","","","","","","null","","","","Images/WhiteBeadChoice.png","","null"
"image-button-response","538","358800","0.0-13.0-2.159","73","Low_HMMActual","","","","","","null","","","","Images/WhiteBeadChoiceWrong.png","","null"
"image-button-response","539","359049","0.0-13.0-0.160","73","Low_HMMActual","","","","","","245.59999990463257","","","","Images/NewTrialBC.png","","1"
"image-button-response","540","359367","0.0-13.0-1.160","73","Low_HMMActual","","","","","","null","","","","Images/BlackBeadChoice.png","","null"
"image-button-response","541","359884","0.0-13.0-2.160","73","Low_HMMActual","","","","","","null","","","","Images/BlackBeadChoiceWrong.png","","null"
"image-button-response","542","360335","0.0-13.0-0.161","73","Low_HMMActual","","","","","","446","","","","Images/NewTrialWC.png","","3"
"image-button-response","543","360637","0.0-13.0-1.161","73","Low_HMMActual","","","","","","null","","","","Images/WhiteBeadChoice.png","","null"
"image-button-response","544","361149","0.0-13.0-2.161","73","Low_HMMActual","","","","","","null","","","","Images/WhiteBeadChoiceWrong.png","","null"
"image-button-response","545","361635","0.0-13.0-0.162","73","Low_HMMActual","","","","","","482.59999990463257","","","","Images/NewTrialBC.png","","1"
"image-button-response","546","361936","0.0-13.0-1.162","73","Low_HMMActual","","","","","","null","","","","Images/BlackBeadChoice.png","","null"
"image-button-response","547","362439","0.0-13.0-2.162","73","Low_HMMActual","","","","","","null","","","","Images/BlackBeadChoiceWrong.png","","null"
"image-button-response","548","362986","0.0-13.0-0.163","73","Low_HMMActual","","","","","","543.6999998092651","","","","Images/NewTrialWC.png","","1"
"image-button-response","549","363289","0.0-13.0-1.163","73","Low_HMMActual","","","","","","null","","","","Images/BlackBeadChoice.png","","null"
"image-button-response","550","363795","0.0-13.0-2.163","73","Low_HMMActual","","","","","","null","","","","Images/BlackBeadChoiceCorrect.png","","null"
"image-button-response","551","364485","0.0-13.0-0.164","73","Low_HMMActual","","","","","","683.5999999046326","","","","Images/NewTrialBC.png","","1"
"image-button-response","552","364791","0.0-13.0-1.164","73","Low_HMMActual","","","","","","null","","","","Images/BlackBeadChoice.png","","null"
"image-button-response","553","365295","0.0-13.0-2.164","73","Low_HMMActual","","","","","","null","","","","Images/BlackBeadChoiceCorrect.png","","null"
"image-button-response","554","365790","0.0-13.0-0.165","73","Low_HMMActual","","","","","","492.80000019073486","","","","Images/NewTrialBC.png","","0"
"image-button-response","555","366103","0.0-13.0-1.165","73","Low_HMMActual","","","","","","null","","","","Images/BlackBeadChoice.png","","null"
"image-button-response","556","366609","0.0-13.0-2.165","73","Low_HMMActual","","","","","","null","","","","Images/BlackBeadChoiceWrong.png","","null"
"image-button-response","557","367233","0.0-13.0-0.166","73","Low_HMMActual","","","","","","619.5","","","","Images/NewTrialWC.png","","2"
"image-button-response","558","367537","0.0-13.0-1.166","73","Low_HMMActual","","","","","","null","","","","Images/WhiteBeadChoice.png","","null"
"image-button-response","559","368041","0.0-13.0-2.166","73","Low_HMMActual","","","","","","null","","","","Images/WhiteBeadChoiceCorrect.png","","null"
"image-button-response","560","368278","0.0-13.0-0.167","73","Low_HMMActual","","","","","","232.80000019073486","","","","Images/NewTrialWC.png","","2"
"image-button-response","561","368580","0.0-13.0-1.167","73","Low_HMMActual","","","","","","null","","","","Images/WhiteBeadChoice.png","","null"
"image-button-response","562","369083","0.0-13.0-2.167","73","Low_HMMActual","","","","","","null","","","","Images/WhiteBeadChoiceWrong.png","","null"
"image-button-response","563","369516","0.0-13.0-0.168","73","Low_HMMActual","","","","","","431.8999996185303","","","","Images/NewTrialBC.png","","1"
"image-button-response","564","369820","0.0-13.0-1.168","73","Low_HMMActual","","","","","","null","","","","Images/BlackBeadChoice.png","","null"
"image-button-response","565","370327","0.0-13.0-2.168","73","Low_HMMActual","","","","","","null","","","","Images/BlackBeadChoiceWrong.png","","null"
"image-button-response","566","371734","0.0-13.0-0.169","73","Low_HMMActual","","","","","","1405.5","","","","Images/NewTrialWC.png","","1"
"image-button-response","567","372042","0.0-13.0-1.169","73","Low_HMMActual","","","","","","null","","","","Images/BlackBeadChoice.png","","null"
"image-button-response","568","372544","0.0-13.0-2.169","73","Low_HMMActual","","","","","","null","","","","Images/BlackBeadChoiceWrong.png","","null"
"image-button-response","569","373010","0.0-13.0-0.170","73","Low_HMMActual","","","","","","464.69999980926514","","","","Images/NewTrialWC.png","","3"
"image-button-response","570","373327","0.0-13.0-1.170","73","Low_HMMActual","","","","","","null","","","","Images/WhiteBeadChoice.png","","null"
"image-button-response","571","373842","0.0-13.0-2.170","73","Low_HMMActual","","","","","","null","","","","Images/WhiteBeadChoiceCorrect.png","","null"
"image-button-response","572","374648","0.0-13.0-0.171","73","Low_HMMActual","","","","","","802.3000001907349","","","","Images/NewTrialWC.png","","2"
"image-button-response","573","374956","0.0-13.0-1.171","73","Low_HMMActual","","","","","","null","","","","Images/WhiteBeadChoice.png","","null"
"image-button-response","574","375457","0.0-13.0-2.171","73","Low_HMMActual","","","","","","null","","","","Images/WhiteBeadChoiceWrong.png","","null"
"image-button-response","575","375803","0.0-13.0-0.172","73","Low_HMMActual","","","","","","343.40000009536743","","","","Images/NewTrialBC.png","","3"
"image-button-response","576","376121","0.0-13.0-1.172","73","Low_HMMActual","","","","","","null","","","","Images/WhiteBeadChoice.png","","null"
"image-button-response","577","376635","0.0-13.0-2.172","73","Low_HMMActual","","","","","","null","","","","Images/WhiteBeadChoiceCorrect.png","","null"
"image-button-response","578","377090","0.0-13.0-0.173","73","Low_HMMActual","","","","","","452.80000019073486","","","","Images/NewTrialWC.png","","3"
"image-button-response","579","377396","0.0-13.0-1.173","73","Low_HMMActual","","","","","","null","","","","Images/WhiteBeadChoice.png","","null"
"image-button-response","580","377910","0.0-13.0-2.173","73","Low_HMMActual","","","","","","null","","","","Images/WhiteBeadChoiceCorrect.png","","null"
"image-button-response","581","378171","0.0-13.0-0.174","73","Low_HMMActual","","","","","","257.09999990463257","","","","Images/NewTrialWC.png","","3"
"image-button-response","582","378487","0.0-13.0-1.174","73","Low_HMMActual","","","","","","null","","","","Images/WhiteBeadChoice.png","","null"
"image-button-response","583","379005","0.0-13.0-2.174","73","Low_HMMActual","","","","","","null","","","","Images/WhiteBeadChoiceCorrect.png","","null"
"image-button-response","584","379182","0.0-13.0-0.175","73","Low_HMMActual","","","","","","174.19999980926514","","","","Images/NewTrialWC.png","","3"
"image-button-response","585","379485","0.0-13.0-1.175","73","Low_HMMActual","","","","","","null","","","","Images/WhiteBeadChoice.png","","null"
"image-button-response","586","380000","0.0-13.0-2.175","73","Low_HMMActual","","","","","","null","","","","Images/WhiteBeadChoiceWrong.png","","null"
"image-button-response","587","380755","0.0-13.0-0.176","73","Low_HMMActual","","","","","","753.7000002861023","","","","Images/NewTrialBC.png","","1"
"image-button-response","588","381062","0.0-13.0-1.176","73","Low_HMMActual","","","","","","null","","","","Images/BlackBeadChoice.png","","null"
"image-button-response","589","381572","0.0-13.0-2.176","73","Low_HMMActual","","","","","","null","","","","Images/BlackBeadChoiceWrong.png","","null"
"image-button-response","590","383347","0.0-13.0-0.177","73","Low_HMMActual","","","","","","1770.7999997138977","","","","Images/NewTrialWC.png","","1"
"image-button-response","591","383654","0.0-13.0-1.177","73","Low_HMMActual","","","","","","null","","","","Images/BlackBeadChoice.png","","null"
"image-button-response","592","384158","0.0-13.0-2.177","73","Low_HMMActual","","","","","","null","","","","Images/BlackBeadChoiceCorrect.png","","null"
"image-button-response","593","384454","0.0-13.0-0.178","73","Low_HMMActual","","","","","","292.2999997138977","","","","Images/NewTrialBC.png","","0"
"image-button-response","594","384763","0.0-13.0-1.178","73","Low_HMMActual","","","","","","null","","","","Images/BlackBeadChoice.png","","null"
"image-button-response","595","385267","0.0-13.0-2.178","73","Low_HMMActual","","","","","","null","","","","Images/BlackBeadChoiceWrong.png","","null"
"image-button-response","596","385512","0.0-13.0-0.179","73","Low_HMMActual","","","","","","242.90000009536743","","","","Images/NewTrialWC.png","","1"
"image-button-response","597","385827","0.0-13.0-1.179","73","Low_HMMActual","","","","","","null","","","","Images/BlackBeadChoice.png","","null"
"image-button-response","598","386334","0.0-13.0-2.179","73","Low_HMMActual","","","","","","null","","","","Images/BlackBeadChoiceWrong.png","","null"
"image-button-response","599","386763","0.0-13.0-0.180","73","Low_HMMActual","","","","","","424.5","","","","Images/NewTrialWC.png","","3"
"image-button-response","600","387079","0.0-13.0-1.180","73","Low_HMMActual","","","","","","null","","","","Images/WhiteBeadChoice.png","","null"
"image-button-response","601","387591","0.0-13.0-2.180","73","Low_HMMActual","","","","","","null","","","","Images/WhiteBeadChoiceCorrect.png","","null"
"image-button-response","602","387871","0.0-13.0-0.181","73","Low_HMMActual","","","","","","273.69999980926514","","","","Images/NewTrialWC.png","","3"
"image-button-response","603","388182","0.0-13.0-1.181","73","Low_HMMActual","","","","","","null","","","","Images/WhiteBeadChoice.png","","null"
"image-button-response","604","388698","0.0-13.0-2.181","73","Low_HMMActual","","","","","","null","","","","Images/WhiteBeadChoiceWrong.png","","null"
"image-button-response","605","389012","0.0-13.0-0.182","73","Low_HMMActual","","","","","","303.80000019073486","","","","Images/NewTrialBC.png","","3"
"image-button-response","606","389326","0.0-13.0-1.182","73","Low_HMMActual","","","","","","null","","","","Images/WhiteBeadChoice.png","","null"
"image-button-response","607","389828","0.0-13.0-2.182","73","Low_HMMActual","","","","","","null","","","","Images/WhiteBeadChoiceWrong.png","","null"
"image-button-response","608","390252","0.0-13.0-0.183","73","Low_HMMActual","","","","","","421.30000019073486","","","","Images/NewTrialBC.png","","1"
"image-button-response","609","390558","0.0-13.0-1.183","73","Low_HMMActual","","","","","","null","","","","Images/BlackBeadChoice.png","","null"
"image-button-response","610","391073","0.0-13.0-2.183","73","Low_HMMActual","","","","","","null","","","","Images/BlackBeadChoiceCorrect.png","","null"
"image-button-response","611","391250","0.0-13.0-0.184","73","Low_HMMActual","","","","","","172.09999990463257","","","","Images/NewTrialBC.png","","1"
"image-button-response","612","391558","0.0-13.0-1.184","73","Low_HMMActual","","","","","","null","","","","Images/BlackBeadChoice.png","","null"
"image-button-response","613","392072","0.0-13.0-2.184","73","Low_HMMActual","","","","","","null","","","","Images/BlackBeadChoiceCorrect.png","","null"
"image-button-response","614","393001","0.0-13.0-0.185","73","Low_HMMActual","","","","","","924.6999998092651","","","","Images/NewTrialBC.png","","1"
"image-button-response","615","393321","0.0-13.0-1.185","73","Low_HMMActual","","","","","","null","","","","Images/BlackBeadChoice.png","","null"
"image-button-response","616","393823","0.0-13.0-2.185","73","Low_HMMActual","","","","","","null","","","","Images/BlackBeadChoiceCorrect.png","","null"
"image-button-response","617","394115","0.0-13.0-0.186","73","Low_HMMActual","","","","","","288.40000009536743","","","","Images/NewTrialBC.png","","0"
"image-button-response","618","394428","0.0-13.0-1.186","73","Low_HMMActual","","","","","","null","","","","Images/BlackBeadChoice.png","","null"
"image-button-response","619","394938","0.0-13.0-2.186","73","Low_HMMActual","","","","","","null","","","","Images/BlackBeadChoiceWrong.png","","null"
"image-button-response","620","395851","0.0-13.0-0.187","73","Low_HMMActual","","","","","","909.7999997138977","","","","Images/NewTrialWC.png","","3"
"image-button-response","621","396163","0.0-13.0-1.187","73","Low_HMMActual","","","","","","null","","","","Images/WhiteBeadChoice.png","","null"
"image-button-response","622","396674","0.0-13.0-2.187","73","Low_HMMActual","","","","","","null","","","","Images/WhiteBeadChoiceCorrect.png","","null"
"image-button-response","623","397173","0.0-13.0-0.188","73","Low_HMMActual","","","","","","494.7000002861023","","","","Images/NewTrialWC.png","","2"
"image-button-response","624","397489","0.0-13.0-1.188","73","Low_HMMActual","","","","","","null","","","","Images/WhiteBeadChoice.png","","null"
"image-button-response","625","397992","0.0-13.0-2.188","73","Low_HMMActual","","","","","","null","","","","Images/WhiteBeadChoiceWrong.png","","null"
"image-button-response","626","398585","0.0-13.0-0.189","73","Low_HMMActual","","","","","","589.4000000953674","","","","Images/NewTrialBC.png","","1"
"image-button-response","627","398897","0.0-13.0-1.189","73","Low_HMMActual","","","","","","null","","","","Images/BlackBeadChoice.png","","null"
"image-button-response","628","399401","0.0-13.0-2.189","73","Low_HMMActual","","","","","","null","","","","Images/BlackBeadChoiceWrong.png","","null"
"image-button-response","629","399836","0.0-13.0-0.190","73","Low_HMMActual","","","","","","431.2000002861023","","","","Images/NewTrialWC.png","","2"
"image-button-response","630","400151","0.0-13.0-1.190","73","Low_HMMActual","","","","","","null","","","","Images/WhiteBeadChoice.png","","null"
"image-button-response","631","400655","0.0-13.0-2.190","73","Low_HMMActual","","","","","","null","","","","Images/WhiteBeadChoiceWrong.png","","null"
"image-button-response","632","400896","0.0-13.0-0.191","73","Low_HMMActual","","","","","","238.59999990463257","","","","Images/NewTrialBC.png","","3"
"image-button-response","633","401209","0.0-13.0-1.191","73","Low_HMMActual","","","","","","null","","","","Images/WhiteBeadChoice.png","","null"
"image-button-response","634","401725","0.0-13.0-2.191","73","Low_HMMActual","","","","","","null","","","","Images/WhiteBeadChoiceCorrect.png","","null"
"image-button-response","635","401880","0.0-13.0-0.192","73","Low_HMMActual","","","","","","148.5","","","","Images/NewTrialWC.png","","3"
"image-button-response","636","402190","0.0-13.0-1.192","73","Low_HMMActual","","","","","","null","","","","Images/WhiteBeadChoice.png","","null"
"image-button-response","637","402696","0.0-13.0-2.192","73","Low_HMMActual","","","","","","null","","","","Images/WhiteBeadChoiceWrong.png","","null"
"image-button-response","638","403146","0.0-13.0-0.193","73","Low_HMMActual","","","","","","444.7000002861023","","","","Images/NewTrialBC.png","","3"
"image-button-response","639","403452","0.0-13.0-1.193","73","Low_HMMActual","","","","","","null","","","","Images/WhiteBeadChoice.png","","null"
"image-button-response","640","403956","0.0-13.0-2.193","73","Low_HMMActual","","","","","","null","","","","Images/WhiteBeadChoiceWrong.png","","null"
"image-button-response","641","404730","0.0-13.0-0.194","73","Low_HMMActual","","","","","","762.6999998092651","","","","Images/NewTrialBC.png","","1"
"image-button-response","642","405032","0.0-13.0-1.194","73","Low_HMMActual","","","","","","null","","","","Images/BlackBeadChoice.png","","null"
"image-button-response","643","405534","0.0-13.0-2.194","73","Low_HMMActual","","","","","","null","","","","Images/BlackBeadChoiceCorrect.png","","null"
"image-button-response","644","405716","0.0-13.0-0.195","73","Low_HMMActual","","","","","","180.30000019073486","","","","Images/NewTrialBC.png","","1"
"image-button-response","645","406029","0.0-13.0-1.195","73","Low_HMMActual","","","","","","null","","","","Images/BlackBeadChoice.png","","null"
"image-button-response","646","406544","0.0-13.0-2.195","73","Low_HMMActual","","","","","","null","","","","Images/BlackBeadChoiceCorrect.png","","null"
"image-button-response","647","406693","0.0-13.0-0.196","73","Low_HMMActual","","","","","","145.59999990463257","","","","Images/NewTrialBC.png","","1"
"image-button-response","648","407010","0.0-13.0-1.196","73","Low_HMMActual","","","","","","null","","","","Images/BlackBeadChoice.png","","null"
"image-button-response","649","407525","0.0-13.0-2.196","73","Low_HMMActual","","","","","","460.2000002861023","","","","Images/BlackBeadChoiceCorrect.png","","1"
"image-button-response","650","408110","0.0-13.0-0.197","73","Low_HMMActual","","","","","","582.5999999046326","","","","Images/NewTrialBC.png","","1"
"image-button-response","651","408420","0.0-13.0-1.197","73","Low_HMMActual","","","","","","null","","","","Images/BlackBeadChoice.png","","null"
"image-button-response","652","408935","0.0-13.0-2.197","73","Low_HMMActual","","","","","","null","","","","Images/BlackBeadChoiceWrong.png","","null"
"image-button-response","653","409596","0.0-13.0-0.198","73","Low_HMMActual","","","","","","659.5","","","","Images/NewTrialWC.png","","2"
"image-button-response","654","409902","0.0-13.0-1.198","73","Low_HMMActual","","","","","","null","","","","Images/WhiteBeadChoice.png","","null"
"image-button-response","655","410417","0.0-13.0-2.198","73","Low_HMMActual","","","","","","null","","","","Images/WhiteBeadChoiceCorrect.png","","null"
"image-button-response","656","411045","0.0-13.0-0.199","73","Low_HMMActual","","","","","","622.8999996185303","","","","Images/NewTrialWC.png","","3"
"image-button-response","657","411354","0.0-13.0-1.199","73","Low_HMMActual","","","","","","null","","","","Images/WhiteBeadChoice.png","","null"
"image-button-response","658","411856","0.0-13.0-2.199","73","Low_HMMActual","","","","","","null","","","","Images/WhiteBeadChoiceWrong.png","","null"
"image-button-response","659","412333","0.0-13.0-0.200","73","Low_HMMActual","","","","","","475.09999990463257","","","","Images/NewTrialBC.png","","1"
"image-button-response","660","412639","0.0-13.0-1.200","73","Low_HMMActual","","","","","","null","","","","Images/BlackBeadChoice.png","","null"
"image-button-response","661","413153","0.0-13.0-2.200","73","Low_HMMActual","","","","","","null","","","","Images/BlackBeadChoiceWrong.png","","null"
"image-button-response","662","422806","0.0-13.0-0.201","73","Low_HMMActual","","","","","","9650.5","","","","Images/NewTrialWC.png","","1"
"image-button-response","663","423115","0.0-13.0-1.201","73","Low_HMMActual","","","","","","null","","","","Images/BlackBeadChoice.png","","null"
"image-button-response","664","423626","0.0-13.0-2.201","73","Low_HMMActual","","","","","","null","","","","Images/BlackBeadChoiceCorrect.png","","null"
"image-button-response","665","424359","0.0-13.0-0.202","73","Low_HMMActual","","","","","","730.3000001907349","","","","Images/NewTrialBC.png","","1"
"image-button-response","666","424661","0.0-13.0-1.202","73","Low_HMMActual","","","","","","null","","","","Images/BlackBeadChoice.png","","null"
