"trial_type","trial_index","time_elapsed","internal_node_id","Script_Picker","Block_Type","success","timeout","failed_images","failed_audio","failed_video","rt","url","responses","question_order","stimulus","key_press","response"
"pavlovia","0","17","0.0-0.0","21","Low_HMMActual","","","","","","","","","","","",""
"preload","1","19","0.0-1.0","21","Low_HMMActual","true","false","[]","[]","[]","","","","","","",""
"external-html","2","38840","0.0-2.0-0.0","21","Low_HMMActual","","","","","","38563.89999999851","consent.html","","","","",""
"survey-multi-choice","3","46618","0.0-2.0-1.0","21","Low_HMMActual","","","","","","7774.799999998882","","{""Q0"":""Male"",""Q1"":""Hispanic or Latino""}","[0,1]","","",""
"survey-text","4","49585","0.0-2.0-2.0","21","Low_HMMActual","","","","","","2963.300000000745","","{""Q0"":""24""}","","","",""
"survey-text","5","61419","0.0-2.0-3.0","21","Low_HMMActual","","","","","","11730.199999999255","","{""Q0"":""5e9d28cb23881d258d89cee9""}","","","",""
"image-keyboard-response","6","101893","0.0-3.0-0.0","21","Low_HMMActual","","","","","","40370.800000000745","","","","tutorial/tutorial1.png"," ",""
"image-keyboard-response","7","110060","0.0-3.0-0.1","21","Low_HMMActual","","","","","","8166.800000000745","","","","tutorial/tutorial2.png"," ",""
"image-keyboard-response","8","114883","0.0-3.0-0.2","21","Low_HMMActual","","","","","","4822.5","","","","tutorial/tutorial3.png"," ",""
"image-keyboard-response","9","119031","0.0-3.0-0.3","21","Low_HMMActual","","","","","","4147.200000001118","","","","tutorial/tutorial4.png"," ",""
"image-keyboard-response","10","121633","0.0-3.0-0.4","21","Low_HMMActual","","","","","","2601.4000000003725","","","","tutorial/tutorial5.png"," ",""
"image-keyboard-response","11","132751","0.0-3.0-0.5","21","Low_HMMActual","","","","","","11116.5","","","","tutorial/tutorial6.png"," ",""
"image-keyboard-response","12","138527","0.0-3.0-0.6","21","Low_HMMActual","","","","","","5775.199999999255","","","","tutorial/tutorial7.png"," ",""
"image-keyboard-response","13","163964","0.0-3.0-0.7","21","Low_HMMActual","","","","","","25436.299999998882","","","","tutorial/tutorial8.png"," ",""
"image-keyboard-response","14","183783","0.0-3.0-0.8","21","Low_HMMActual","","","","","","19817.5","","","","tutorial/tutorial9.png"," ",""
"image-keyboard-response","15","192244","0.0-3.0-0.9","21","Low_HMMActual","","","","","","8460.300000000745","","","","tutorial/tutorial10.png"," ",""
"image-keyboard-response","16","203925","0.0-3.0-0.10","21","Low_HMMActual","","","","","","11680.39999999851","","","","tutorial/tutorial11.png"," ",""
"image-keyboard-response","17","214152","0.0-3.0-0.11","21","Low_HMMActual","","","","","","10226.099999999627","","","","tutorial/tutorial12.png"," ",""
"image-keyboard-response","18","233833","0.0-3.0-0.12","21","Low_HMMActual","","","","","","19680.299999998882","","","","tutorial/tutorial13.png"," ",""
"image-keyboard-response","19","244937","0.0-3.0-0.13","21","Low_HMMActual","","","","","","11103.599999999627","","","","tutorial/tutorial14.png"," ",""
"image-keyboard-response","20","248058","0.0-3.0-0.14","21","Low_HMMActual","","","","","","3120","","","","tutorial/tutorial15.png"," ",""
"image-keyboard-response","21","268505","0.0-4.0","21","Low_HMMActual","","","","","","20446.400000000373","","","","tutorial/tutorial16.png","arrowup",""
"image-keyboard-response","22","292473","0.0-5.0","21","Low_HMMActual","","","","","","19665","","","","tutorial/tutorial17.png","arrowright",""
"image-keyboard-response","23","297978","0.0-6.0","21","Low_HMMActual","","","","","","3528.0999999996275","","","","tutorial/tutorial18.png","arrowleft",""
"image-keyboard-response","24","331854","0.0-7.0","21","Low_HMMActual","","","","","","32522.300000000745","","","","tutorial/tutorial19.png"," ",""
"html-keyboard-response","25","339418","0.0-8.0","22","Low_HMMActual","","","","","","7561.700000001118","","","","<div class=""container"" style=""height:800px;width:800px;display:flex;flex-direction:column;justify-content:center;align-items:center;text-align:center;font-weight:normal;font-family:Arial;font-size:20px""><p>Loading episode&hellip;</p><div>"," ",""
"image-button-response","26","350602","0.0-9.0-0.0","22","Low_HMMActual","","","","","","11180.400000000373","","","","Images/NoChoice.png","","0"
"image-button-response","27","350905","0.0-9.0-1.0","22","Low_HMMActual","","","","","","null","","","","Images/BlackBeadChoice.png","","null"
"image-button-response","28","351408","0.0-9.0-2.0","22","Low_HMMActual","","","","","","null","","","","Images/BlackBeadChoiceCorrect.png","","null"
"image-button-response","29","356242","0.0-9.0-0.1","22","Low_HMMActual","","","","","","4832.300000000745","","","","Images/NewTrialBC.png","","0"
"image-button-response","30","356545","0.0-9.0-1.1","22","Low_HMMActual","","","","","","null","","","","Images/BlackBeadChoice.png","","null"
"image-button-response","31","357047","0.0-9.0-2.1","22","Low_HMMActual","","","","","","null","","","","Images/BlackBeadChoiceCorrect.png","","null"
"image-button-response","32","358075","0.0-9.0-0.2","22","Low_HMMActual","","","","","","1025.5","","","","Images/NewTrialBC.png","","0"
"image-button-response","33","358377","0.0-9.0-1.2","22","Low_HMMActual","","","","","","null","","","","Images/BlackBeadChoice.png","","null"
"image-button-response","34","358879","0.0-9.0-2.2","22","Low_HMMActual","","","","","","null","","","","Images/BlackBeadChoiceWrong.png","","null"
"image-button-response","35","362091","0.0-9.0-0.3","22","Low_HMMActual","","","","","","3210.5","","","","Images/NewTrialWC.png","","0"
"image-button-response","36","362395","0.0-9.0-1.3","22","Low_HMMActual","","","","","","null","","","","Images/BlackBeadChoice.png","","null"
"image-button-response","37","362896","0.0-9.0-2.3","22","Low_HMMActual","","","","","","null","","","","Images/BlackBeadChoiceCorrect.png","","null"
"image-button-response","38","363139","0.0-9.0-0.4","22","Low_HMMActual","","","","","","241.09999999962747","","","","Images/NewTrialBC.png","","0"
"image-button-response","39","363445","0.0-9.0-1.4","22","Low_HMMActual","","","","","","null","","","","Images/BlackBeadChoice.png","","null"
"image-button-response","40","363951","0.0-9.0-2.4","22","Low_HMMActual","","","","","","null","","","","Images/BlackBeadChoiceCorrect.png","","null"
"image-button-response","41","364587","0.0-9.0-0.5","22","Low_HMMActual","","","","","","635","","","","Images/NewTrialBC.png","","0"
"image-button-response","42","364889","0.0-9.0-1.5","22","Low_HMMActual","","","","","","null","","","","Images/BlackBeadChoice.png","","null"
"image-button-response","43","365396","0.0-9.0-2.5","22","Low_HMMActual","","","","","","null","","","","Images/BlackBeadChoiceCorrect.png","","null"
"image-button-response","44","365892","0.0-9.0-0.6","22","Low_HMMActual","","","","","","493.7999999988824","","","","Images/NewTrialBC.png","","0"
"image-button-response","45","366195","0.0-9.0-1.6","22","Low_HMMActual","","","","","","null","","","","Images/BlackBeadChoice.png","","null"
"image-button-response","46","366697","0.0-9.0-2.6","22","Low_HMMActual","","","","","","null","","","","Images/BlackBeadChoiceCorrect.png","","null"
"image-button-response","47","367132","0.0-9.0-0.7","22","Low_HMMActual","","","","","","432.59999999962747","","","","Images/NewTrialBC.png","","0"
"image-button-response","48","367436","0.0-9.0-1.7","22","Low_HMMActual","","","","","","null","","","","Images/BlackBeadChoice.png","","null"
"image-button-response","49","367938","0.0-9.0-2.7","22","Low_HMMActual","","","","","","null","","","","Images/BlackBeadChoiceCorrect.png","","null"
"image-button-response","50","368348","0.0-9.0-0.8","22","Low_HMMActual","","","","","","408.2999999988824","","","","Images/NewTrialBC.png","","0"
"image-button-response","51","368651","0.0-9.0-1.8","22","Low_HMMActual","","","","","","null","","","","Images/BlackBeadChoice.png","","null"
"image-button-response","52","369156","0.0-9.0-2.8","22","Low_HMMActual","","","","","","null","","","","Images/BlackBeadChoiceWrong.png","","null"
"image-button-response","53","369748","0.0-9.0-0.9","22","Low_HMMActual","","","","","","591.5","","","","Images/NewTrialWC.png","","0"
"image-button-response","54","370051","0.0-9.0-1.9","22","Low_HMMActual","","","","","","null","","","","Images/BlackBeadChoice.png","","null"
"image-button-response","55","370553","0.0-9.0-2.9","22","Low_HMMActual","","","","","","null","","","","Images/BlackBeadChoiceWrong.png","","null"
"html-keyboard-response","56","373500","0.0-10.0","22","Low_HMMActual","","","","","","2946.10000000149","","","",""," ",""
"image-keyboard-response","57","379158","0.0-11.0","22","Low_HMMActual","","","","","","5657.4000000003725","","","","tutorial/tutorial20.png"," ",""
"html-keyboard-response","58","1435611","0.0-12.0","23","Low_HMMActual","","","","","","1056451.9000000004","","","","<div class=""container"" style=""height:800px;width:800px;display:flex;flex-direction:column;justify-content:center;align-items:center;text-align:center;font-weight:normal;font-family:Arial;font-size:20px""><p>Loading episode&hellip;</p><div>"," ",""
"image-button-response","59","1437860","0.0-13.0-0.0","23","Low_HMMActual","","","","","","2247.0999999996275","","","","Images/NoChoice.png","","0"
"image-button-response","60","1438162","0.0-13.0-1.0","23","Low_HMMActual","","","","","","null","","","","Images/BlackBeadChoice.png","","null"
"image-button-response","61","1438665","0.0-13.0-2.0","23","Low_HMMActual","","","","","","null","","","","Images/BlackBeadChoiceWrong.png","","null"
"image-button-response","62","1438875","0.0-13.0-0.1","23","Low_HMMActual","","","","","","209.19999999925494","","","","Images/NewTrialWC.png","","0"
"image-button-response","63","1439176","0.0-13.0-1.1","23","Low_HMMActual","","","","","","null","","","","Images/BlackBeadChoice.png","","null"
"image-button-response","64","1439680","0.0-13.0-2.1","23","Low_HMMActual","","","","","","null","","","","Images/BlackBeadChoiceWrong.png","","null"
"image-button-response","65","1440084","0.0-13.0-0.2","23","Low_HMMActual","","","","","","402.59999999962747","","","","Images/NewTrialWC.png","","2"
"image-button-response","66","1440385","0.0-13.0-1.2","23","Low_HMMActual","","","","","","null","","","","Images/WhiteBeadChoice.png","","null"
"image-button-response","67","1440887","0.0-13.0-2.2","23","Low_HMMActual","","","","","","null","","","","Images/WhiteBeadChoiceCorrect.png","","null"
"image-button-response","68","1441684","0.0-13.0-0.3","23","Low_HMMActual","","","","","","795.4000000003725","","","","Images/NewTrialWC.png","","2"
"image-button-response","69","1441985","0.0-13.0-1.3","23","Low_HMMActual","","","","","","null","","","","Images/WhiteBeadChoice.png","","null"
"image-button-response","70","1442487","0.0-13.0-2.3","23","Low_HMMActual","","","","","","null","","","","Images/WhiteBeadChoiceCorrect.png","","null"
"image-button-response","71","1442740","0.0-13.0-0.4","23","Low_HMMActual","","","","","","250.89999999850988","","","","Images/NewTrialWC.png","","2"
"image-button-response","72","1443042","0.0-13.0-1.4","23","Low_HMMActual","","","","","","null","","","","Images/WhiteBeadChoice.png","","null"
"image-button-response","73","1443544","0.0-13.0-2.4","23","Low_HMMActual","","","","","","400.59999999962747","","","","Images/WhiteBeadChoiceCorrect.png","","2"
"image-button-response","74","1444380","0.0-13.0-0.5","23","Low_HMMActual","","","","","","834.5","","","","Images/NewTrialWC.png","","2"
"image-button-response","75","1444682","0.0-13.0-1.5","23","Low_HMMActual","","","","","","null","","","","Images/WhiteBeadChoice.png","","null"
"image-button-response","76","1445186","0.0-13.0-2.5","23","Low_HMMActual","","","","","","455.40000000037253","","","","Images/WhiteBeadChoiceCorrect.png","","2"
"image-button-response","77","1445764","0.0-13.0-0.6","23","Low_HMMActual","","","","","","576.9000000003725","","","","Images/NewTrialWC.png","","2"
"image-button-response","78","1446067","0.0-13.0-1.6","23","Low_HMMActual","","","","","","null","","","","Images/WhiteBeadChoice.png","","null"
"image-button-response","79","1446570","0.0-13.0-2.6","23","Low_HMMActual","","","","","","null","","","","Images/WhiteBeadChoiceCorrect.png","","null"
"image-button-response","80","1446853","0.0-13.0-0.7","23","Low_HMMActual","","","","","","281.40000000037253","","","","Images/NewTrialWC.png","","2"
"image-button-response","81","1447154","0.0-13.0-1.7","23","Low_HMMActual","","","","","","null","","","","Images/WhiteBeadChoice.png","","null"
"image-button-response","82","1447658","0.0-13.0-2.7","23","Low_HMMActual","","","","","","null","","","","Images/WhiteBeadChoiceCorrect.png","","null"
"image-button-response","83","1448037","0.0-13.0-0.8","23","Low_HMMActual","","","","","","377.5","","","","Images/NewTrialWC.png","","2"
"image-button-response","84","1448341","0.0-13.0-1.8","23","Low_HMMActual","","","","","","null","","","","Images/WhiteBeadChoice.png","","null"
"image-button-response","85","1448843","0.0-13.0-2.8","23","Low_HMMActual","","","","","","null","","","","Images/WhiteBeadChoiceCorrect.png","","null"
"image-button-response","86","1449149","0.0-13.0-0.9","23","Low_HMMActual","","","","","","304.09999999962747","","","","Images/NewTrialWC.png","","2"
"image-button-response","87","1449451","0.0-13.0-1.9","23","Low_HMMActual","","","","","","null","","","","Images/WhiteBeadChoice.png","","null"
"image-button-response","88","1449953","0.0-13.0-2.9","23","Low_HMMActual","","","","","","null","","","","Images/WhiteBeadChoiceCorrect.png","","null"
"image-button-response","89","1450269","0.0-13.0-0.10","23","Low_HMMActual","","","","","","313.5","","","","Images/NewTrialWC.png","","2"
"image-button-response","90","1450570","0.0-13.0-1.10","23","Low_HMMActual","","","","","","null","","","","Images/WhiteBeadChoice.png","","null"
"image-button-response","91","1451072","0.0-13.0-2.10","23","Low_HMMActual","","","","","","null","","","","Images/WhiteBeadChoiceCorrect.png","","null"
"image-button-response","92","1451389","0.0-13.0-0.11","23","Low_HMMActual","","","","","","314.30000000074506","","","","Images/NewTrialWC.png","","2"
"image-button-response","93","1451692","0.0-13.0-1.11","23","Low_HMMActual","","","","","","null","","","","Images/WhiteBeadChoice.png","","null"
"image-button-response","94","1452194","0.0-13.0-2.11","23","Low_HMMActual","","","","","","null","","","","Images/WhiteBeadChoiceCorrect.png","","null"
"image-button-response","95","1452493","0.0-13.0-0.12","23","Low_HMMActual","","","","","","297.7999999988824","","","","Images/NewTrialWC.png","","2"
"image-button-response","96","1452795","0.0-13.0-1.12","23","Low_HMMActual","","","","","","null","","","","Images/WhiteBeadChoice.png","","null"
"image-button-response","97","1453297","0.0-13.0-2.12","23","Low_HMMActual","","","","","","null","","","","Images/WhiteBeadChoiceCorrect.png","","null"
"image-button-response","98","1453477","0.0-13.0-0.13","23","Low_HMMActual","","","","","","175.40000000037253","","","","Images/NewTrialWC.png","","2"
"image-button-response","99","1453780","0.0-13.0-1.13","23","Low_HMMActual","","","","","","null","","","","Images/WhiteBeadChoice.png","","null"
"image-button-response","100","1454282","0.0-13.0-2.13","23","Low_HMMActual","","","","","","null","","","","Images/WhiteBeadChoiceCorrect.png","","null"
"image-button-response","101","1454478","0.0-13.0-0.14","23","Low_HMMActual","","","","","","194.19999999925494","","","","Images/NewTrialWC.png","","2"
"image-button-response","102","1454780","0.0-13.0-1.14","23","Low_HMMActual","","","","","","null","","","","Images/WhiteBeadChoice.png","","null"
"image-button-response","103","1455282","0.0-13.0-2.14","23","Low_HMMActual","","","","","","null","","","","Images/WhiteBeadChoiceWrong.png","","null"
"image-button-response","104","1457374","0.0-13.0-0.15","23","Low_HMMActual","","","","","","2090.7999999988824","","","","Images/NewTrialBC.png","","2"
"image-button-response","105","1457676","0.0-13.0-1.15","23","Low_HMMActual","","","","","","null","","","","Images/WhiteBeadChoice.png","","null"
"image-button-response","106","1458177","0.0-13.0-2.15","23","Low_HMMActual","","","","","","null","","","","Images/WhiteBeadChoiceWrong.png","","null"
"image-button-response","107","1459222","0.0-13.0-0.16","23","Low_HMMActual","","","","","","1043.300000000745","","","","Images/NewTrialBC.png","","0"
"image-button-response","108","1459524","0.0-13.0-1.16","23","Low_HMMActual","","","","","","null","","","","Images/BlackBeadChoice.png","","null"
"image-button-response","109","1460026","0.0-13.0-2.16","23","Low_HMMActual","","","","","","null","","","","Images/BlackBeadChoiceCorrect.png","","null"
"image-button-response","110","1460174","0.0-13.0-0.17","23","Low_HMMActual","","","","","","147.19999999925494","","","","Images/NewTrialBC.png","","0"
"image-button-response","111","1460476","0.0-13.0-1.17","23","Low_HMMActual","","","","","","null","","","","Images/BlackBeadChoice.png","","null"
"image-button-response","112","1460979","0.0-13.0-2.17","23","Low_HMMActual","","","","","","352.40000000037253","","","","Images/BlackBeadChoiceCorrect.png","","0"
"image-button-response","113","1461470","0.0-13.0-0.18","23","Low_HMMActual","","","","","","489.5","","","","Images/NewTrialBC.png","","0"
"image-button-response","114","1461773","0.0-13.0-1.18","23","Low_HMMActual","","","","","","null","","","","Images/BlackBeadChoice.png","","null"
"image-button-response","115","1462275","0.0-13.0-2.18","23","Low_HMMActual","","","","","","376.30000000074506","","","","Images/BlackBeadChoiceCorrect.png","","0"
"image-button-response","116","1462703","0.0-13.0-0.19","23","Low_HMMActual","","","","","","426.59999999962747","","","","Images/NewTrialBC.png","","0"
"image-button-response","117","1463005","0.0-13.0-1.19","23","Low_HMMActual","","","","","","null","","","","Images/BlackBeadChoice.png","","null"
"image-button-response","118","1463508","0.0-13.0-2.19","23","Low_HMMActual","","","","","","null","","","","Images/BlackBeadChoiceWrong.png","","null"
"image-button-response","119","1465271","0.0-13.0-0.20","23","Low_HMMActual","","","","","","1761.7000000011176","","","","Images/NewTrialWC.png","","0"
"image-button-response","120","1465573","0.0-13.0-1.20","23","Low_HMMActual","","","","","","null","","","","Images/BlackBeadChoice.png","","null"
"image-button-response","121","1466076","0.0-13.0-2.20","23","Low_HMMActual","","","","","","null","","","","Images/BlackBeadChoiceWrong.png","","null"
"image-button-response","122","1466815","0.0-13.0-0.21","23","Low_HMMActual","","","","","","737.2000000011176","","","","Images/NewTrialWC.png","","1"
"image-button-response","123","1467117","0.0-13.0-1.21","23","Low_HMMActual","","","","","","null","","","","Images/BlackBeadChoice.png","","null"
"image-button-response","124","1467618","0.0-13.0-2.21","23","Low_HMMActual","","","","","","null","","","","Images/BlackBeadChoiceWrong.png","","null"
"image-button-response","125","1467871","0.0-13.0-0.22","23","Low_HMMActual","","","","","","251.59999999962747","","","","Images/NewTrialWC.png","","2"
"image-button-response","126","1468172","0.0-13.0-1.22","23","Low_HMMActual","","","","","","null","","","","Images/WhiteBeadChoice.png","","null"
"image-button-response","127","1468673","0.0-13.0-2.22","23","Low_HMMActual","","","","","","null","","","","Images/WhiteBeadChoiceWrong.png","","null"
"image-button-response","128","1469807","0.0-13.0-0.23","23","Low_HMMActual","","","","","","1131.6000000014901","","","","Images/NewTrialBC.png","","2"
"image-button-response","129","1470111","0.0-13.0-1.23","23","Low_HMMActual","","","","","","null","","","","Images/WhiteBeadChoice.png","","null"
"image-button-response","130","1470613","0.0-13.0-2.23","23","Low_HMMActual","","","","","","null","","","","Images/WhiteBeadChoiceWrong.png","","null"
"image-button-response","131","1471456","0.0-13.0-0.24","23","Low_HMMActual","","","","","","840.8000000007451","","","","Images/NewTrialBC.png","","0"
"image-button-response","132","1471757","0.0-13.0-1.24","23","Low_HMMActual","","","","","","null","","","","Images/BlackBeadChoice.png","","null"
"image-button-response","133","1472258","0.0-13.0-2.24","23","Low_HMMActual","","","","","","null","","","","Images/BlackBeadChoiceWrong.png","","null"
"image-button-response","134","1472624","0.0-13.0-0.25","23","Low_HMMActual","","","","","","364.69999999925494","","","","Images/NewTrialWC.png","","0"
"image-button-response","135","1472926","0.0-13.0-1.25","23","Low_HMMActual","","","","","","null","","","","Images/BlackBeadChoice.png","","null"
"image-button-response","136","1473430","0.0-13.0-2.25","23","Low_HMMActual","","","","","","null","","","","Images/BlackBeadChoiceWrong.png","","null"
"image-button-response","137","1474240","0.0-13.0-0.26","23","Low_HMMActual","","","","","","808.7000000011176","","","","Images/NewTrialWC.png","","2"
"image-button-response","138","1474541","0.0-13.0-1.26","23","Low_HMMActual","","","","","","null","","","","Images/WhiteBeadChoice.png","","null"
"image-button-response","139","1475043","0.0-13.0-2.26","23","Low_HMMActual","","","","","","null","","","","Images/WhiteBeadChoiceWrong.png","","null"
"image-button-response","140","1476496","0.0-13.0-0.27","23","Low_HMMActual","","","","","","1451.9000000003725","","","","Images/NewTrialBC.png","","0"
"image-button-response","141","1476797","0.0-13.0-1.27","23","Low_HMMActual","","","","","","null","","","","Images/BlackBeadChoice.png","","null"
"image-button-response","142","1477299","0.0-13.0-2.27","23","Low_HMMActual","","","","","","null","","","","Images/BlackBeadChoiceCorrect.png","","null"
"image-button-response","143","1477473","0.0-13.0-0.28","23","Low_HMMActual","","","","","","171.09999999962747","","","","Images/NewTrialBC.png","","0"
"image-button-response","144","1477777","0.0-13.0-1.28","23","Low_HMMActual","","","","","","null","","","","Images/BlackBeadChoice.png","","null"
"image-button-response","145","1478279","0.0-13.0-2.28","23","Low_HMMActual","","","","","","414.40000000037253","","","","Images/BlackBeadChoiceCorrect.png","","0"
"image-button-response","146","1478729","0.0-13.0-0.29","23","Low_HMMActual","","","","","","448.40000000037253","","","","Images/NewTrialBC.png","","0"
"image-button-response","147","1479030","0.0-13.0-1.29","23","Low_HMMActual","","","","","","null","","","","Images/BlackBeadChoice.png","","null"
"image-button-response","148","1479532","0.0-13.0-2.29","23","Low_HMMActual","","","","","","401.09999999962747","","","","Images/BlackBeadChoiceCorrect.png","","0"
"image-button-response","149","1479921","0.0-13.0-0.30","23","Low_HMMActual","","","","","","387.2000000011176","","","","Images/NewTrialBC.png","","0"
"image-button-response","150","1480223","0.0-13.0-1.30","23","Low_HMMActual","","","","","","null","","","","Images/BlackBeadChoice.png","","null"
"image-button-response","151","1480724","0.0-13.0-2.30","23","Low_HMMActual","","","","","","null","","","","Images/BlackBeadChoiceWrong.png","","null"
"image-button-response","152","1481097","0.0-13.0-0.31","23","Low_HMMActual","","","","","","371.40000000037253","","","","Images/NewTrialWC.png","","0"
"image-button-response","153","1481402","0.0-13.0-1.31","23","Low_HMMActual","","","","","","null","","","","Images/BlackBeadChoice.png","","null"
"image-button-response","154","1481905","0.0-13.0-2.31","23","Low_HMMActual","","","","","","null","","","","Images/BlackBeadChoiceCorrect.png","","null"
"image-button-response","155","1482401","0.0-13.0-0.32","23","Low_HMMActual","","","","","","494.40000000037253","","","","Images/NewTrialBC.png","","0"
"image-button-response","156","1482703","0.0-13.0-1.32","23","Low_HMMActual","","","","","","null","","","","Images/BlackBeadChoice.png","","null"
"image-button-response","157","1483205","0.0-13.0-2.32","23","Low_HMMActual","","","","","","null","","","","Images/BlackBeadChoiceWrong.png","","null"
"image-button-response","158","1483594","0.0-13.0-0.33","23","Low_HMMActual","","","","","","385.8999999985099","","","","Images/NewTrialWC.png","","0"
"image-button-response","159","1483896","0.0-13.0-1.33","23","Low_HMMActual","","","","","","null","","","","Images/BlackBeadChoice.png","","null"
"image-button-response","160","1484398","0.0-13.0-2.33","23","Low_HMMActual","","","","","","null","","","","Images/BlackBeadChoiceCorrect.png","","null"
"image-button-response","161","1484738","0.0-13.0-0.34","23","Low_HMMActual","","","","","","338.09999999962747","","","","Images/NewTrialBC.png","","0"
"image-button-response","162","1485040","0.0-13.0-1.34","23","Low_HMMActual","","","","","","null","","","","Images/BlackBeadChoice.png","","null"
"image-button-response","163","1485548","0.0-13.0-2.34","23","Low_HMMActual","","","","","","null","","","","Images/BlackBeadChoiceCorrect.png","","null"
"image-button-response","164","1485811","0.0-13.0-0.35","23","Low_HMMActual","","","","","","261.09999999962747","","","","Images/NewTrialBC.png","","0"
"image-button-response","165","1486112","0.0-13.0-1.35","23","Low_HMMActual","","","","","","null","","","","Images/BlackBeadChoice.png","","null"
"image-button-response","166","1486614","0.0-13.0-2.35","23","Low_HMMActual","","","","","","null","","","","Images/BlackBeadChoiceCorrect.png","","null"
"image-button-response","167","1486802","0.0-13.0-0.36","23","Low_HMMActual","","","","","","186.09999999962747","","","","Images/NewTrialBC.png","","0"
"image-button-response","168","1487104","0.0-13.0-1.36","23","Low_HMMActual","","","","","","null","","","","Images/BlackBeadChoice.png","","null"
"image-button-response","169","1487606","0.0-13.0-2.36","23","Low_HMMActual","","","","","","null","","","","Images/BlackBeadChoiceCorrect.png","","null"
"image-button-response","170","1487746","0.0-13.0-0.37","23","Low_HMMActual","","","","","","139.2000000011176","","","","Images/NewTrialBC.png","","0"
"image-button-response","171","1488048","0.0-13.0-1.37","23","Low_HMMActual","","","","","","null","","","","Images/BlackBeadChoice.png","","null"
"image-button-response","172","1488550","0.0-13.0-2.37","23","Low_HMMActual","","","","","","null","","","","Images/BlackBeadChoiceCorrect.png","","null"
"image-button-response","173","1489194","0.0-13.0-0.38","23","Low_HMMActual","","","","","","643.3000000007451","","","","Images/NewTrialBC.png","","0"
"image-button-response","174","1489496","0.0-13.0-1.38","23","Low_HMMActual","","","","","","null","","","","Images/BlackBeadChoice.png","","null"
"image-button-response","175","1490000","0.0-13.0-2.38","23","Low_HMMActual","","","","","","null","","","","Images/BlackBeadChoiceCorrect.png","","null"
"image-button-response","176","1490451","0.0-13.0-0.39","23","Low_HMMActual","","","","","","449.59999999962747","","","","Images/NewTrialBC.png","","0"
"image-button-response","177","1490753","0.0-13.0-1.39","23","Low_HMMActual","","","","","","null","","","","Images/BlackBeadChoice.png","","null"
"image-button-response","178","1491255","0.0-13.0-2.39","23","Low_HMMActual","","","","","","null","","","","Images/BlackBeadChoiceWrong.png","","null"
"image-button-response","179","1491923","0.0-13.0-0.40","23","Low_HMMActual","","","","","","666.1999999992549","","","","Images/NewTrialWC.png","","0"
"image-button-response","180","1492225","0.0-13.0-1.40","23","Low_HMMActual","","","","","","null","","","","Images/BlackBeadChoice.png","","null"
"image-button-response","181","1492726","0.0-13.0-2.40","23","Low_HMMActual","","","","","","null","","","","Images/BlackBeadChoiceCorrect.png","","null"
"image-button-response","182","1492915","0.0-13.0-0.41","23","Low_HMMActual","","","","","","187.59999999962747","","","","Images/NewTrialBC.png","","0"
"image-button-response","183","1493217","0.0-13.0-1.41","23","Low_HMMActual","","","","","","null","","","","Images/BlackBeadChoice.png","","null"
"image-button-response","184","1493720","0.0-13.0-2.41","23","Low_HMMActual","","","","","","null","","","","Images/BlackBeadChoiceCorrect.png","","null"
"image-button-response","185","1493859","0.0-13.0-0.42","23","Low_HMMActual","","","","","","138.2999999988824","","","","Images/NewTrialBC.png","","0"
"image-button-response","186","1494161","0.0-13.0-1.42","23","Low_HMMActual","","","","","","null","","","","Images/BlackBeadChoice.png","","null"
"image-button-response","187","1494665","0.0-13.0-2.42","23","Low_HMMActual","","","","","","null","","","","Images/BlackBeadChoiceCorrect.png","","null"
"image-button-response","188","1494995","0.0-13.0-0.43","23","Low_HMMActual","","","","","","329.09999999962747","","","","Images/NewTrialBC.png","","0"
"image-button-response","189","1495297","0.0-13.0-1.43","23","Low_HMMActual","","","","","","null","","","","Images/BlackBeadChoice.png","","null"
"image-button-response","190","1495798","0.0-13.0-2.43","23","Low_HMMActual","","","","","","null","","","","Images/BlackBeadChoiceWrong.png","","null"
"image-button-response","191","1496211","0.0-13.0-0.44","23","Low_HMMActual","","","","","","412.30000000074506","","","","Images/NewTrialWC.png","","0"
"image-button-response","192","1496514","0.0-13.0-1.44","23","Low_HMMActual","","","","","","null","","","","Images/BlackBeadChoice.png","","null"
"image-button-response","193","1497016","0.0-13.0-2.44","23","Low_HMMActual","","","","","","null","","","","Images/BlackBeadChoiceWrong.png","","null"
"image-button-response","194","1497315","0.0-13.0-0.45","23","Low_HMMActual","","","","","","298.80000000074506","","","","Images/NewTrialWC.png","","0"
"image-button-response","195","1497618","0.0-13.0-1.45","23","Low_HMMActual","","","","","","null","","","","Images/BlackBeadChoice.png","","null"
"image-button-response","196","1498119","0.0-13.0-2.45","23","Low_HMMActual","","","","","","null","","","","Images/BlackBeadChoiceWrong.png","","null"
"image-button-response","197","1498588","0.0-13.0-0.46","23","Low_HMMActual","","","","","","467.59999999962747","","","","Images/NewTrialWC.png","","2"
"image-button-response","198","1498889","0.0-13.0-1.46","23","Low_HMMActual","","","","","","null","","","","Images/WhiteBeadChoice.png","","null"
"image-button-response","199","1499391","0.0-13.0-2.46","23","Low_HMMActual","","","","","","null","","","","Images/WhiteBeadChoiceCorrect.png","","null"
"image-button-response","200","1499508","0.0-13.0-0.47","23","Low_HMMActual","","","","","","110.30000000074506","","","","Images/NewTrialWC.png","","2"
"image-button-response","201","1499811","0.0-13.0-1.47","23","Low_HMMActual","","","","","","null","","","","Images/WhiteBeadChoice.png","","null"
"image-button-response","202","1500313","0.0-13.0-2.47","23","Low_HMMActual","","","","","","479.3999999985099","","","","Images/WhiteBeadChoiceCorrect.png","","2"
"image-button-response","203","1500780","0.0-13.0-0.48","23","Low_HMMActual","","","","","","465.3999999985099","","","","Images/NewTrialWC.png","","2"
"image-button-response","204","1501082","0.0-13.0-1.48","23","Low_HMMActual","","","","","","null","","","","Images/WhiteBeadChoice.png","","null"
"image-button-response","205","1501585","0.0-13.0-2.48","23","Low_HMMActual","","","","","","null","","","","Images/WhiteBeadChoiceCorrect.png","","null"
"image-button-response","206","1501740","0.0-13.0-0.49","23","Low_HMMActual","","","","","","154.2999999988824","","","","Images/NewTrialWC.png","","2"
"image-button-response","207","1502043","0.0-13.0-1.49","23","Low_HMMActual","","","","","","null","","","","Images/WhiteBeadChoice.png","","null"
"image-button-response","208","1502548","0.0-13.0-2.49","23","Low_HMMActual","","","","","","null","","","","Images/WhiteBeadChoiceWrong.png","","null"
"image-button-response","209","1503085","0.0-13.0-0.50","23","Low_HMMActual","","","","","","534.9000000003725","","","","Images/NewTrialBC.png","","2"
"image-button-response","210","1503386","0.0-13.0-1.50","23","Low_HMMActual","","","","","","null","","","","Images/WhiteBeadChoice.png","","null"
"image-button-response","211","1503888","0.0-13.0-2.50","23","Low_HMMActual","","","","","","null","","","","Images/WhiteBeadChoiceWrong.png","","null"
"image-button-response","212","1504413","0.0-13.0-0.51","23","Low_HMMActual","","","","","","523.5","","","","Images/NewTrialBC.png","","2"
"image-button-response","213","1504715","0.0-13.0-1.51","23","Low_HMMActual","","","","","","null","","","","Images/WhiteBeadChoice.png","","null"
"image-button-response","214","1505217","0.0-13.0-2.51","23","Low_HMMActual","","","","","","null","","","","Images/WhiteBeadChoiceCorrect.png","","null"
"image-button-response","215","1505773","0.0-13.0-0.52","23","Low_HMMActual","","","","","","554.5999999996275","","","","Images/NewTrialWC.png","","2"
"image-button-response","216","1506075","0.0-13.0-1.52","23","Low_HMMActual","","","","","","null","","","","Images/WhiteBeadChoice.png","","null"
"image-button-response","217","1506577","0.0-13.0-2.52","23","Low_HMMActual","","","","","","null","","","","Images/WhiteBeadChoiceCorrect.png","","null"
"image-button-response","218","1506725","0.0-13.0-0.53","23","Low_HMMActual","","","","","","146","","","","Images/NewTrialWC.png","","2"
"image-button-response","219","1507027","0.0-13.0-1.53","23","Low_HMMActual","","","","","","null","","","","Images/WhiteBeadChoice.png","","null"
"image-button-response","220","1507529","0.0-13.0-2.53","23","Low_HMMActual","","","","","","null","","","","Images/WhiteBeadChoiceCorrect.png","","null"
"image-button-response","221","1507813","0.0-13.0-0.54","23","Low_HMMActual","","","","","","282.2000000011176","","","","Images/NewTrialWC.png","","2"
"image-button-response","222","1508115","0.0-13.0-1.54","23","Low_HMMActual","","","","","","null","","","","Images/WhiteBeadChoice.png","","null"
"image-button-response","223","1508618","0.0-13.0-2.54","23","Low_HMMActual","","","","","","null","","","","Images/WhiteBeadChoiceCorrect.png","","null"
"image-button-response","224","1508757","0.0-13.0-0.55","23","Low_HMMActual","","","","","","137.19999999925494","","","","Images/NewTrialWC.png","","2"
"image-button-response","225","1509059","0.0-13.0-1.55","23","Low_HMMActual","","","","","","null","","","","Images/WhiteBeadChoice.png","","null"
"image-button-response","226","1509560","0.0-13.0-2.55","23","Low_HMMActual","","","","","","null","","","","Images/WhiteBeadChoiceWrong.png","","null"
"image-button-response","227","1509790","0.0-13.0-0.56","23","Low_HMMActual","","","","","","228","","","","Images/NewTrialBC.png","","2"
"image-button-response","228","1510099","0.0-13.0-1.56","23","Low_HMMActual","","","","","","null","","","","Images/WhiteBeadChoice.png","","null"
"image-button-response","229","1510601","0.0-13.0-2.56","23","Low_HMMActual","","","","","","null","","","","Images/WhiteBeadChoiceCorrect.png","","null"
"image-button-response","230","1510854","0.0-13.0-0.57","23","Low_HMMActual","","","","","","250.59999999962747","","","","Images/NewTrialWC.png","","2"
"image-button-response","231","1511156","0.0-13.0-1.57","23","Low_HMMActual","","","","","","null","","","","Images/WhiteBeadChoice.png","","null"
"image-button-response","232","1511659","0.0-13.0-2.57","23","Low_HMMActual","","","","","","null","","","","Images/WhiteBeadChoiceCorrect.png","","null"
"image-button-response","233","1511902","0.0-13.0-0.58","23","Low_HMMActual","","","","","","240.80000000074506","","","","Images/NewTrialWC.png","","2"
"image-button-response","234","1512211","0.0-13.0-1.58","23","Low_HMMActual","","","","","","null","","","","Images/WhiteBeadChoice.png","","null"
"image-button-response","235","1512713","0.0-13.0-2.58","23","Low_HMMActual","","","","","","null","","","","Images/WhiteBeadChoiceWrong.png","","null"
"image-button-response","236","1512934","0.0-13.0-0.59","23","Low_HMMActual","","","","","","219.59999999962747","","","","Images/NewTrialBC.png","","2"
"image-button-response","237","1513235","0.0-13.0-1.59","23","Low_HMMActual","","","","","","null","","","","Images/WhiteBeadChoice.png","","null"
"image-button-response","238","1513736","0.0-13.0-2.59","23","Low_HMMActual","","","","","","null","","","","Images/WhiteBeadChoiceWrong.png","","null"
"image-button-response","239","1513878","0.0-13.0-0.60","23","Low_HMMActual","","","","","","139.09999999962747","","","","Images/NewTrialBC.png","","2"
"image-button-response","240","1514180","0.0-13.0-1.60","23","Low_HMMActual","","","","","","null","","","","Images/WhiteBeadChoice.png","","null"
"image-button-response","241","1514681","0.0-13.0-2.60","23","Low_HMMActual","","","","","","null","","","","Images/WhiteBeadChoiceWrong.png","","null"
"image-button-response","242","1514807","0.0-13.0-0.61","23","Low_HMMActual","","","","","","124","","","","Images/NewTrialBC.png","","2"
"image-button-response","243","1515109","0.0-13.0-1.61","23","Low_HMMActual","","","","","","null","","","","Images/WhiteBeadChoice.png","","null"
"image-button-response","244","1515611","0.0-13.0-2.61","23","Low_HMMActual","","","","","","null","","","","Images/WhiteBeadChoiceWrong.png","","null"
"image-button-response","245","1515854","0.0-13.0-0.62","23","Low_HMMActual","","","","","","241.69999999925494","","","","Images/NewTrialBC.png","","0"
"image-button-response","246","1516155","0.0-13.0-1.62","23","Low_HMMActual","","","","","","null","","","","Images/BlackBeadChoice.png","","null"
"image-button-response","247","1516657","0.0-13.0-2.62","23","Low_HMMActual","","","","","","null","","","","Images/BlackBeadChoiceCorrect.png","","null"
"image-button-response","248","1517246","0.0-13.0-0.63","23","Low_HMMActual","","","","","","586.9000000003725","","","","Images/NewTrialBC.png","","0"
"image-button-response","249","1517548","0.0-13.0-1.63","23","Low_HMMActual","","","","","","null","","","","Images/BlackBeadChoice.png","","null"
"image-button-response","250","1518050","0.0-13.0-2.63","23","Low_HMMActual","","","","","","null","","","","Images/BlackBeadChoiceCorrect.png","","null"
"image-button-response","251","1518174","0.0-13.0-0.64","23","Low_HMMActual","","","","","","123.20000000111759","","","","Images/NewTrialBC.png","","0"
"image-button-response","252","1518478","0.0-13.0-1.64","23","Low_HMMActual","","","","","","null","","","","Images/BlackBeadChoice.png","","null"
"image-button-response","253","1518980","0.0-13.0-2.64","23","Low_HMMActual","","","","","","null","","","","Images/BlackBeadChoiceWrong.png","","null"
"image-button-response","254","1519558","0.0-13.0-0.65","23","Low_HMMActual","","","","","","577.5","","","","Images/NewTrialWC.png","","0"
"image-button-response","255","1519862","0.0-13.0-1.65","23","Low_HMMActual","","","","","","null","","","","Images/BlackBeadChoice.png","","null"
"image-button-response","256","1520364","0.0-13.0-2.65","23","Low_HMMActual","","","","","","null","","","","Images/BlackBeadChoiceWrong.png","","null"
"image-button-response","257","1521703","0.0-13.0-0.66","23","Low_HMMActual","","","","","","1337.699999999255","","","","Images/NewTrialWC.png","","1"
"image-button-response","258","1522006","0.0-13.0-1.66","23","Low_HMMActual","","","","","","null","","","","Images/BlackBeadChoice.png","","null"
"image-button-response","259","1522507","0.0-13.0-2.66","23","Low_HMMActual","","","","","","null","","","","Images/BlackBeadChoiceWrong.png","","null"
"image-button-response","260","1522983","0.0-13.0-0.67","23","Low_HMMActual","","","","","","474.90000000037253","","","","Images/NewTrialWC.png","","2"
"image-button-response","261","1523286","0.0-13.0-1.67","23","Low_HMMActual","","","","","","null","","","","Images/WhiteBeadChoice.png","","null"
"image-button-response","262","1523788","0.0-13.0-2.67","23","Low_HMMActual","","","","","","null","","","","Images/WhiteBeadChoiceWrong.png","","null"
"image-button-response","263","1524111","0.0-13.0-0.68","23","Low_HMMActual","","","","","","322.09999999962747","","","","Images/NewTrialBC.png","","2"
"image-button-response","264","1524413","0.0-13.0-1.68","23","Low_HMMActual","","","","","","null","","","","Images/WhiteBeadChoice.png","","null"
"image-button-response","265","1524915","0.0-13.0-2.68","23","Low_HMMActual","","","","","","null","","","","Images/WhiteBeadChoiceCorrect.png","","null"
"image-button-response","266","1525103","0.0-13.0-0.69","23","Low_HMMActual","","","","","","186.30000000074506","","","","Images/NewTrialWC.png","","2"
"image-button-response","267","1525407","0.0-13.0-1.69","23","Low_HMMActual","","","","","","null","","","","Images/WhiteBeadChoice.png","","null"
"image-button-response","268","1525908","0.0-13.0-2.69","23","Low_HMMActual","","","","","","null","","","","Images/WhiteBeadChoiceWrong.png","","null"
"image-button-response","269","1526064","0.0-13.0-0.70","23","Low_HMMActual","","","","","","154.09999999962747","","","","Images/NewTrialBC.png","","2"
"image-button-response","270","1526366","0.0-13.0-1.70","23","Low_HMMActual","","","","","","null","","","","Images/WhiteBeadChoice.png","","null"
"image-button-response","271","1526868","0.0-13.0-2.70","23","Low_HMMActual","","","","","","null","","","","Images/WhiteBeadChoiceCorrect.png","","null"
"image-button-response","272","1527576","0.0-13.0-0.71","23","Low_HMMActual","","","","","","705.3999999985099","","","","Images/NewTrialWC.png","","2"
"image-button-response","273","1527877","0.0-13.0-1.71","23","Low_HMMActual","","","","","","null","","","","Images/WhiteBeadChoice.png","","null"
"image-button-response","274","1528379","0.0-13.0-2.71","23","Low_HMMActual","","","","","","null","","","","Images/WhiteBeadChoiceWrong.png","","null"
"image-button-response","275","1528480","0.0-13.0-0.72","23","Low_HMMActual","","","","","","99.59999999962747","","","","Images/NewTrialBC.png","","2"
"image-button-response","276","1528783","0.0-13.0-1.72","23","Low_HMMActual","","","","","","null","","","","Images/WhiteBeadChoice.png","","null"
"image-button-response","277","1529285","0.0-13.0-2.72","23","Low_HMMActual","","","","","","null","","","","Images/WhiteBeadChoiceCorrect.png","","null"
"image-button-response","278","1530512","0.0-13.0-0.73","23","Low_HMMActual","","","","","","1225.7999999988824","","","","Images/NewTrialWC.png","","2"
"image-button-response","279","1530814","0.0-13.0-1.73","23","Low_HMMActual","","","","","","null","","","","Images/WhiteBeadChoice.png","","null"
"image-button-response","280","1531315","0.0-13.0-2.73","23","Low_HMMActual","","","","","","457.6000000014901","","","","Images/WhiteBeadChoiceCorrect.png","","2"
"image-button-response","281","1532000","0.0-13.0-0.74","23","Low_HMMActual","","","","","","683.7999999988824","","","","Images/NewTrialWC.png","","2"
"image-button-response","282","1532302","0.0-13.0-1.74","23","Low_HMMActual","","","","","","null","","","","Images/WhiteBeadChoice.png","","null"
"image-button-response","283","1532804","0.0-13.0-2.74","23","Low_HMMActual","","","","","","null","","","","Images/WhiteBeadChoiceCorrect.png","","null"
"image-button-response","284","1532976","0.0-13.0-0.75","23","Low_HMMActual","","","","","","170","","","","Images/NewTrialWC.png","","2"
"image-button-response","285","1533278","0.0-13.0-1.75","23","Low_HMMActual","","","","","","null","","","","Images/WhiteBeadChoice.png","","null"
"image-button-response","286","1533780","0.0-13.0-2.75","23","Low_HMMActual","","","","","","null","","","","Images/WhiteBeadChoiceCorrect.png","","null"
"image-button-response","287","1533968","0.0-13.0-0.76","23","Low_HMMActual","","","","","","186.59999999962747","","","","Images/NewTrialWC.png","","2"
"image-button-response","288","1534270","0.0-13.0-1.76","23","Low_HMMActual","","","","","","null","","","","Images/WhiteBeadChoice.png","","null"
"image-button-response","289","1534773","0.0-13.0-2.76","23","Low_HMMActual","","","","","","null","","","","Images/WhiteBeadChoiceCorrect.png","","null"
"image-button-response","290","1534881","0.0-13.0-0.77","23","Low_HMMActual","","","","","","106.29999999888241","","","","Images/NewTrialWC.png","","2"
"image-button-response","291","1535184","0.0-13.0-1.77","23","Low_HMMActual","","","","","","null","","","","Images/WhiteBeadChoice.png","","null"
"image-button-response","292","1535686","0.0-13.0-2.77","23","Low_HMMActual","","","","","","null","","","","Images/WhiteBeadChoiceCorrect.png","","null"
"image-button-response","293","1536305","0.0-13.0-0.78","23","Low_HMMActual","","","","","","614.2000000011176","","","","Images/NewTrialWC.png","","2"
"image-button-response","294","1536606","0.0-13.0-1.78","23","Low_HMMActual","","","","","","null","","","","Images/WhiteBeadChoice.png","","null"
"image-button-response","295","1537109","0.0-13.0-2.78","23","Low_HMMActual","","","","","","null","","","","Images/WhiteBeadChoiceCorrect.png","","null"
"image-button-response","296","1537649","0.0-13.0-0.79","23","Low_HMMActual","","","","","","538.5999999996275","","","","Images/NewTrialWC.png","","2"
"image-button-response","297","1537951","0.0-13.0-1.79","23","Low_HMMActual","","","","","","null","","","","Images/WhiteBeadChoice.png","","null"
"image-button-response","298","1538454","0.0-13.0-2.79","23","Low_HMMActual","","","","","","488.19999999925494","","","","Images/WhiteBeadChoiceCorrect.png","","2"
"image-button-response","299","1538953","0.0-13.0-0.80","23","Low_HMMActual","","","","","","497.5","","","","Images/NewTrialWC.png","","2"
"image-button-response","300","1539256","0.0-13.0-1.80","23","Low_HMMActual","","","","","","null","","","","Images/WhiteBeadChoice.png","","null"
"image-button-response","301","1539760","0.0-13.0-2.80","23","Low_HMMActual","","","","","","null","","","","Images/WhiteBeadChoiceWrong.png","","null"
"image-button-response","302","1540250","0.0-13.0-0.81","23","Low_HMMActual","","","","","","487.19999999925494","","","","Images/NewTrialBC.png","","2"
"image-button-response","303","1540556","0.0-13.0-1.81","23","Low_HMMActual","","","","","","null","","","","Images/WhiteBeadChoice.png","","null"
"image-button-response","304","1541058","0.0-13.0-2.81","23","Low_HMMActual","","","","","","null","","","","Images/WhiteBeadChoiceWrong.png","","null"
"image-button-response","305","1541570","0.0-13.0-0.82","23","Low_HMMActual","","","","","","510.2999999988824","","","","Images/NewTrialBC.png","","3"
"image-button-response","306","1541872","0.0-13.0-1.82","23","Low_HMMActual","","","","","","null","","","","Images/WhiteBeadChoice.png","","null"
"image-button-response","307","1542374","0.0-13.0-2.82","23","Low_HMMActual","","","","","","null","","","","Images/WhiteBeadChoiceWrong.png","","null"
"image-button-response","308","1542658","0.0-13.0-0.83","23","Low_HMMActual","","","","","","282.5","","","","Images/NewTrialBC.png","","0"
"image-button-response","309","1542960","0.0-13.0-1.83","23","Low_HMMActual","","","","","","null","","","","Images/BlackBeadChoice.png","","null"
"image-button-response","310","1543463","0.0-13.0-2.83","23","Low_HMMActual","","","","","","null","","","","Images/BlackBeadChoiceWrong.png","","null"
"image-button-response","311","1544074","0.0-13.0-0.84","23","Low_HMMActual","","","","","","609.7000000011176","","","","Images/NewTrialWC.png","","0"
"image-button-response","312","1544376","0.0-13.0-1.84","23","Low_HMMActual","","","","","","null","","","","Images/BlackBeadChoice.png","","null"
"image-button-response","313","1544877","0.0-13.0-2.84","23","Low_HMMActual","","","","","","null","","","","Images/BlackBeadChoiceWrong.png","","null"
"image-button-response","314","1545026","0.0-13.0-0.85","23","Low_HMMActual","","","","","","147.40000000037253","","","","Images/NewTrialWC.png","","0"
"image-button-response","315","1545328","0.0-13.0-1.85","23","Low_HMMActual","","","","","","null","","","","Images/BlackBeadChoice.png","","null"
"image-button-response","316","1545829","0.0-13.0-2.85","23","Low_HMMActual","","","","","","null","","","","Images/BlackBeadChoiceCorrect.png","","null"
"image-button-response","317","1546402","0.0-13.0-0.86","23","Low_HMMActual","","","","","","571.3000000007451","","","","Images/NewTrialBC.png","","0"
"image-button-response","318","1546703","0.0-13.0-1.86","23","Low_HMMActual","","","","","","null","","","","Images/BlackBeadChoice.png","","null"
"image-button-response","319","1547206","0.0-13.0-2.86","23","Low_HMMActual","","","","","","null","","","","Images/BlackBeadChoiceWrong.png","","null"
"image-button-response","320","1547842","0.0-13.0-0.87","23","Low_HMMActual","","","","","","633.3000000007451","","","","Images/NewTrialWC.png","","0"
"image-button-response","321","1548145","0.0-13.0-1.87","23","Low_HMMActual","","","","","","null","","","","Images/BlackBeadChoice.png","","null"
"image-button-response","322","1548647","0.0-13.0-2.87","23","Low_HMMActual","","","","","","null","","","","Images/BlackBeadChoiceCorrect.png","","null"
"image-button-response","323","1548834","0.0-13.0-0.88","23","Low_HMMActual","","","","","","182.59999999962747","","","","Images/NewTrialBC.png","","0"
"image-button-response","324","1549136","0.0-13.0-1.88","23","Low_HMMActual","","","","","","null","","","","Images/BlackBeadChoice.png","","null"
"image-button-response","325","1549646","0.0-13.0-2.88","23","Low_HMMActual","","","","","","null","","","","Images/BlackBeadChoiceWrong.png","","null"
"image-button-response","326","1550034","0.0-13.0-0.89","23","Low_HMMActual","","","","","","387.19999999925494","","","","Images/NewTrialWC.png","","0"
"image-button-response","327","1550336","0.0-13.0-1.89","23","Low_HMMActual","","","","","","null","","","","Images/BlackBeadChoice.png","","null"
"image-button-response","328","1550838","0.0-13.0-2.89","23","Low_HMMActual","","","","","","null","","","","Images/BlackBeadChoiceWrong.png","","null"
"image-button-response","329","1552003","0.0-13.0-0.90","23","Low_HMMActual","","","","","","1162.800000000745","","","","Images/NewTrialWC.png","","1"
"image-button-response","330","1552305","0.0-13.0-1.90","23","Low_HMMActual","","","","","","null","","","","Images/BlackBeadChoice.png","","null"
"image-button-response","331","1552808","0.0-13.0-2.90","23","Low_HMMActual","","","","","","null","","","","Images/BlackBeadChoiceCorrect.png","","null"
"image-button-response","332","1554811","0.0-13.0-0.91","23","Low_HMMActual","","","","","","2001.5","","","","Images/NewTrialBC.png","","0"
"image-button-response","333","1555115","0.0-13.0-1.91","23","Low_HMMActual","","","","","","null","","","","Images/BlackBeadChoice.png","","null"
"image-button-response","334","1555617","0.0-13.0-2.91","23","Low_HMMActual","","","","","","null","","","","Images/BlackBeadChoiceWrong.png","","null"
"image-button-response","335","1556163","0.0-13.0-0.92","23","Low_HMMActual","","","","","","544.5999999996275","","","","Images/NewTrialWC.png","","0"
"image-button-response","336","1556466","0.0-13.0-1.92","23","Low_HMMActual","","","","","","null","","","","Images/BlackBeadChoice.png","","null"
"image-button-response","337","1556968","0.0-13.0-2.92","23","Low_HMMActual","","","","","","null","","","","Images/BlackBeadChoiceCorrect.png","","null"
"image-button-response","338","1557340","0.0-13.0-0.93","23","Low_HMMActual","","","","","","370.5","","","","Images/NewTrialBC.png","","0"
"image-button-response","339","1557643","0.0-13.0-1.93","23","Low_HMMActual","","","","","","null","","","","Images/BlackBeadChoice.png","","null"
"image-button-response","340","1558146","0.0-13.0-2.93","23","Low_HMMActual","","","","","","null","","","","Images/BlackBeadChoiceCorrect.png","","null"
"image-button-response","341","1558788","0.0-13.0-0.94","23","Low_HMMActual","","","","","","640.5","","","","Images/NewTrialBC.png","","0"
"image-button-response","342","1559089","0.0-13.0-1.94","23","Low_HMMActual","","","","","","null","","","","Images/BlackBeadChoice.png","","null"
"image-button-response","343","1559592","0.0-13.0-2.94","23","Low_HMMActual","","","","","","null","","","","Images/BlackBeadChoiceCorrect.png","","null"
"image-button-response","344","1560108","0.0-13.0-0.95","23","Low_HMMActual","","","","","","514.5999999996275","","","","Images/NewTrialBC.png","","0"
"image-button-response","345","1560410","0.0-13.0-1.95","23","Low_HMMActual","","","","","","null","","","","Images/BlackBeadChoice.png","","null"
"image-button-response","346","1560913","0.0-13.0-2.95","23","Low_HMMActual","","","","","","null","","","","Images/BlackBeadChoiceCorrect.png","","null"
"image-button-response","347","1561700","0.0-13.0-0.96","23","Low_HMMActual","","","","","","785.2999999988824","","","","Images/NewTrialBC.png","","0"
"image-button-response","348","1562005","0.0-13.0-1.96","23","Low_HMMActual","","","","","","null","","","","Images/BlackBeadChoice.png","","null"
"image-button-response","349","1562507","0.0-13.0-2.96","23","Low_HMMActual","","","","","","null","","","","Images/BlackBeadChoiceWrong.png","","null"
"image-button-response","350","1562724","0.0-13.0-0.97","23","Low_HMMActual","","","","","","216.2000000011176","","","","Images/NewTrialWC.png","","0"
"image-button-response","351","1563026","0.0-13.0-1.97","23","Low_HMMActual","","","","","","null","","","","Images/BlackBeadChoice.png","","null"
"image-button-response","352","1563529","0.0-13.0-2.97","23","Low_HMMActual","","","","","","null","","","","Images/BlackBeadChoiceWrong.png","","null"
"image-button-response","353","1564276","0.0-13.0-0.98","23","Low_HMMActual","","","","","","746","","","","Images/NewTrialWC.png","","1"
"image-button-response","354","1564580","0.0-13.0-1.98","23","Low_HMMActual","","","","","","null","","","","Images/BlackBeadChoice.png","","null"
"image-button-response","355","1565083","0.0-13.0-2.98","23","Low_HMMActual","","","","","","null","","","","Images/BlackBeadChoiceWrong.png","","null"
"image-button-response","356","1565684","0.0-13.0-0.99","23","Low_HMMActual","","","","","","599.2999999988824","","","","Images/NewTrialWC.png","","2"
"image-button-response","357","1565998","0.0-13.0-1.99","23","Low_HMMActual","","","","","","null","","","","Images/WhiteBeadChoice.png","","null"
"image-button-response","358","1566499","0.0-13.0-2.99","23","Low_HMMActual","","","","","","null","","","","Images/WhiteBeadChoiceCorrect.png","","null"
"image-button-response","359","1567149","0.0-13.0-0.100","23","Low_HMMActual","","","","","","648.3000000007451","","","","Images/NewTrialWC.png","","2"
"image-button-response","360","1567451","0.0-13.0-1.100","23","Low_HMMActual","","","","","","null","","","","Images/WhiteBeadChoice.png","","null"
"image-button-response","361","1567954","0.0-13.0-2.100","23","Low_HMMActual","","","","","","null","","","","Images/WhiteBeadChoiceWrong.png","","null"
"image-button-response","362","1568149","0.0-13.0-0.101","23","Low_HMMActual","","","","","","193.69999999925494","","","","Images/NewTrialBC.png","","2"
"image-button-response","363","1568461","0.0-13.0-1.101","23","Low_HMMActual","","","","","","null","","","","Images/WhiteBeadChoice.png","","null"
"image-button-response","364","1568963","0.0-13.0-2.101","23","Low_HMMActual","","","","","","446.30000000074506","","","","Images/WhiteBeadChoiceCorrect.png","","2"
"image-button-response","365","1569453","0.0-13.0-0.102","23","Low_HMMActual","","","","","","488.40000000037253","","","","Images/NewTrialWC.png","","2"
"image-button-response","366","1569757","0.0-13.0-1.102","23","Low_HMMActual","","","","","","null","","","","Images/WhiteBeadChoice.png","","null"
"image-button-response","367","1570258","0.0-13.0-2.102","23","Low_HMMActual","","","","","","null","","","","Images/WhiteBeadChoiceWrong.png","","null"
"image-button-response","368","1570709","0.0-13.0-0.103","23","Low_HMMActual","","","","","","449.5","","","","Images/NewTrialBC.png","","2"
"image-button-response","369","1571011","0.0-13.0-1.103","23","Low_HMMActual","","","","","","null","","","","Images/WhiteBeadChoice.png","","null"
"image-button-response","370","1571513","0.0-13.0-2.103","23","Low_HMMActual","","","","","","497","","","","Images/WhiteBeadChoiceWrong.png","","2"
"image-button-response","371","1571973","0.0-13.0-0.104","23","Low_HMMActual","","","","","","454.59999999962747","","","","Images/NewTrialBC.png","","2"
"image-button-response","372","1572276","0.0-13.0-1.104","23","Low_HMMActual","","","","","","null","","","","Images/WhiteBeadChoice.png","","null"
"image-button-response","373","1572778","0.0-13.0-2.104","23","Low_HMMActual","","","","","","null","","","","Images/WhiteBeadChoiceWrong.png","","null"
"image-button-response","374","1572918","0.0-13.0-0.105","23","Low_HMMActual","","","","","","138.5","","","","Images/NewTrialBC.png","","2"
"image-button-response","375","1573220","0.0-13.0-1.105","23","Low_HMMActual","","","","","","null","","","","Images/WhiteBeadChoice.png","","null"
"image-button-response","376","1573721","0.0-13.0-2.105","23","Low_HMMActual","","","","","","null","","","","Images/WhiteBeadChoiceWrong.png","","null"
"image-button-response","377","1574606","0.0-13.0-0.106","23","Low_HMMActual","","","","","","882.7000000011176","","","","Images/NewTrialBC.png","","0"
"image-button-response","378","1574908","0.0-13.0-1.106","23","Low_HMMActual","","","","","","null","","","","Images/BlackBeadChoice.png","","null"
"image-button-response","379","1575410","0.0-13.0-2.106","23","Low_HMMActual","","","","","","481.19999999925494","","","","Images/BlackBeadChoiceCorrect.png","","0"
"image-button-response","380","1576158","0.0-13.0-0.107","23","Low_HMMActual","","","","","","746.6999999992549","","","","Images/NewTrialBC.png","","0"
"image-button-response","381","1576460","0.0-13.0-1.107","23","Low_HMMActual","","","","","","null","","","","Images/BlackBeadChoice.png","","null"
"image-button-response","382","1576965","0.0-13.0-2.107","23","Low_HMMActual","","","","","","null","","","","Images/BlackBeadChoiceCorrect.png","","null"
"image-button-response","383","1577142","0.0-13.0-0.108","23","Low_HMMActual","","","","","","176","","","","Images/NewTrialBC.png","","0"
"image-button-response","384","1577444","0.0-13.0-1.108","23","Low_HMMActual","","","","","","null","","","","Images/BlackBeadChoice.png","","null"
"image-button-response","385","1577945","0.0-13.0-2.108","23","Low_HMMActual","","","","","","null","","","","Images/BlackBeadChoiceCorrect.png","","null"
"image-button-response","386","1578446","0.0-13.0-0.109","23","Low_HMMActual","","","","","","499.5","","","","Images/NewTrialBC.png","","0"
"image-button-response","387","1578748","0.0-13.0-1.109","23","Low_HMMActual","","","","","","null","","","","Images/BlackBeadChoice.png","","null"
"image-button-response","388","1579252","0.0-13.0-2.109","23","Low_HMMActual","","","","","","null","","","","Images/BlackBeadChoiceCorrect.png","","null"
"image-button-response","389","1579502","0.0-13.0-0.110","23","Low_HMMActual","","","","","","247.80000000074506","","","","Images/NewTrialBC.png","","0"
"image-button-response","390","1579804","0.0-13.0-1.110","23","Low_HMMActual","","","","","","null","","","","Images/BlackBeadChoice.png","","null"
"image-button-response","391","1580306","0.0-13.0-2.110","23","Low_HMMActual","","","","","","null","","","","Images/BlackBeadChoiceCorrect.png","","null"
"image-button-response","392","1580575","0.0-13.0-0.111","23","Low_HMMActual","","","","","","266.40000000037253","","","","Images/NewTrialBC.png","","0"
"image-button-response","393","1580876","0.0-13.0-1.111","23","Low_HMMActual","","","","","","null","","","","Images/BlackBeadChoice.png","","null"
"image-button-response","394","1581378","0.0-13.0-2.111","23","Low_HMMActual","","","","","","null","","","","Images/BlackBeadChoiceCorrect.png","","null"
"image-button-response","395","1581551","0.0-13.0-0.112","23","Low_HMMActual","","","","","","170.80000000074506","","","","Images/NewTrialBC.png","","0"
"image-button-response","396","1581853","0.0-13.0-1.112","23","Low_HMMActual","","","","","","null","","","","Images/BlackBeadChoice.png","","null"
"image-button-response","397","1582356","0.0-13.0-2.112","23","Low_HMMActual","","","","","","null","","","","Images/BlackBeadChoiceCorrect.png","","null"
"image-button-response","398","1582591","0.0-13.0-0.113","23","Low_HMMActual","","","","","","232.80000000074506","","","","Images/NewTrialBC.png","","0"
"image-button-response","399","1582893","0.0-13.0-1.113","23","Low_HMMActual","","","","","","null","","","","Images/BlackBeadChoice.png","","null"
"image-button-response","400","1583394","0.0-13.0-2.113","23","Low_HMMActual","","","","","","null","","","","Images/BlackBeadChoiceWrong.png","","null"
"image-button-response","401","1585119","0.0-13.0-0.114","23","Low_HMMActual","","","","","","1724","","","","Images/NewTrialWC.png","","1"
"image-button-response","402","1585421","0.0-13.0-1.114","23","Low_HMMActual","","","","","","null","","","","Images/BlackBeadChoice.png","","null"
"image-button-response","403","1585923","0.0-13.0-2.114","23","Low_HMMActual","","","","","","null","","","","Images/BlackBeadChoiceCorrect.png","","null"
"image-button-response","404","1586439","0.0-13.0-0.115","23","Low_HMMActual","","","","","","514.3000000007451","","","","Images/NewTrialBC.png","","0"
"image-button-response","405","1586741","0.0-13.0-1.115","23","Low_HMMActual","","","","","","null","","","","Images/BlackBeadChoice.png","","null"
"image-button-response","406","1587243","0.0-13.0-2.115","23","Low_HMMActual","","","","","","null","","","","Images/BlackBeadChoiceCorrect.png","","null"
"image-button-response","407","1587824","0.0-13.0-0.116","23","Low_HMMActual","","","","","","577.6000000014901","","","","Images/NewTrialBC.png","","0"
"image-button-response","408","1588125","0.0-13.0-1.116","23","Low_HMMActual","","","","","","null","","","","Images/BlackBeadChoice.png","","null"
"image-button-response","409","1588627","0.0-13.0-2.116","23","Low_HMMActual","","","","","","null","","","","Images/BlackBeadChoiceWrong.png","","null"
"image-button-response","410","1589720","0.0-13.0-0.117","23","Low_HMMActual","","","","","","1087.0999999996275","","","","Images/NewTrialWC.png","","2"
"image-button-response","411","1590023","0.0-13.0-1.117","23","Low_HMMActual","","","","","","null","","","","Images/WhiteBeadChoice.png","","null"
"image-button-response","412","1590526","0.0-13.0-2.117","23","Low_HMMActual","","","","","","null","","","","Images/WhiteBeadChoiceWrong.png","","null"
"image-button-response","413","1591072","0.0-13.0-0.118","23","Low_HMMActual","","","","","","544.7999999988824","","","","Images/NewTrialBC.png","","0"
"image-button-response","414","1591374","0.0-13.0-1.118","23","Low_HMMActual","","","","","","null","","","","Images/BlackBeadChoice.png","","null"
"image-button-response","415","1591876","0.0-13.0-2.118","23","Low_HMMActual","","","","","","null","","","","Images/BlackBeadChoiceWrong.png","","null"
"image-button-response","416","1592064","0.0-13.0-0.119","23","Low_HMMActual","","","","","","185.2000000011176","","","","Images/NewTrialWC.png","","0"
"image-button-response","417","1592365","0.0-13.0-1.119","23","Low_HMMActual","","","","","","null","","","","Images/BlackBeadChoice.png","","null"
"image-button-response","418","1592867","0.0-13.0-2.119","23","Low_HMMActual","","","","","","null","","","","Images/BlackBeadChoiceCorrect.png","","null"
"image-button-response","419","1593521","0.0-13.0-0.120","23","Low_HMMActual","","","","","","652.0999999996275","","","","Images/NewTrialBC.png","","0"
"image-button-response","420","1593824","0.0-13.0-1.120","23","Low_HMMActual","","","","","","null","","","","Images/BlackBeadChoice.png","","null"
"image-button-response","421","1594325","0.0-13.0-2.120","23","Low_HMMActual","","","","","","null","","","","Images/BlackBeadChoiceCorrect.png","","null"
"image-button-response","422","1594968","0.0-13.0-0.121","23","Low_HMMActual","","","","","","638.2999999988824","","","","Images/NewTrialBC.png","","0"
"image-button-response","423","1595272","0.0-13.0-1.121","23","Low_HMMActual","","","","","","null","","","","Images/BlackBeadChoice.png","","null"
"image-button-response","424","1595774","0.0-13.0-2.121","23","Low_HMMActual","","","","","","null","","","","Images/BlackBeadChoiceCorrect.png","","null"
"image-button-response","425","1596377","0.0-13.0-0.122","23","Low_HMMActual","","","","","","600.8000000007451","","","","Images/NewTrialBC.png","","0"
"image-button-response","426","1596678","0.0-13.0-1.122","23","Low_HMMActual","","","","","","null","","","","Images/BlackBeadChoice.png","","null"
"image-button-response","427","1597182","0.0-13.0-2.122","23","Low_HMMActual","","","","","","439.40000000037253","","","","Images/BlackBeadChoiceCorrect.png","","0"
"image-button-response","428","1597633","0.0-13.0-0.123","23","Low_HMMActual","","","","","","449.59999999962747","","","","Images/NewTrialBC.png","","0"
"image-button-response","429","1597934","0.0-13.0-1.123","23","Low_HMMActual","","","","","","null","","","","Images/BlackBeadChoice.png","","null"
"image-button-response","430","1598436","0.0-13.0-2.123","23","Low_HMMActual","","","","","","null","","","","Images/BlackBeadChoiceWrong.png","","null"
"image-button-response","431","1599849","0.0-13.0-0.124","23","Low_HMMActual","","","","","","1412.0999999996275","","","","Images/NewTrialWC.png","","3"
"image-button-response","432","1600157","0.0-13.0-1.124","23","Low_HMMActual","","","","","","null","","","","Images/WhiteBeadChoice.png","","null"
"image-button-response","433","1600659","0.0-13.0-2.124","23","Low_HMMActual","","","","","","null","","","","Images/WhiteBeadChoiceCorrect.png","","null"
"image-button-response","434","1600809","0.0-13.0-0.125","23","Low_HMMActual","","","","","","147.60000000149012","","","","Images/NewTrialWC.png","","3"
"image-button-response","435","1601112","0.0-13.0-1.125","23","Low_HMMActual","","","","","","null","","","","Images/WhiteBeadChoice.png","","null"
"image-button-response","436","1601613","0.0-13.0-2.125","23","Low_HMMActual","","","","","","null","","","","Images/WhiteBeadChoiceWrong.png","","null"
"image-button-response","437","1605274","0.0-13.0-0.126","23","Low_HMMActual","","","","","","3657","","","","Images/NewTrialBC.png","","0"
"image-button-response","438","1605575","0.0-13.0-1.126","23","Low_HMMActual","","","","","","null","","","","Images/BlackBeadChoice.png","","null"
"image-button-response","439","1606077","0.0-13.0-2.126","23","Low_HMMActual","","","","","","null","","","","Images/BlackBeadChoiceWrong.png","","null"
"image-button-response","440","1606358","0.0-13.0-0.127","23","Low_HMMActual","","","","","","279.80000000074506","","","","Images/NewTrialWC.png","","0"
"image-button-response","441","1606660","0.0-13.0-1.127","23","Low_HMMActual","","","","","","null","","","","Images/BlackBeadChoice.png","","null"
"image-button-response","442","1607162","0.0-13.0-2.127","23","Low_HMMActual","","","","","","null","","","","Images/BlackBeadChoiceCorrect.png","","null"
"image-button-response","443","1607314","0.0-13.0-0.128","23","Low_HMMActual","","","","","","150.90000000037253","","","","Images/NewTrialBC.png","","0"
"image-button-response","444","1607617","0.0-13.0-1.128","23","Low_HMMActual","","","","","","null","","","","Images/BlackBeadChoice.png","","null"
"image-button-response","445","1608121","0.0-13.0-2.128","23","Low_HMMActual","","","","","","null","","","","Images/BlackBeadChoiceWrong.png","","null"
"image-button-response","446","1609755","0.0-13.0-0.129","23","Low_HMMActual","","","","","","1632.300000000745","","","","Images/NewTrialWC.png","","0"
"image-button-response","447","1610057","0.0-13.0-1.129","23","Low_HMMActual","","","","","","null","","","","Images/BlackBeadChoice.png","","null"
"image-button-response","448","1610558","0.0-13.0-2.129","23","Low_HMMActual","","","","","","null","","","","Images/BlackBeadChoiceCorrect.png","","null"
"image-button-response","449","1610731","0.0-13.0-0.130","23","Low_HMMActual","","","","","","170.90000000037253","","","","Images/NewTrialBC.png","","0"
"image-button-response","450","1611035","0.0-13.0-1.130","23","Low_HMMActual","","","","","","null","","","","Images/BlackBeadChoice.png","","null"
"image-button-response","451","1611538","0.0-13.0-2.130","23","Low_HMMActual","","","","","","null","","","","Images/BlackBeadChoiceWrong.png","","null"
"image-button-response","452","1611963","0.0-13.0-0.131","23","Low_HMMActual","","","","","","423","","","","Images/NewTrialWC.png","","0"
"image-button-response","453","1612266","0.0-13.0-1.131","23","Low_HMMActual","","","","","","null","","","","Images/BlackBeadChoice.png","","null"
"image-button-response","454","1612767","0.0-13.0-2.131","23","Low_HMMActual","","","","","","null","","","","Images/BlackBeadChoiceWrong.png","","null"
"image-button-response","455","1613339","0.0-13.0-0.132","23","Low_HMMActual","","","","","","570.2999999988824","","","","Images/NewTrialWC.png","","0"
"image-button-response","456","1613643","0.0-13.0-1.132","23","Low_HMMActual","","","","","","null","","","","Images/BlackBeadChoice.png","","null"
"image-button-response","457","1614144","0.0-13.0-2.132","23","Low_HMMActual","","","","","","null","","","","Images/BlackBeadChoiceWrong.png","","null"
"image-button-response","458","1614563","0.0-13.0-0.133","23","Low_HMMActual","","","","","","417.59999999962747","","","","Images/NewTrialWC.png","","2"
"image-button-response","459","1614866","0.0-13.0-1.133","23","Low_HMMActual","","","","","","null","","","","Images/WhiteBeadChoice.png","","null"
"image-button-response","460","1615368","0.0-13.0-2.133","23","Low_HMMActual","","","","","","null","","","","Images/WhiteBeadChoiceWrong.png","","null"
"image-button-response","461","1615476","0.0-13.0-0.134","23","Low_HMMActual","","","","","","106.5","","","","Images/NewTrialBC.png","","2"
"image-button-response","462","1615778","0.0-13.0-1.134","23","Low_HMMActual","","","","","","null","","","","Images/WhiteBeadChoice.png","","null"
"image-button-response","463","1616281","0.0-13.0-2.134","23","Low_HMMActual","","","","","","495.90000000037253","","","","Images/WhiteBeadChoiceWrong.png","","2"
"image-button-response","464","1616900","0.0-13.0-0.135","23","Low_HMMActual","","","","","","617.3999999985099","","","","Images/NewTrialBC.png","","2"
"image-button-response","465","1617202","0.0-13.0-1.135","23","Low_HMMActual","","","","","","null","","","","Images/WhiteBeadChoice.png","","null"
"image-button-response","466","1617704","0.0-13.0-2.135","23","Low_HMMActual","","","","","","null","","","","Images/WhiteBeadChoiceWrong.png","","null"
"image-button-response","467","1618180","0.0-13.0-0.136","23","Low_HMMActual","","","","","","474.90000000037253","","","","Images/NewTrialBC.png","","1"
"image-button-response","468","1618482","0.0-13.0-1.136","23","Low_HMMActual","","","","","","null","","","","Images/BlackBeadChoice.png","","null"
"image-button-response","469","1618984","0.0-13.0-2.136","23","Low_HMMActual","","","","","","null","","","","Images/BlackBeadChoiceWrong.png","","null"
"image-button-response","470","1619556","0.0-13.0-0.137","23","Low_HMMActual","","","","","","570.5999999996275","","","","Images/NewTrialWC.png","","1"
"image-button-response","471","1619858","0.0-13.0-1.137","23","Low_HMMActual","","","","","","null","","","","Images/BlackBeadChoice.png","","null"
"image-button-response","472","1620362","0.0-13.0-2.137","23","Low_HMMActual","","","","","","null","","","","Images/BlackBeadChoiceWrong.png","","null"
"image-button-response","473","1621100","0.0-13.0-0.138","23","Low_HMMActual","","","","","","737","","","","Images/NewTrialWC.png","","3"
"image-button-response","474","1621401","0.0-13.0-1.138","23","Low_HMMActual","","","","","","null","","","","Images/WhiteBeadChoice.png","","null"
"image-button-response","475","1621903","0.0-13.0-2.138","23","Low_HMMActual","","","","","","null","","","","Images/WhiteBeadChoiceWrong.png","","null"
"image-button-response","476","1622908","0.0-13.0-0.139","23","Low_HMMActual","","","","","","999.7000000011176","","","","Images/NewTrialBC.png","","3"
"image-button-response","477","1623210","0.0-13.0-1.139","23","Low_HMMActual","","","","","","null","","","","Images/WhiteBeadChoice.png","","null"
"image-button-response","478","1623712","0.0-13.0-2.139","23","Low_HMMActual","","","","","","null","","","","Images/WhiteBeadChoiceWrong.png","","null"
"image-button-response","479","1624180","0.0-13.0-0.140","23","Low_HMMActual","","","","","","467.59999999962747","","","","Images/NewTrialBC.png","","1"
"image-button-response","480","1624482","0.0-13.0-1.140","23","Low_HMMActual","","","","","","null","","","","Images/BlackBeadChoice.png","","null"
"image-button-response","481","1624986","0.0-13.0-2.140","23","Low_HMMActual","","","","","","null","","","","Images/BlackBeadChoiceCorrect.png","","null"
"image-button-response","482","1625141","0.0-13.0-0.141","23","Low_HMMActual","","","","","","153.10000000149012","","","","Images/NewTrialBC.png","","1"
"image-button-response","483","1625443","0.0-13.0-1.141","23","Low_HMMActual","","","","","","null","","","","Images/BlackBeadChoice.png","","null"
"image-button-response","484","1625945","0.0-13.0-2.141","23","Low_HMMActual","","","","","","null","","","","Images/BlackBeadChoiceWrong.png","","null"
"image-button-response","485","1626133","0.0-13.0-0.142","23","Low_HMMActual","","","","","","186.10000000149012","","","","Images/NewTrialWC.png","","1"
"image-button-response","486","1626435","0.0-13.0-1.142","23","Low_HMMActual","","","","","","null","","","","Images/BlackBeadChoice.png","","null"
"image-button-response","487","1626938","0.0-13.0-2.142","23","Low_HMMActual","","","","","","494.5","","","","Images/BlackBeadChoiceCorrect.png","","1"
"image-button-response","488","1627573","0.0-13.0-0.143","23","Low_HMMActual","","","","","","633.1000000014901","","","","Images/NewTrialBC.png","","1"
"image-button-response","489","1627876","0.0-13.0-1.143","23","Low_HMMActual","","","","","","null","","","","Images/BlackBeadChoice.png","","null"
"image-button-response","490","1628380","0.0-13.0-2.143","23","Low_HMMActual","","","","","","366.2999999988824","","","","Images/BlackBeadChoiceCorrect.png","","1"
"image-button-response","491","1628774","0.0-13.0-0.144","23","Low_HMMActual","","","","","","391.6000000014901","","","","Images/NewTrialBC.png","","1"
"image-button-response","492","1629077","0.0-13.0-1.144","23","Low_HMMActual","","","","","","null","","","","Images/BlackBeadChoice.png","","null"
"image-button-response","493","1629578","0.0-13.0-2.144","23","Low_HMMActual","","","","","","451.40000000037253","","","","Images/BlackBeadChoiceCorrect.png","","1"
"image-button-response","494","1630005","0.0-13.0-0.145","23","Low_HMMActual","","","","","","425.5","","","","Images/NewTrialBC.png","","1"
"image-button-response","495","1630309","0.0-13.0-1.145","23","Low_HMMActual","","","","","","null","","","","Images/BlackBeadChoice.png","","null"
"image-button-response","496","1630811","0.0-13.0-2.145","23","Low_HMMActual","","","","","","359.09999999962747","","","","Images/BlackBeadChoiceCorrect.png","","1"
"image-button-response","497","1631126","0.0-13.0-0.146","23","Low_HMMActual","","","","","","312.5","","","","Images/NewTrialBC.png","","1"
"image-button-response","498","1631429","0.0-13.0-1.146","23","Low_HMMActual","","","","","","null","","","","Images/BlackBeadChoice.png","","null"
"image-button-response","499","1631932","0.0-13.0-2.146","23","Low_HMMActual","","","","","","359.09999999962747","","","","Images/BlackBeadChoiceCorrect.png","","1"
"image-button-response","500","1632110","0.0-13.0-0.147","23","Low_HMMActual","","","","","","176.2000000011176","","","","Images/NewTrialBC.png","","1"
"image-button-response","501","1632413","0.0-13.0-1.147","23","Low_HMMActual","","","","","","null","","","","Images/BlackBeadChoice.png","","null"
"image-button-response","502","1632914","0.0-13.0-2.147","23","Low_HMMActual","","","","","","415.90000000037253","","","","Images/BlackBeadChoiceCorrect.png","","1"
"image-button-response","503","1633374","0.0-13.0-0.148","23","Low_HMMActual","","","","","","457.80000000074506","","","","Images/NewTrialBC.png","","1"
"image-button-response","504","1633686","0.0-13.0-1.148","23","Low_HMMActual","","","","","","null","","","","Images/BlackBeadChoice.png","","null"
"image-button-response","505","1634188","0.0-13.0-2.148","23","Low_HMMActual","","","","","","null","","","","Images/BlackBeadChoiceCorrect.png","","null"
"image-button-response","506","1634310","0.0-13.0-0.149","23","Low_HMMActual","","","","","","120.90000000037253","","","","Images/NewTrialBC.png","","1"
"image-button-response","507","1634612","0.0-13.0-1.149","23","Low_HMMActual","","","","","","null","","","","Images/BlackBeadChoice.png","","null"
"image-button-response","508","1635115","0.0-13.0-2.149","23","Low_HMMActual","","","","","","null","","","","Images/BlackBeadChoiceWrong.png","","null"
"image-button-response","509","1636070","0.0-13.0-0.150","23","Low_HMMActual","","","","","","953.5999999996275","","","","Images/NewTrialWC.png","","1"
"image-button-response","510","1636372","0.0-13.0-1.150","23","Low_HMMActual","","","","","","null","","","","Images/BlackBeadChoice.png","","null"
"image-button-response","511","1636874","0.0-13.0-2.150","23","Low_HMMActual","","","","","","null","","","","Images/BlackBeadChoiceCorrect.png","","null"
"image-button-response","512","1637006","0.0-13.0-0.151","23","Low_HMMActual","","","","","","127.60000000149012","","","","Images/NewTrialBC.png","","1"
"image-button-response","513","1637308","0.0-13.0-1.151","23","Low_HMMActual","","","","","","null","","","","Images/BlackBeadChoice.png","","null"
"image-button-response","514","1637811","0.0-13.0-2.151","23","Low_HMMActual","","","","","","null","","","","Images/BlackBeadChoiceWrong.png","","null"
"image-button-response","515","1638335","0.0-13.0-0.152","23","Low_HMMActual","","","","","","522.5","","","","Images/NewTrialWC.png","","1"
"image-button-response","516","1638637","0.0-13.0-1.152","23","Low_HMMActual","","","","","","null","","","","Images/BlackBeadChoice.png","","null"
"image-button-response","517","1639140","0.0-13.0-2.152","23","Low_HMMActual","","","","","","462.59999999962747","","","","Images/BlackBeadChoiceCorrect.png","","1"
"image-button-response","518","1639567","0.0-13.0-0.153","23","Low_HMMActual","","","","","","424.90000000037253","","","","Images/NewTrialBC.png","","1"
"image-button-response","519","1639870","0.0-13.0-1.153","23","Low_HMMActual","","","","","","null","","","","Images/BlackBeadChoice.png","","null"
"image-button-response","520","1640372","0.0-13.0-2.153","23","Low_HMMActual","","","","","","null","","","","Images/BlackBeadChoiceWrong.png","","null"
"image-button-response","521","1640911","0.0-13.0-0.154","23","Low_HMMActual","","","","","","537.2000000011176","","","","Images/NewTrialWC.png","","1"
"image-button-response","522","1641214","0.0-13.0-1.154","23","Low_HMMActual","","","","","","null","","","","Images/BlackBeadChoice.png","","null"
"image-button-response","523","1641716","0.0-13.0-2.154","23","Low_HMMActual","","","","","","null","","","","Images/BlackBeadChoiceCorrect.png","","null"
"image-button-response","524","1642007","0.0-13.0-0.155","23","Low_HMMActual","","","","","","290.09999999962747","","","","Images/NewTrialBC.png","","1"
"image-button-response","525","1642310","0.0-13.0-1.155","23","Low_HMMActual","","","","","","null","","","","Images/BlackBeadChoice.png","","null"
"image-button-response","526","1642814","0.0-13.0-2.155","23","Low_HMMActual","","","","","","null","","","","Images/BlackBeadChoiceWrong.png","","null"
"image-button-response","527","1643336","0.0-13.0-0.156","23","Low_HMMActual","","","","","","520.5999999996275","","","","Images/NewTrialWC.png","","1"
"image-button-response","528","1643648","0.0-13.0-1.156","23","Low_HMMActual","","","","","","null","","","","Images/BlackBeadChoice.png","","null"
"image-button-response","529","1644151","0.0-13.0-2.156","23","Low_HMMActual","","","","","","null","","","","Images/BlackBeadChoiceCorrect.png","","null"
"image-button-response","530","1644351","0.0-13.0-0.157","23","Low_HMMActual","","","","","","198.90000000037253","","","","Images/NewTrialBC.png","","1"
"image-button-response","531","1644656","0.0-13.0-1.157","23","Low_HMMActual","","","","","","null","","","","Images/BlackBeadChoice.png","","null"
"image-button-response","532","1645158","0.0-13.0-2.157","23","Low_HMMActual","","","","","","null","","","","Images/BlackBeadChoiceWrong.png","","null"
"image-button-response","533","1646776","0.0-13.0-0.158","23","Low_HMMActual","","","","","","1616.300000000745","","","","Images/NewTrialWC.png","","1"
"image-button-response","534","1647080","0.0-13.0-1.158","23","Low_HMMActual","","","","","","null","","","","Images/BlackBeadChoice.png","","null"
"image-button-response","535","1647582","0.0-13.0-2.158","23","Low_HMMActual","","","","","","null","","","","Images/BlackBeadChoiceWrong.png","","null"
"image-button-response","536","1648120","0.0-13.0-0.159","23","Low_HMMActual","","","","","","536.8000000007451","","","","Images/NewTrialWC.png","","3"
"image-button-response","537","1648421","0.0-13.0-1.159","23","Low_HMMActual","","","","","","null","","","","Images/WhiteBeadChoice.png","","null"
"image-button-response","538","1648924","0.0-13.0-2.159","23","Low_HMMActual","","","","","","null","","","","Images/WhiteBeadChoiceCorrect.png","","null"
"image-button-response","539","1650096","0.0-13.0-0.160","23","Low_HMMActual","","","","","","1170.7999999988824","","","","Images/NewTrialWC.png","","3"
"image-button-response","540","1650399","0.0-13.0-1.160","23","Low_HMMActual","","","","","","null","","","","Images/WhiteBeadChoice.png","","null"
"image-button-response","541","1650902","0.0-13.0-2.160","23","Low_HMMActual","","","","","","null","","","","Images/WhiteBeadChoiceCorrect.png","","null"
"image-button-response","542","1651400","0.0-13.0-0.161","23","Low_HMMActual","","","","","","495.2000000011176","","","","Images/NewTrialWC.png","","2"
"image-button-response","543","1651702","0.0-13.0-1.161","23","Low_HMMActual","","","","","","null","","","","Images/WhiteBeadChoice.png","","null"
"image-button-response","544","1652204","0.0-13.0-2.161","23","Low_HMMActual","","","","","","null","","","","Images/WhiteBeadChoiceCorrect.png","","null"
"image-button-response","545","1652408","0.0-13.0-0.162","23","Low_HMMActual","","","","","","202.90000000037253","","","","Images/NewTrialWC.png","","2"
"image-button-response","546","1652711","0.0-13.0-1.162","23","Low_HMMActual","","","","","","null","","","","Images/WhiteBeadChoice.png","","null"
"image-button-response","547","1653215","0.0-13.0-2.162","23","Low_HMMActual","","","","","","null","","","","Images/WhiteBeadChoiceCorrect.png","","null"
"image-button-response","548","1653649","0.0-13.0-0.163","23","Low_HMMActual","","","","","","427.30000000074506","","","","Images/NewTrialWC.png","","2"
"image-button-response","549","1653951","0.0-13.0-1.163","23","Low_HMMActual","","","","","","null","","","","Images/WhiteBeadChoice.png","","null"
"image-button-response","550","1654455","0.0-13.0-2.163","23","Low_HMMActual","","","","","","null","","","","Images/WhiteBeadChoiceCorrect.png","","null"
"image-button-response","551","1654689","0.0-13.0-0.164","23","Low_HMMActual","","","","","","232","","","","Images/NewTrialWC.png","","2"
"image-button-response","552","1654991","0.0-13.0-1.164","23","Low_HMMActual","","","","","","null","","","","Images/WhiteBeadChoice.png","","null"
"image-button-response","553","1655492","0.0-13.0-2.164","23","Low_HMMActual","","","","","","null","","","","Images/WhiteBeadChoiceWrong.png","","null"
"image-button-response","554","1655769","0.0-13.0-0.165","23","Low_HMMActual","","","","","","275.09999999962747","","","","Images/NewTrialBC.png","","2"
"image-button-response","555","1656072","0.0-13.0-1.165","23","Low_HMMActual","","","","","","null","","","","Images/WhiteBeadChoice.png","","null"
"image-button-response","556","1656574","0.0-13.0-2.165","23","Low_HMMActual","","","","","","null","","","","Images/WhiteBeadChoiceWrong.png","","null"
"image-button-response","557","1658489","0.0-13.0-0.166","23","Low_HMMActual","","","","","","1913.800000000745","","","","Images/NewTrialBC.png","","0"
"image-button-response","558","1658792","0.0-13.0-1.166","23","Low_HMMActual","","","","","","null","","","","Images/BlackBeadChoice.png","","null"
"image-button-response","559","1659294","0.0-13.0-2.166","23","Low_HMMActual","","","","","","null","","","","Images/BlackBeadChoiceWrong.png","","null"
"image-button-response","560","1659554","0.0-13.0-0.167","23","Low_HMMActual","","","","","","257.90000000037253","","","","Images/NewTrialWC.png","","0"
"image-button-response","561","1659857","0.0-13.0-1.167","23","Low_HMMActual","","","","","","null","","","","Images/BlackBeadChoice.png","","null"
"image-button-response","562","1660361","0.0-13.0-2.167","23","Low_HMMActual","","","","","","null","","","","Images/BlackBeadChoiceCorrect.png","","null"
"image-button-response","563","1660481","0.0-13.0-0.168","23","Low_HMMActual","","","","","","118.80000000074506","","","","Images/NewTrialBC.png","","0"
"image-button-response","564","1660784","0.0-13.0-1.168","23","Low_HMMActual","","","","","","null","","","","Images/BlackBeadChoice.png","","null"
"image-button-response","565","1661286","0.0-13.0-2.168","23","Low_HMMActual","","","","","","472.40000000037253","","","","Images/BlackBeadChoiceCorrect.png","","0"
"image-button-response","566","1661706","0.0-13.0-0.169","23","Low_HMMActual","","","","","","413.69999999925494","","","","Images/NewTrialBC.png","","0"
"image-button-response","567","1662009","0.0-13.0-1.169","23","Low_HMMActual","","","","","","null","","","","Images/BlackBeadChoice.png","","null"
"image-button-response","568","1662510","0.0-13.0-2.169","23","Low_HMMActual","","","","","","null","","","","Images/BlackBeadChoiceWrong.png","","null"
"image-button-response","569","1662634","0.0-13.0-0.170","23","Low_HMMActual","","","","","","122","","","","Images/NewTrialWC.png","","0"
"image-button-response","570","1662935","0.0-13.0-1.170","23","Low_HMMActual","","","","","","null","","","","Images/BlackBeadChoice.png","","null"
"image-button-response","571","1663438","0.0-13.0-2.170","23","Low_HMMActual","","","","","","null","","","","Images/BlackBeadChoiceWrong.png","","null"
"image-button-response","572","1663962","0.0-13.0-0.171","23","Low_HMMActual","","","","","","522.4000000003725","","","","Images/NewTrialWC.png","","0"
"image-button-response","573","1664264","0.0-13.0-1.171","23","Low_HMMActual","","","","","","null","","","","Images/BlackBeadChoice.png","","null"
"image-button-response","574","1664766","0.0-13.0-2.171","23","Low_HMMActual","","","","","","null","","","","Images/BlackBeadChoiceWrong.png","","null"
"image-button-response","575","1665106","0.0-13.0-0.172","23","Low_HMMActual","","","","","","338.09999999962747","","","","Images/NewTrialWC.png","","2"
"image-button-response","576","1665409","0.0-13.0-1.172","23","Low_HMMActual","","","","","","null","","","","Images/WhiteBeadChoice.png","","null"
"image-button-response","577","1665912","0.0-13.0-2.172","23","Low_HMMActual","","","","","","null","","","","Images/WhiteBeadChoiceWrong.png","","null"
"image-button-response","578","1667402","0.0-13.0-0.173","23","Low_HMMActual","","","","","","1488.800000000745","","","","Images/NewTrialBC.png","","2"
"image-button-response","579","1667706","0.0-13.0-1.173","23","Low_HMMActual","","","","","","null","","","","Images/WhiteBeadChoice.png","","null"
"image-button-response","580","1668207","0.0-13.0-2.173","23","Low_HMMActual","","","","","","null","","","","Images/WhiteBeadChoiceCorrect.png","","null"
"image-button-response","581","1668394","0.0-13.0-0.174","23","Low_HMMActual","","","","","","186.30000000074506","","","","Images/NewTrialWC.png","","2"
"image-button-response","582","1668696","0.0-13.0-1.174","23","Low_HMMActual","","","","","","null","","","","Images/WhiteBeadChoice.png","","null"
"image-button-response","583","1669198","0.0-13.0-2.174","23","Low_HMMActual","","","","","","null","","","","Images/WhiteBeadChoiceWrong.png","","null"
"image-button-response","584","1669891","0.0-13.0-0.175","23","Low_HMMActual","","","","","","690.7999999988824","","","","Images/NewTrialBC.png","","2"
"image-button-response","585","1670194","0.0-13.0-1.175","23","Low_HMMActual","","","","","","null","","","","Images/WhiteBeadChoice.png","","null"
"image-button-response","586","1670695","0.0-13.0-2.175","23","Low_HMMActual","","","","","","null","","","","Images/WhiteBeadChoiceWrong.png","","null"
"image-button-response","587","1671395","0.0-13.0-0.176","23","Low_HMMActual","","","","","","696.8000000007451","","","","Images/NewTrialBC.png","","0"
"image-button-response","588","1671697","0.0-13.0-1.176","23","Low_HMMActual","","","","","","null","","","","Images/BlackBeadChoice.png","","null"
"image-button-response","589","1672198","0.0-13.0-2.176","23","Low_HMMActual","","","","","","null","","","","Images/BlackBeadChoiceWrong.png","","null"
"image-button-response","590","1672331","0.0-13.0-0.177","23","Low_HMMActual","","","","","","131.90000000037253","","","","Images/NewTrialWC.png","","0"
"image-button-response","591","1672632","0.0-13.0-1.177","23","Low_HMMActual","","","","","","null","","","","Images/BlackBeadChoice.png","","null"
"image-button-response","592","1673134","0.0-13.0-2.177","23","Low_HMMActual","","","","","","393.69999999925494","","","","Images/BlackBeadChoiceWrong.png","","0"
"image-button-response","593","1674436","0.0-13.0-0.178","23","Low_HMMActual","","","","","","1299.0999999996275","","","","Images/NewTrialWC.png","","2"
"image-button-response","594","1674739","0.0-13.0-1.178","23","Low_HMMActual","","","","","","null","","","","Images/WhiteBeadChoice.png","","null"
"image-button-response","595","1675241","0.0-13.0-2.178","23","Low_HMMActual","","","","","","null","","","","Images/WhiteBeadChoiceCorrect.png","","null"
"image-button-response","596","1675515","0.0-13.0-0.179","23","Low_HMMActual","","","","","","272.5","","","","Images/NewTrialWC.png","","2"
"image-button-response","597","1675818","0.0-13.0-1.179","23","Low_HMMActual","","","","","","null","","","","Images/WhiteBeadChoice.png","","null"
"image-button-response","598","1676320","0.0-13.0-2.179","23","Low_HMMActual","","","","","","null","","","","Images/WhiteBeadChoiceCorrect.png","","null"
"image-button-response","599","1676508","0.0-13.0-0.180","23","Low_HMMActual","","","","","","185.59999999962747","","","","Images/NewTrialWC.png","","2"
"image-button-response","600","1676810","0.0-13.0-1.180","23","Low_HMMActual","","","","","","null","","","","Images/WhiteBeadChoice.png","","null"
"image-button-response","601","1677313","0.0-13.0-2.180","23","Low_HMMActual","","","","","","null","","","","Images/WhiteBeadChoiceCorrect.png","","null"
"image-button-response","602","1677812","0.0-13.0-0.181","23","Low_HMMActual","","","","","","497.40000000037253","","","","Images/NewTrialWC.png","","2"
"image-button-response","603","1678114","0.0-13.0-1.181","23","Low_HMMActual","","","","","","null","","","","Images/WhiteBeadChoice.png","","null"
"image-button-response","604","1678634","0.0-13.0-2.181","23","Low_HMMActual","","","","","","453.5","","","","Images/WhiteBeadChoiceWrong.png","","2"
"image-button-response","605","1682388","0.0-13.0-0.182","23","Low_HMMActual","","","","","","3752.9000000003725","","","","Images/NewTrialBC.png","","0"
"image-button-response","606","1682690","0.0-13.0-1.182","23","Low_HMMActual","","","","","","null","","","","Images/BlackBeadChoice.png","","null"
"image-button-response","607","1683191","0.0-13.0-2.182","23","Low_HMMActual","","","","","","null","","","","Images/BlackBeadChoiceWrong.png","","null"
"image-button-response","608","1684701","0.0-13.0-0.183","23","Low_HMMActual","","","","","","1506.5999999996275","","","","Images/NewTrialWC.png","","0"
"image-button-response","609","1685002","0.0-13.0-1.183","23","Low_HMMActual","","","","","","null","","","","Images/BlackBeadChoice.png","","null"
"image-button-response","610","1685503","0.0-13.0-2.183","23","Low_HMMActual","","","","","","null","","","","Images/BlackBeadChoiceCorrect.png","","null"
"image-button-response","611","1685653","0.0-13.0-0.184","23","Low_HMMActual","","","","","","147.90000000037253","","","","Images/NewTrialBC.png","","0"
"image-button-response","612","1685955","0.0-13.0-1.184","23","Low_HMMActual","","","","","","null","","","","Images/BlackBeadChoice.png","","null"
"image-button-response","613","1686456","0.0-13.0-2.184","23","Low_HMMActual","","","","","","null","","","","Images/BlackBeadChoiceCorrect.png","","null"
"image-button-response","614","1686653","0.0-13.0-0.185","23","Low_HMMActual","","","","","","195.2999999988824","","","","Images/NewTrialBC.png","","0"
"image-button-response","615","1686956","0.0-13.0-1.185","23","Low_HMMActual","","","","","","null","","","","Images/BlackBeadChoice.png","","null"
"image-button-response","616","1687458","0.0-13.0-2.185","23","Low_HMMActual","","","","","","null","","","","Images/BlackBeadChoiceCorrect.png","","null"
"image-button-response","617","1687573","0.0-13.0-0.186","23","Low_HMMActual","","","","","","113.39999999850988","","","","Images/NewTrialBC.png","","0"
"image-button-response","618","1687875","0.0-13.0-1.186","23","Low_HMMActual","","","","","","null","","","","Images/BlackBeadChoice.png","","null"
"image-button-response","619","1688377","0.0-13.0-2.186","23","Low_HMMActual","","","","","","null","","","","Images/BlackBeadChoiceWrong.png","","null"
"image-button-response","620","1689686","0.0-13.0-0.187","23","Low_HMMActual","","","","","","1307.6000000014901","","","","Images/NewTrialWC.png","","3"
"image-button-response","621","1689988","0.0-13.0-1.187","23","Low_HMMActual","","","","","","null","","","","Images/WhiteBeadChoice.png","","null"
"image-button-response","622","1690489","0.0-13.0-2.187","23","Low_HMMActual","","","","","","null","","","","Images/WhiteBeadChoiceCorrect.png","","null"
"image-button-response","623","1690981","0.0-13.0-0.188","23","Low_HMMActual","","","","","","490.09999999962747","","","","Images/NewTrialWC.png","","3"
"image-button-response","624","1691285","0.0-13.0-1.188","23","Low_HMMActual","","","","","","null","","","","Images/WhiteBeadChoice.png","","null"
"image-button-response","625","1691787","0.0-13.0-2.188","23","Low_HMMActual","","","","","","null","","","","Images/WhiteBeadChoiceCorrect.png","","null"
"image-button-response","626","1692078","0.0-13.0-0.189","23","Low_HMMActual","","","","","","288.5","","","","Images/NewTrialWC.png","","3"
"image-button-response","627","1692379","0.0-13.0-1.189","23","Low_HMMActual","","","","","","null","","","","Images/WhiteBeadChoice.png","","null"
"image-button-response","628","1692882","0.0-13.0-2.189","23","Low_HMMActual","","","","","","null","","","","Images/WhiteBeadChoiceCorrect.png","","null"
"image-button-response","629","1697074","0.0-13.0-0.190","23","Low_HMMActual","","","","","","4187.300000000745","","","","Images/NewTrialWC.png","","3"
"image-button-response","630","1697377","0.0-13.0-1.190","23","Low_HMMActual","","","","","","null","","","","Images/WhiteBeadChoice.png","","null"
"image-button-response","631","1697880","0.0-13.0-2.190","23","Low_HMMActual","","","","","","null","","","","Images/WhiteBeadChoiceCorrect.png","","null"
"image-button-response","632","1698375","0.0-13.0-0.191","23","Low_HMMActual","","","","","","492.2999999988824","","","","Images/NewTrialWC.png","","3"
"image-button-response","633","1698676","0.0-13.0-1.191","23","Low_HMMActual","","","","","","null","","","","Images/WhiteBeadChoice.png","","null"
"image-button-response","634","1699180","0.0-13.0-2.191","23","Low_HMMActual","","","","","","null","","","","Images/WhiteBeadChoiceCorrect.png","","null"
"image-button-response","635","1699727","0.0-13.0-0.192","23","Low_HMMActual","","","","","","545","","","","Images/NewTrialWC.png","","3"
"image-button-response","636","1700035","0.0-13.0-1.192","23","Low_HMMActual","","","","","","null","","","","Images/WhiteBeadChoice.png","","null"
"image-button-response","637","1700538","0.0-13.0-2.192","23","Low_HMMActual","","","","","","null","","","","Images/WhiteBeadChoiceCorrect.png","","null"
"image-button-response","638","1700695","0.0-13.0-0.193","23","Low_HMMActual","","","","","","155.30000000074506","","","","Images/NewTrialWC.png","","3"
"image-button-response","639","1700997","0.0-13.0-1.193","23","Low_HMMActual","","","","","","null","","","","Images/WhiteBeadChoice.png","","null"
"image-button-response","640","1701499","0.0-13.0-2.193","23","Low_HMMActual","","","","","","null","","","","Images/WhiteBeadChoiceWrong.png","","null"
"image-button-response","641","1702375","0.0-13.0-0.194","23","Low_HMMActual","","","","","","874.4000000003725","","","","Images/NewTrialBC.png","","1"
"image-button-response","642","1702676","0.0-13.0-1.194","23","Low_HMMActual","","","","","","null","","","","Images/BlackBeadChoice.png","","null"
"image-button-response","643","1703178","0.0-13.0-2.194","23","Low_HMMActual","","","","","","null","","","","Images/BlackBeadChoiceWrong.png","","null"
"image-button-response","644","1704055","0.0-13.0-0.195","23","Low_HMMActual","","","","","","876.0999999996275","","","","Images/NewTrialWC.png","","3"
"image-button-response","645","1704359","0.0-13.0-1.195","23","Low_HMMActual","","","","","","null","","","","Images/WhiteBeadChoice.png","","null"
"image-button-response","646","1704861","0.0-13.0-2.195","23","Low_HMMActual","","","","","","null","","","","Images/WhiteBeadChoiceCorrect.png","","null"
"image-button-response","647","1704973","0.0-13.0-0.196","23","Low_HMMActual","","","","","","105.5","","","","Images/NewTrialWC.png","","3"
"image-button-response","648","1705275","0.0-13.0-1.196","23","Low_HMMActual","","","","","","null","","","","Images/WhiteBeadChoice.png","","null"
"image-button-response","649","1705776","0.0-13.0-2.196","23","Low_HMMActual","","","","","","null","","","","Images/WhiteBeadChoiceCorrect.png","","null"
"image-button-response","650","1705927","0.0-13.0-0.197","23","Low_HMMActual","","","","","","149.80000000074506","","","","Images/NewTrialWC.png","","3"
"image-button-response","651","1706229","0.0-13.0-1.197","23","Low_HMMActual","","","","","","null","","","","Images/WhiteBeadChoice.png","","null"
"image-button-response","652","1706732","0.0-13.0-2.197","23","Low_HMMActual","","","","","","null","","","","Images/WhiteBeadChoiceCorrect.png","","null"
"image-button-response","653","1707432","0.0-13.0-0.198","23","Low_HMMActual","","","","","","697.8999999985099","","","","Images/NewTrialWC.png","","2"
"image-button-response","654","1707733","0.0-13.0-1.198","23","Low_HMMActual","","","","","","null","","","","Images/WhiteBeadChoice.png","","null"
"image-button-response","655","1708235","0.0-13.0-2.198","23","Low_HMMActual","","","","","","425.80000000074506","","","","Images/WhiteBeadChoiceCorrect.png","","2"
"image-button-response","656","1708664","0.0-13.0-0.199","23","Low_HMMActual","","","","","","427.5","","","","Images/NewTrialWC.png","","2"
"image-button-response","657","1708966","0.0-13.0-1.199","23","Low_HMMActual","","","","","","null","","","","Images/WhiteBeadChoice.png","","null"
"image-button-response","658","1709467","0.0-13.0-2.199","23","Low_HMMActual","","","","","","null","","","","Images/WhiteBeadChoiceCorrect.png","","null"
"image-button-response","659","1709888","0.0-13.0-0.200","23","Low_HMMActual","","","","","","419.09999999962747","","","","Images/NewTrialWC.png","","2"
