"trial_type","trial_index","time_elapsed","internal_node_id","Script_Picker","Block_Type","success","timeout","failed_images","failed_audio","failed_video","rt","url","responses","question_order","stimulus","key_press","response"
"pavlovia","0","35","0.0-0.0","1","Low_HMMActual","","","","","","","","","","","",""
"preload","1","36","0.0-1.0","1","Low_HMMActual","true","false","[]","[]","[]","","","","","","",""
"external-html","2","8960","0.0-2.0-0.0","1","Low_HMMActual","","","","","","8729.060000012396","consent.html","","","","",""
"survey-multi-choice","3","201599","0.0-2.0-1.0","1","Low_HMMActual","","","","","","192632.34999999986","","{""Q0"":""Female"",""Q1"":""Hispanic or Latino""}","[0,1]","","",""
"survey-text","4","204092","0.0-2.0-2.0","1","Low_HMMActual","","","","","","2486.555000010412","","{""Q0"":""34""}","","","",""
"survey-text","5","210081","0.0-2.0-3.0","1","Low_HMMActual","","","","","","5879.990000015823","","{""Q0"":""598b7cd7f472de0001731be6""}","","","",""
"image-keyboard-response","6","238447","0.0-3.0-0.0","1","Low_HMMActual","","","","","","28260.729999979958","","","","tutorial/tutorial1.png"," ",""
"image-keyboard-response","7","2917470","0.0-3.0-0.1","1","Low_HMMActual","","","","","","2679021.230000013","","","","tutorial/tutorial2.png"," ",""
"image-keyboard-response","8","2924967","0.0-3.0-0.2","1","Low_HMMActual","","","","","","7495.105000008829","","","","tutorial/tutorial3.png"," ",""
"image-keyboard-response","9","2927641","0.0-3.0-0.3","1","Low_HMMActual","","","","","","2672.0900000073016","","","","tutorial/tutorial4.png"," ",""
"image-keyboard-response","10","2930759","0.0-3.0-0.4","1","Low_HMMActual","","","","","","3117.7549999845214","","","","tutorial/tutorial5.png"," ",""
"image-keyboard-response","11","2950684","0.0-3.0-0.5","1","Low_HMMActual","","","","","","19923.82500000531","","","","tutorial/tutorial6.png"," ",""
"image-keyboard-response","12","2958449","0.0-3.0-0.6","1","Low_HMMActual","","","","","","7763.015000003856","","","","tutorial/tutorial7.png"," ",""
"image-keyboard-response","13","2974504","0.0-3.0-0.7","1","Low_HMMActual","","","","","","16054.134999983944","","","","tutorial/tutorial8.png"," ",""
"image-keyboard-response","14","2984698","0.0-3.0-0.8","1","Low_HMMActual","","","","","","10192.695000004955","","","","tutorial/tutorial9.png"," ",""
"image-keyboard-response","15","2993756","0.0-3.0-0.9","1","Low_HMMActual","","","","","","9056.840000004508","","","","tutorial/tutorial10.png"," ",""
"image-keyboard-response","16","2997713","0.0-3.0-0.10","1","Low_HMMActual","","","","","","3955.6650000158697","","","","tutorial/tutorial11.png"," ",""
"image-keyboard-response","17","3006194","0.0-3.0-0.11","1","Low_HMMActual","","","","","","8479.985000012908","","","","tutorial/tutorial12.png"," ",""
"image-keyboard-response","18","3018890","0.0-3.0-0.12","1","Low_HMMActual","","","","","","12694.365000003017","","","","tutorial/tutorial13.png"," ",""
"image-keyboard-response","19","3023464","0.0-3.0-0.13","1","Low_HMMActual","","","","","","4573.229999979958","","","","tutorial/tutorial14.png"," ",""
"image-keyboard-response","20","3026162","0.0-3.0-0.14","1","Low_HMMActual","","","","","","2696.8050000141375","","","","tutorial/tutorial15.png"," ",""
"image-keyboard-response","21","3037592","0.0-4.0","1","Low_HMMActual","","","","","","11428.234999999404","","","","tutorial/tutorial16.png","arrowup",""
"image-keyboard-response","22","3052456","0.0-5.0","1","Low_HMMActual","","","","","","11931.595000002068","","","","tutorial/tutorial17.png","arrowright",""
"image-keyboard-response","23","3059799","0.0-6.0","1","Low_HMMActual","","","","","","5497.86999999173","","","","tutorial/tutorial18.png","arrowleft",""
"image-keyboard-response","24","3066681","0.0-7.0","1","Low_HMMActual","","","","","","5288.639999984298","","","","tutorial/tutorial19.png"," ",""
"html-keyboard-response","25","3079640","0.0-8.0","2","Low_HMMActual","","","","","","12954.394999979064","","","","<div class=""container"" style=""height:800px;width:800px;display:flex;flex-direction:column;justify-content:center;align-items:center;text-align:center;font-weight:normal;font-family:Arial;font-size:20px""><p>Loading episode&hellip;</p><div>"," ",""
"image-button-response","26","3100058","0.0-9.0-0.0","2","Low_HMMActual","","","","","","20412.72500000149","","","","Images/NoChoice.png","","2"
"image-button-response","27","3100363","0.0-9.0-1.0","2","Low_HMMActual","","","","","","null","","","","Images/WhiteBeadChoice.png","","null"
"image-button-response","28","3100866","0.0-9.0-2.0","2","Low_HMMActual","","","","","","null","","","","Images/WhiteBeadChoiceCorrect.png","","null"
"image-button-response","29","3103472","0.0-9.0-0.1","2","Low_HMMActual","","","","","","2599.1099999807775","","","","Images/NewTrialWC.png","","2"
"image-button-response","30","3103778","0.0-9.0-1.1","2","Low_HMMActual","","","","","","null","","","","Images/WhiteBeadChoice.png","","null"
"image-button-response","31","3104291","0.0-9.0-2.1","2","Low_HMMActual","","","","","","null","","","","Images/WhiteBeadChoiceCorrect.png","","null"
"image-button-response","32","3105856","0.0-9.0-0.2","2","Low_HMMActual","","","","","","1562.5349999750033","","","","Images/NewTrialWC.png","","2"
"image-button-response","33","3106172","0.0-9.0-1.2","2","Low_HMMActual","","","","","","null","","","","Images/WhiteBeadChoice.png","","null"
"image-button-response","34","3106690","0.0-9.0-2.2","2","Low_HMMActual","","","","","","null","","","","Images/WhiteBeadChoiceCorrect.png","","null"
"image-button-response","35","3108106","0.0-9.0-0.3","2","Low_HMMActual","","","","","","1411.2000000025146","","","","Images/NewTrialWC.png","","2"
"image-button-response","36","3108422","0.0-9.0-1.3","2","Low_HMMActual","","","","","","null","","","","Images/WhiteBeadChoice.png","","null"
"image-button-response","37","3108935","0.0-9.0-2.3","2","Low_HMMActual","","","","","","null","","","","Images/WhiteBeadChoiceWrong.png","","null"
"image-button-response","38","3110819","0.0-9.0-0.4","2","Low_HMMActual","","","","","","1880.8349999887869","","","","Images/NewTrialBC.png","","0"
"image-button-response","39","3111126","0.0-9.0-1.4","2","Low_HMMActual","","","","","","null","","","","Images/BlackBeadChoice.png","","null"
"image-button-response","40","3111630","0.0-9.0-2.4","2","Low_HMMActual","","","","","","null","","","","Images/BlackBeadChoiceWrong.png","","null"
"image-button-response","41","3113423","0.0-9.0-0.5","2","Low_HMMActual","","","","","","1789.7349999984726","","","","Images/NewTrialWC.png","","2"
"image-button-response","42","3113741","0.0-9.0-1.5","2","Low_HMMActual","","","","","","null","","","","Images/WhiteBeadChoice.png","","null"
"image-button-response","43","3114258","0.0-9.0-2.5","2","Low_HMMActual","","","","","","null","","","","Images/WhiteBeadChoiceCorrect.png","","null"
"image-button-response","44","3114769","0.0-9.0-0.6","2","Low_HMMActual","","","","","","506.1850000056438","","","","Images/NewTrialWC.png","","2"
"image-button-response","45","3115079","0.0-9.0-1.6","2","Low_HMMActual","","","","","","null","","","","Images/WhiteBeadChoice.png","","null"
"image-button-response","46","3115588","0.0-9.0-2.6","2","Low_HMMActual","","","","","","null","","","","Images/WhiteBeadChoiceWrong.png","","null"
"image-button-response","47","3116161","0.0-9.0-0.7","2","Low_HMMActual","","","","","","569.7450000154786","","","","Images/NewTrialBC.png","","0"
"image-button-response","48","3116477","0.0-9.0-1.7","2","Low_HMMActual","","","","","","null","","","","Images/BlackBeadChoice.png","","null"
"image-button-response","49","3116992","0.0-9.0-2.7","2","Low_HMMActual","","","","","","null","","","","Images/BlackBeadChoiceWrong.png","","null"
"image-button-response","50","3117485","0.0-9.0-0.8","2","Low_HMMActual","","","","","","490.0400000042282","","","","Images/NewTrialWC.png","","2"
"image-button-response","51","3117790","0.0-9.0-1.8","2","Low_HMMActual","","","","","","null","","","","Images/WhiteBeadChoice.png","","null"
"image-button-response","52","3118307","0.0-9.0-2.8","2","Low_HMMActual","","","","","","null","","","","Images/WhiteBeadChoiceWrong.png","","null"
"image-button-response","53","3121283","0.0-9.0-0.9","2","Low_HMMActual","","","","","","2972.3550000051036","","","","Images/NewTrialBC.png","","0"
"image-button-response","54","3121609","0.0-9.0-1.9","2","Low_HMMActual","","","","","","null","","","","Images/BlackBeadChoice.png","","null"
"image-button-response","55","3122124","0.0-9.0-2.9","2","Low_HMMActual","","","","","","null","","","","Images/BlackBeadChoiceWrong.png","","null"
"html-keyboard-response","56","3126126","0.0-10.0","2","Low_HMMActual","","","","","","3998.0700000012293","","","",""," ",""
"image-keyboard-response","57","3129006","0.0-11.0","2","Low_HMMActual","","","","","","2877.8199999942444","","","","tutorial/tutorial20.png"," ",""
"html-keyboard-response","58","3131026","0.0-12.0","3","Low_HMMActual","","","","","","2012.784999998752","","","","<div class=""container"" style=""height:800px;width:800px;display:flex;flex-direction:column;justify-content:center;align-items:center;text-align:center;font-weight:normal;font-family:Arial;font-size:20px""><p>Loading episode&hellip;</p><div>"," ",""
"image-button-response","59","3133881","0.0-13.0-0.0","3","Low_HMMActual","","","","","","2852.8550000041723","","","","Images/NoChoice.png","","0"
"image-button-response","60","3134189","0.0-13.0-1.0","3","Low_HMMActual","","","","","","null","","","","Images/BlackBeadChoice.png","","null"
"image-button-response","61","3134706","0.0-13.0-2.0","3","Low_HMMActual","","","","","","null","","","","Images/BlackBeadChoiceWrong.png","","null"
"image-button-response","62","3138868","0.0-13.0-0.1","3","Low_HMMActual","","","","","","4158.109999989625","","","","Images/NewTrialWC.png","","2"
"image-button-response","63","3139172","0.0-13.0-1.1","3","Low_HMMActual","","","","","","null","","","","Images/WhiteBeadChoice.png","","null"
"image-button-response","64","3139688","0.0-13.0-2.1","3","Low_HMMActual","","","","","","null","","","","Images/WhiteBeadChoiceCorrect.png","","null"
"image-button-response","65","3140504","0.0-13.0-0.2","3","Low_HMMActual","","","","","","812.3699999996461","","","","Images/NewTrialWC.png","","2"
"image-button-response","66","3140823","0.0-13.0-1.2","3","Low_HMMActual","","","","","","null","","","","Images/WhiteBeadChoice.png","","null"
"image-button-response","67","3141332","0.0-13.0-2.2","3","Low_HMMActual","","","","","","null","","","","Images/WhiteBeadChoiceCorrect.png","","null"
"image-button-response","68","3143497","0.0-13.0-0.3","3","Low_HMMActual","","","","","","2161.8299999972805","","","","Images/NewTrialWC.png","","2"
"image-button-response","69","3143806","0.0-13.0-1.3","3","Low_HMMActual","","","","","","null","","","","Images/WhiteBeadChoice.png","","null"
"image-button-response","70","3144314","0.0-13.0-2.3","3","Low_HMMActual","","","","","","null","","","","Images/WhiteBeadChoiceCorrect.png","","null"
"image-button-response","71","3146631","0.0-13.0-0.4","3","Low_HMMActual","","","","","","2313.8549999860115","","","","Images/NewTrialWC.png","","3"
"image-button-response","72","3146935","0.0-13.0-1.4","3","Low_HMMActual","","","","","","null","","","","Images/WhiteBeadChoice.png","","null"
"image-button-response","73","3147449","0.0-13.0-2.4","3","Low_HMMActual","","","","","","null","","","","Images/WhiteBeadChoiceWrong.png","","null"
"image-button-response","74","3148896","0.0-13.0-0.5","3","Low_HMMActual","","","","","","1443.6700000083074","","","","Images/NewTrialBC.png","","0"
"image-button-response","75","3149200","0.0-13.0-1.5","3","Low_HMMActual","","","","","","null","","","","Images/BlackBeadChoice.png","","null"
"image-button-response","76","3149707","0.0-13.0-2.5","3","Low_HMMActual","","","","","","null","","","","Images/BlackBeadChoiceWrong.png","","null"
"image-button-response","77","3152702","0.0-13.0-0.6","3","Low_HMMActual","","","","","","2991.890000004787","","","","Images/NewTrialWC.png","","1"
"image-button-response","78","3153006","0.0-13.0-1.6","3","Low_HMMActual","","","","","","null","","","","Images/BlackBeadChoice.png","","null"
"image-button-response","79","3153510","0.0-13.0-2.6","3","Low_HMMActual","","","","","","null","","","","Images/BlackBeadChoiceWrong.png","","null"
"image-button-response","80","3154239","0.0-13.0-0.7","3","Low_HMMActual","","","","","","725.2900000023656","","","","Images/NewTrialWC.png","","2"
"image-button-response","81","3154553","0.0-13.0-1.7","3","Low_HMMActual","","","","","","null","","","","Images/WhiteBeadChoice.png","","null"
"image-button-response","82","3155061","0.0-13.0-2.7","3","Low_HMMActual","","","","","","null","","","","Images/WhiteBeadChoiceCorrect.png","","null"
"image-button-response","83","3157481","0.0-13.0-0.8","3","Low_HMMActual","","","","","","2415.6549999895506","","","","Images/NewTrialWC.png","","2"
"image-button-response","84","3157785","0.0-13.0-1.8","3","Low_HMMActual","","","","","","null","","","","Images/WhiteBeadChoice.png","","null"
"image-button-response","85","3158299","0.0-13.0-2.8","3","Low_HMMActual","","","","","","null","","","","Images/WhiteBeadChoiceWrong.png","","null"
"image-button-response","86","3159806","0.0-13.0-0.9","3","Low_HMMActual","","","","","","1503.419999993872","","","","Images/NewTrialBC.png","","0"
"image-button-response","87","3160109","0.0-13.0-1.9","3","Low_HMMActual","","","","","","null","","","","Images/BlackBeadChoice.png","","null"
"image-button-response","88","3160624","0.0-13.0-2.9","3","Low_HMMActual","","","","","","null","","","","Images/BlackBeadChoiceCorrect.png","","null"
"image-button-response","89","3162131","0.0-13.0-0.10","3","Low_HMMActual","","","","","","1503.1100000194274","","","","Images/NewTrialBC.png","","0"
"image-button-response","90","3162448","0.0-13.0-1.10","3","Low_HMMActual","","","","","","null","","","","Images/BlackBeadChoice.png","","null"
"image-button-response","91","3162955","0.0-13.0-2.10","3","Low_HMMActual","","","","","","null","","","","Images/BlackBeadChoiceCorrect.png","","null"
"image-button-response","92","3163516","0.0-13.0-0.11","3","Low_HMMActual","","","","","","557.1000000052154","","","","Images/NewTrialBC.png","","0"
"image-button-response","93","3163822","0.0-13.0-1.11","3","Low_HMMActual","","","","","","null","","","","Images/BlackBeadChoice.png","","null"
"image-button-response","94","3164330","0.0-13.0-2.11","3","Low_HMMActual","","","","","","null","","","","Images/BlackBeadChoiceWrong.png","","null"
"image-button-response","95","3165597","0.0-13.0-0.12","3","Low_HMMActual","","","","","","1264.2350000096485","","","","Images/NewTrialWC.png","","2"
"image-button-response","96","3165909","0.0-13.0-1.12","3","Low_HMMActual","","","","","","null","","","","Images/WhiteBeadChoice.png","","null"
"image-button-response","97","3166415","0.0-13.0-2.12","3","Low_HMMActual","","","","","","null","","","","Images/WhiteBeadChoiceCorrect.png","","null"
"image-button-response","98","3167037","0.0-13.0-0.13","3","Low_HMMActual","","","","","","617.8950000032783","","","","Images/NewTrialWC.png","","2"
"image-button-response","99","3167351","0.0-13.0-1.13","3","Low_HMMActual","","","","","","null","","","","Images/WhiteBeadChoice.png","","null"
"image-button-response","100","3167857","0.0-13.0-2.13","3","Low_HMMActual","","","","","","null","","","","Images/WhiteBeadChoiceWrong.png","","null"
"image-button-response","101","3168678","0.0-13.0-0.14","3","Low_HMMActual","","","","","","817.0599999721162","","","","Images/NewTrialBC.png","","0"
"image-button-response","102","3168982","0.0-13.0-1.14","3","Low_HMMActual","","","","","","null","","","","Images/BlackBeadChoice.png","","null"
"image-button-response","103","3169498","0.0-13.0-2.14","3","Low_HMMActual","","","","","","null","","","","Images/BlackBeadChoiceWrong.png","","null"
"image-button-response","104","3179823","0.0-13.0-0.15","3","Low_HMMActual","","","","","","10321.604999975767","","","","Images/NewTrialWC.png","","2"
"image-button-response","105","3180138","0.0-13.0-1.15","3","Low_HMMActual","","","","","","null","","","","Images/WhiteBeadChoice.png","","null"
"image-button-response","106","3180647","0.0-13.0-2.15","3","Low_HMMActual","","","","","","null","","","","Images/WhiteBeadChoiceWrong.png","","null"
"image-button-response","107","3182869","0.0-13.0-0.16","3","Low_HMMActual","","","","","","2217.579999996815","","","","Images/NewTrialBC.png","","1"
"image-button-response","108","3183188","0.0-13.0-1.16","3","Low_HMMActual","","","","","","null","","","","Images/BlackBeadChoice.png","","null"
"image-button-response","109","3183695","0.0-13.0-2.16","3","Low_HMMActual","","","","","","null","","","","Images/BlackBeadChoiceWrong.png","","null"
"image-button-response","110","3185398","0.0-13.0-0.17","3","Low_HMMActual","","","","","","1699.5650000171736","","","","Images/NewTrialWC.png","","3"
"image-button-response","111","3185701","0.0-13.0-1.17","3","Low_HMMActual","","","","","","null","","","","Images/WhiteBeadChoice.png","","null"
"image-button-response","112","3186209","0.0-13.0-2.17","3","Low_HMMActual","","","","","","null","","","","Images/WhiteBeadChoiceCorrect.png","","null"
"image-button-response","113","3186830","0.0-13.0-0.18","3","Low_HMMActual","","","","","","617.4250000040047","","","","Images/NewTrialWC.png","","2"
"image-button-response","114","3187139","0.0-13.0-1.18","3","Low_HMMActual","","","","","","null","","","","Images/WhiteBeadChoice.png","","null"
"image-button-response","115","3187646","0.0-13.0-2.18","3","Low_HMMActual","","","","","","null","","","","Images/WhiteBeadChoiceCorrect.png","","null"
"image-button-response","116","3188187","0.0-13.0-0.19","3","Low_HMMActual","","","","","","536.629999987781","","","","Images/NewTrialWC.png","","2"
"image-button-response","117","3188491","0.0-13.0-1.19","3","Low_HMMActual","","","","","","null","","","","Images/WhiteBeadChoice.png","","null"
"image-button-response","118","3189003","0.0-13.0-2.19","3","Low_HMMActual","","","","","","null","","","","Images/WhiteBeadChoiceWrong.png","","null"
"image-button-response","119","3191352","0.0-13.0-0.20","3","Low_HMMActual","","","","","","2346.3349999799393","","","","Images/NewTrialBC.png","","0"
"image-button-response","120","3191659","0.0-13.0-1.20","3","Low_HMMActual","","","","","","null","","","","Images/BlackBeadChoice.png","","null"
"image-button-response","121","3192166","0.0-13.0-2.20","3","Low_HMMActual","","","","","","null","","","","Images/BlackBeadChoiceWrong.png","","null"
"image-button-response","122","3195233","0.0-13.0-0.21","3","Low_HMMActual","","","","","","3063.805000012275","","","","Images/NewTrialWC.png","","1"
"image-button-response","123","3195540","0.0-13.0-1.21","3","Low_HMMActual","","","","","","null","","","","Images/BlackBeadChoice.png","","null"
"image-button-response","124","3196049","0.0-13.0-2.21","3","Low_HMMActual","","","","","","null","","","","Images/BlackBeadChoiceWrong.png","","null"
"image-button-response","125","3197794","0.0-13.0-0.22","3","Low_HMMActual","","","","","","1741.634999983944","","","","Images/NewTrialWC.png","","3"
"image-button-response","126","3198107","0.0-13.0-1.22","3","Low_HMMActual","","","","","","null","","","","Images/WhiteBeadChoice.png","","null"
"image-button-response","127","3198610","0.0-13.0-2.22","3","Low_HMMActual","","","","","","null","","","","Images/WhiteBeadChoiceCorrect.png","","null"
"image-button-response","128","3199068","0.0-13.0-0.23","3","Low_HMMActual","","","","","","453.57499999227","","","","Images/NewTrialWC.png","","2"
"image-button-response","129","3199371","0.0-13.0-1.23","3","Low_HMMActual","","","","","","null","","","","Images/WhiteBeadChoice.png","","null"
"image-button-response","130","3199876","0.0-13.0-2.23","3","Low_HMMActual","","","","","","null","","","","Images/WhiteBeadChoiceCorrect.png","","null"
"image-button-response","131","3200329","0.0-13.0-0.24","3","Low_HMMActual","","","","","","449.59000000404194","","","","Images/NewTrialWC.png","","2"
"image-button-response","132","3200647","0.0-13.0-1.24","3","Low_HMMActual","","","","","","null","","","","Images/WhiteBeadChoice.png","","null"
"image-button-response","133","3201165","0.0-13.0-2.24","3","Low_HMMActual","","","","","","369.8549999971874","","","","Images/WhiteBeadChoiceCorrect.png","","2"
"image-button-response","134","3202250","0.0-13.0-0.25","3","Low_HMMActual","","","","","","1080.6599999777973","","","","Images/NewTrialWC.png","","2"
"image-button-response","135","3202555","0.0-13.0-1.25","3","Low_HMMActual","","","","","","null","","","","Images/WhiteBeadChoice.png","","null"
"image-button-response","136","3203061","0.0-13.0-2.25","3","Low_HMMActual","","","","","","null","","","","Images/WhiteBeadChoiceCorrect.png","","null"
"image-button-response","137","3203414","0.0-13.0-0.26","3","Low_HMMActual","","","","","","348.7850000089966","","","","Images/NewTrialWC.png","","2"
"image-button-response","138","3203723","0.0-13.0-1.26","3","Low_HMMActual","","","","","","null","","","","Images/WhiteBeadChoice.png","","null"
"image-button-response","139","3204230","0.0-13.0-2.26","3","Low_HMMActual","","","","","","null","","","","Images/WhiteBeadChoiceWrong.png","","null"
"image-button-response","140","3205995","0.0-13.0-0.27","3","Low_HMMActual","","","","","","1753.2199999843724","","","","Images/NewTrialBC.png","","2"
"image-button-response","141","3206298","0.0-13.0-1.27","3","Low_HMMActual","","","","","","null","","","","Images/WhiteBeadChoice.png","","null"
"image-button-response","142","3206815","0.0-13.0-2.27","3","Low_HMMActual","","","","","","null","","","","Images/WhiteBeadChoiceCorrect.png","","null"
"image-button-response","143","3224415","0.0-13.0-0.28","3","Low_HMMActual","","","","","","17595.880000007804","","","","Images/NewTrialWC.png","","2"
"image-button-response","144","3224720","0.0-13.0-1.28","3","Low_HMMActual","","","","","","null","","","","Images/WhiteBeadChoice.png","","null"
"image-button-response","145","3225234","0.0-13.0-2.28","3","Low_HMMActual","","","","","","null","","","","Images/WhiteBeadChoiceWrong.png","","null"
"image-button-response","146","3226625","0.0-13.0-0.29","3","Low_HMMActual","","","","","","1386.354999994859","","","","Images/NewTrialBC.png","","2"
"image-button-response","147","3226930","0.0-13.0-1.29","3","Low_HMMActual","","","","","","null","","","","Images/WhiteBeadChoice.png","","null"
"image-button-response","148","3227436","0.0-13.0-2.29","3","Low_HMMActual","","","","","","null","","","","Images/WhiteBeadChoiceCorrect.png","","null"
"image-button-response","149","3238106","0.0-13.0-0.30","3","Low_HMMActual","","","","","","10665.565000003204","","","","Images/NewTrialWC.png","","1"
"image-button-response","150","3238409","0.0-13.0-1.30","3","Low_HMMActual","","","","","","null","","","","Images/BlackBeadChoice.png","","null"
"image-button-response","151","3238911","0.0-13.0-2.30","3","Low_HMMActual","","","","","","null","","","","Images/BlackBeadChoiceWrong.png","","null"
"image-button-response","152","3240023","0.0-13.0-0.31","3","Low_HMMActual","","","","","","1107.5249999994412","","","","Images/NewTrialWC.png","","3"
"image-button-response","153","3240329","0.0-13.0-1.31","3","Low_HMMActual","","","","","","null","","","","Images/WhiteBeadChoice.png","","null"
"image-button-response","154","3240837","0.0-13.0-2.31","3","Low_HMMActual","","","","","","null","","","","Images/WhiteBeadChoiceWrong.png","","null"
"image-button-response","155","3241876","0.0-13.0-0.32","3","Low_HMMActual","","","","","","1034.524999995716","","","","Images/NewTrialBC.png","","1"
"image-button-response","156","3242183","0.0-13.0-1.32","3","Low_HMMActual","","","","","","null","","","","Images/BlackBeadChoice.png","","null"
"image-button-response","157","3242688","0.0-13.0-2.32","3","Low_HMMActual","","","","","","null","","","","Images/BlackBeadChoiceWrong.png","","null"
"image-button-response","158","3243261","0.0-13.0-0.33","3","Low_HMMActual","","","","","","568.8950000037439","","","","Images/NewTrialWC.png","","2"
"image-button-response","159","3243574","0.0-13.0-1.33","3","Low_HMMActual","","","","","","null","","","","Images/WhiteBeadChoice.png","","null"
"image-button-response","160","3244092","0.0-13.0-2.33","3","Low_HMMActual","","","","","","399.5649999999441","","","","Images/WhiteBeadChoiceCorrect.png","","2"
"image-button-response","161","3245368","0.0-13.0-0.34","3","Low_HMMActual","","","","","","1272.4450000096112","","","","Images/NewTrialWC.png","","2"
"image-button-response","162","3245675","0.0-13.0-1.34","3","Low_HMMActual","","","","","","null","","","","Images/WhiteBeadChoice.png","","null"
"image-button-response","163","3246179","0.0-13.0-2.34","3","Low_HMMActual","","","","","","null","","","","Images/WhiteBeadChoiceWrong.png","","null"
"image-button-response","164","3248719","0.0-13.0-0.35","3","Low_HMMActual","","","","","","2536.174999986775","","","","Images/NewTrialBC.png","","3"
"image-button-response","165","3249023","0.0-13.0-1.35","3","Low_HMMActual","","","","","","null","","","","Images/WhiteBeadChoice.png","","null"
"image-button-response","166","3249527","0.0-13.0-2.35","3","Low_HMMActual","","","","","","null","","","","Images/WhiteBeadChoiceCorrect.png","","null"
"image-button-response","167","3255058","0.0-13.0-0.36","3","Low_HMMActual","","","","","","5527.394999982789","","","","Images/NewTrialWC.png","","2"
"image-button-response","168","3255375","0.0-13.0-1.36","3","Low_HMMActual","","","","","","null","","","","Images/WhiteBeadChoice.png","","null"
"image-button-response","169","3255881","0.0-13.0-2.36","3","Low_HMMActual","","","","","","null","","","","Images/WhiteBeadChoiceCorrect.png","","null"
"image-button-response","170","3256435","0.0-13.0-0.37","3","Low_HMMActual","","","","","","549.6599999899045","","","","Images/NewTrialWC.png","","2"
"image-button-response","171","3256751","0.0-13.0-1.37","3","Low_HMMActual","","","","","","null","","","","Images/WhiteBeadChoice.png","","null"
"image-button-response","172","3257259","0.0-13.0-2.37","3","Low_HMMActual","","","","","","null","","","","Images/WhiteBeadChoiceCorrect.png","","null"
"image-button-response","173","3263974","0.0-13.0-0.38","3","Low_HMMActual","","","","","","6711.195000011008","","","","Images/NewTrialWC.png","","2"
"image-button-response","174","3264281","0.0-13.0-1.38","3","Low_HMMActual","","","","","","null","","","","Images/WhiteBeadChoice.png","","null"
"image-button-response","175","3264787","0.0-13.0-2.38","3","Low_HMMActual","","","","","","null","","","","Images/WhiteBeadChoiceWrong.png","","null"
"image-button-response","176","3269929","0.0-13.0-0.39","3","Low_HMMActual","","","","","","5137.989999988116","","","","Images/NewTrialBC.png","","2"
"image-button-response","177","3270237","0.0-13.0-1.39","3","Low_HMMActual","","","","","","null","","","","Images/WhiteBeadChoice.png","","null"
"image-button-response","178","3270746","0.0-13.0-2.39","3","Low_HMMActual","","","","","","null","","","","Images/WhiteBeadChoiceCorrect.png","","null"
"image-button-response","179","3271966","0.0-13.0-0.40","3","Low_HMMActual","","","","","","1216.8149999924935","","","","Images/NewTrialWC.png","","2"
"image-button-response","180","3272280","0.0-13.0-1.40","3","Low_HMMActual","","","","","","null","","","","Images/WhiteBeadChoice.png","","null"
"image-button-response","181","3272789","0.0-13.0-2.40","3","Low_HMMActual","","","","","","null","","","","Images/WhiteBeadChoiceCorrect.png","","null"
"image-button-response","182","3273057","0.0-13.0-0.41","3","Low_HMMActual","","","","","","263.67000001482666","","","","Images/NewTrialWC.png","","2"
"image-button-response","183","3273360","0.0-13.0-1.41","3","Low_HMMActual","","","","","","null","","","","Images/WhiteBeadChoice.png","","null"
"image-button-response","184","3273876","0.0-13.0-2.41","3","Low_HMMActual","","","","","","null","","","","Images/WhiteBeadChoiceCorrect.png","","null"
"image-button-response","185","3274695","0.0-13.0-0.42","3","Low_HMMActual","","","","","","814.4749999917112","","","","Images/NewTrialWC.png","","2"
"image-button-response","186","3275002","0.0-13.0-1.42","3","Low_HMMActual","","","","","","null","","","","Images/WhiteBeadChoice.png","","null"
"image-button-response","187","3275509","0.0-13.0-2.42","3","Low_HMMActual","","","","","","null","","","","Images/WhiteBeadChoiceWrong.png","","null"
"image-button-response","188","3277412","0.0-13.0-0.43","3","Low_HMMActual","","","","","","1899.1550000212155","","","","Images/NewTrialBC.png","","1"
"image-button-response","189","3277715","0.0-13.0-1.43","3","Low_HMMActual","","","","","","null","","","","Images/BlackBeadChoice.png","","null"
"image-button-response","190","3278221","0.0-13.0-2.43","3","Low_HMMActual","","","","","","null","","","","Images/BlackBeadChoiceCorrect.png","","null"
"image-button-response","191","3278696","0.0-13.0-0.44","3","Low_HMMActual","","","","","","471.1949999909848","","","","Images/NewTrialBC.png","","1"
"image-button-response","192","3279012","0.0-13.0-1.44","3","Low_HMMActual","","","","","","null","","","","Images/BlackBeadChoice.png","","null"
"image-button-response","193","3279521","0.0-13.0-2.44","3","Low_HMMActual","","","","","","null","","","","Images/BlackBeadChoiceCorrect.png","","null"
"image-button-response","194","3280498","0.0-13.0-0.45","3","Low_HMMActual","","","","","","972.3700000029057","","","","Images/NewTrialBC.png","","0"
"image-button-response","195","3280801","0.0-13.0-1.45","3","Low_HMMActual","","","","","","null","","","","Images/BlackBeadChoice.png","","null"
"image-button-response","196","3281305","0.0-13.0-2.45","3","Low_HMMActual","","","","","","null","","","","Images/BlackBeadChoiceWrong.png","","null"
"image-button-response","197","3282366","0.0-13.0-0.46","3","Low_HMMActual","","","","","","1058.019999996759","","","","Images/NewTrialWC.png","","2"
"image-button-response","198","3282680","0.0-13.0-1.46","3","Low_HMMActual","","","","","","null","","","","Images/WhiteBeadChoice.png","","null"
"image-button-response","199","3283188","0.0-13.0-2.46","3","Low_HMMActual","","","","","","null","","","","Images/WhiteBeadChoiceWrong.png","","null"
"image-button-response","200","3284127","0.0-13.0-0.47","3","Low_HMMActual","","","","","","935.3049999917857","","","","Images/NewTrialBC.png","","0"
"image-button-response","201","3284431","0.0-13.0-1.47","3","Low_HMMActual","","","","","","null","","","","Images/BlackBeadChoice.png","","null"
"image-button-response","202","3284941","0.0-13.0-2.47","3","Low_HMMActual","","","","","","null","","","","Images/BlackBeadChoiceWrong.png","","null"
"image-button-response","203","3285671","0.0-13.0-0.48","3","Low_HMMActual","","","","","","726.0549999773502","","","","Images/NewTrialWC.png","","2"
"image-button-response","204","3285982","0.0-13.0-1.48","3","Low_HMMActual","","","","","","null","","","","Images/WhiteBeadChoice.png","","null"
"image-button-response","205","3286486","0.0-13.0-2.48","3","Low_HMMActual","","","","","","null","","","","Images/WhiteBeadChoiceWrong.png","","null"
"image-button-response","206","3287168","0.0-13.0-0.49","3","Low_HMMActual","","","","","","678.8249999806285","","","","Images/NewTrialBC.png","","1"
"image-button-response","207","3287484","0.0-13.0-1.49","3","Low_HMMActual","","","","","","null","","","","Images/BlackBeadChoice.png","","null"
"image-button-response","208","3287989","0.0-13.0-2.49","3","Low_HMMActual","","","","","","null","","","","Images/BlackBeadChoiceCorrect.png","","null"
"image-button-response","209","3288893","0.0-13.0-0.50","3","Low_HMMActual","","","","","","899.3099999786355","","","","Images/NewTrialBC.png","","1"
"image-button-response","210","3289207","0.0-13.0-1.50","3","Low_HMMActual","","","","","","null","","","","Images/BlackBeadChoice.png","","null"
"image-button-response","211","3289713","0.0-13.0-2.50","3","Low_HMMActual","","","","","","null","","","","Images/BlackBeadChoiceCorrect.png","","null"
"image-button-response","212","3291422","0.0-13.0-0.51","3","Low_HMMActual","","","","","","1705.5699999909848","","","","Images/NewTrialBC.png","","1"
"image-button-response","213","3291737","0.0-13.0-1.51","3","Low_HMMActual","","","","","","null","","","","Images/BlackBeadChoice.png","","null"
"image-button-response","214","3292246","0.0-13.0-2.51","3","Low_HMMActual","","","","","","null","","","","Images/BlackBeadChoiceCorrect.png","","null"
"image-button-response","215","3294151","0.0-13.0-0.52","3","Low_HMMActual","","","","","","1901.385000004433","","","","Images/NewTrialBC.png","","1"
"image-button-response","216","3294457","0.0-13.0-1.52","3","Low_HMMActual","","","","","","null","","","","Images/BlackBeadChoice.png","","null"
"image-button-response","217","3294961","0.0-13.0-2.52","3","Low_HMMActual","","","","","","null","","","","Images/BlackBeadChoiceCorrect.png","","null"
"image-button-response","218","3299626","0.0-13.0-0.53","3","Low_HMMActual","","","","","","4661.029999988619","","","","Images/NewTrialBC.png","","0"
"image-button-response","219","3299941","0.0-13.0-1.53","3","Low_HMMActual","","","","","","null","","","","Images/BlackBeadChoice.png","","null"
"image-button-response","220","3300447","0.0-13.0-2.53","3","Low_HMMActual","","","","","","null","","","","Images/BlackBeadChoiceCorrect.png","","null"
"image-button-response","221","3300694","0.0-13.0-0.54","3","Low_HMMActual","","","","","","243.09999999264255","","","","Images/NewTrialBC.png","","0"
"image-button-response","222","3300998","0.0-13.0-1.54","3","Low_HMMActual","","","","","","null","","","","Images/BlackBeadChoice.png","","null"
"image-button-response","223","3301506","0.0-13.0-2.54","3","Low_HMMActual","","","","","","null","","","","Images/BlackBeadChoiceWrong.png","","null"
"image-button-response","224","3302424","0.0-13.0-0.55","3","Low_HMMActual","","","","","","902.1649999776855","","","","Images/NewTrialWC.png","","0"
"image-button-response","225","3302727","0.0-13.0-1.55","3","Low_HMMActual","","","","","","null","","","","Images/BlackBeadChoice.png","","null"
"image-button-response","226","3303242","0.0-13.0-2.55","3","Low_HMMActual","","","","","","null","","","","Images/BlackBeadChoiceCorrect.png","","null"
"image-button-response","227","3304268","0.0-13.0-0.56","3","Low_HMMActual","","","","","","1022.4150000140071","","","","Images/NewTrialBC.png","","2"
"image-button-response","228","3304571","0.0-13.0-1.56","3","Low_HMMActual","","","","","","null","","","","Images/WhiteBeadChoice.png","","null"
"image-button-response","229","3305075","0.0-13.0-2.56","3","Low_HMMActual","","","","","","null","","","","Images/WhiteBeadChoiceCorrect.png","","null"
"image-button-response","230","3305396","0.0-13.0-0.57","3","Low_HMMActual","","","","","","317.59999998053536","","","","Images/NewTrialWC.png","","2"
"image-button-response","231","3305708","0.0-13.0-1.57","3","Low_HMMActual","","","","","","null","","","","Images/WhiteBeadChoice.png","","null"
"image-button-response","232","3306216","0.0-13.0-2.57","3","Low_HMMActual","","","","","","364.5200000028126","","","","Images/WhiteBeadChoiceCorrect.png","","2"
"image-button-response","233","3306893","0.0-13.0-0.58","3","Low_HMMActual","","","","","","661.4150000093505","","","","Images/NewTrialWC.png","","2"
"image-button-response","234","3307200","0.0-13.0-1.58","3","Low_HMMActual","","","","","","null","","","","Images/WhiteBeadChoice.png","","null"
"image-button-response","235","3307704","0.0-13.0-2.58","3","Low_HMMActual","","","","","","null","","","","Images/WhiteBeadChoiceWrong.png","","null"
"image-button-response","236","3310703","0.0-13.0-0.59","3","Low_HMMActual","","","","","","2996.145000012126","","","","Images/NewTrialBC.png","","1"
"image-button-response","237","3311021","0.0-13.0-1.59","3","Low_HMMActual","","","","","","null","","","","Images/BlackBeadChoice.png","","null"
"image-button-response","238","3311525","0.0-13.0-2.59","3","Low_HMMActual","","","","","","null","","","","Images/BlackBeadChoiceCorrect.png","","null"
"image-button-response","239","3312772","0.0-13.0-0.60","3","Low_HMMActual","","","","","","1242.6499999999069","","","","Images/NewTrialBC.png","","0"
"image-button-response","240","3313089","0.0-13.0-1.60","3","Low_HMMActual","","","","","","null","","","","Images/BlackBeadChoice.png","","null"
"image-button-response","241","3313593","0.0-13.0-2.60","3","Low_HMMActual","","","","","","null","","","","Images/BlackBeadChoiceWrong.png","","null"
"image-button-response","242","3315598","0.0-13.0-0.61","3","Low_HMMActual","","","","","","2000.8200000161305","","","","Images/NewTrialWC.png","","3"
"image-button-response","243","3315913","0.0-13.0-1.61","3","Low_HMMActual","","","","","","null","","","","Images/WhiteBeadChoice.png","","null"
"image-button-response","244","3316421","0.0-13.0-2.61","3","Low_HMMActual","","","","","","null","","","","Images/WhiteBeadChoiceCorrect.png","","null"
"image-button-response","245","3316982","0.0-13.0-0.62","3","Low_HMMActual","","","","","","557.7849999824539","","","","Images/NewTrialWC.png","","2"
"image-button-response","246","3317286","0.0-13.0-1.62","3","Low_HMMActual","","","","","","null","","","","Images/WhiteBeadChoice.png","","null"
"image-button-response","247","3317789","0.0-13.0-2.62","3","Low_HMMActual","","","","","","null","","","","Images/WhiteBeadChoiceCorrect.png","","null"
"image-button-response","248","3318975","0.0-13.0-0.63","3","Low_HMMActual","","","","","","1182.039999985136","","","","Images/NewTrialWC.png","","0"
"image-button-response","249","3319289","0.0-13.0-1.63","3","Low_HMMActual","","","","","","null","","","","Images/BlackBeadChoice.png","","null"
"image-button-response","250","3319793","0.0-13.0-2.63","3","Low_HMMActual","","","","","","null","","","","Images/BlackBeadChoiceCorrect.png","","null"
"image-button-response","251","3320556","0.0-13.0-0.64","3","Low_HMMActual","","","","","","753.194999997504","","","","Images/NewTrialBC.png","","1"
"image-button-response","252","3320867","0.0-13.0-1.64","3","Low_HMMActual","","","","","","null","","","","Images/BlackBeadChoice.png","","null"
"image-button-response","253","3321370","0.0-13.0-2.64","3","Low_HMMActual","","","","","","null","","","","Images/BlackBeadChoiceWrong.png","","null"
"image-button-response","254","3322240","0.0-13.0-0.65","3","Low_HMMActual","","","","","","865.7750000124797","","","","Images/NewTrialWC.png","","2"
"image-button-response","255","3322554","0.0-13.0-1.65","3","Low_HMMActual","","","","","","null","","","","Images/WhiteBeadChoice.png","","null"
"image-button-response","256","3323059","0.0-13.0-2.65","3","Low_HMMActual","","","","","","null","","","","Images/WhiteBeadChoiceWrong.png","","null"
"image-button-response","257","3323741","0.0-13.0-0.66","3","Low_HMMActual","","","","","","678.139999974519","","","","Images/NewTrialBC.png","","2"
"image-button-response","258","3324048","0.0-13.0-1.66","3","Low_HMMActual","","","","","","null","","","","Images/WhiteBeadChoice.png","","null"
"image-button-response","259","3324555","0.0-13.0-2.66","3","Low_HMMActual","","","","","","null","","","","Images/WhiteBeadChoiceWrong.png","","null"
"image-button-response","260","3325934","0.0-13.0-0.67","3","Low_HMMActual","","","","","","1373.445000004489","","","","Images/NewTrialBC.png","","0"
"image-button-response","261","3326237","0.0-13.0-1.67","3","Low_HMMActual","","","","","","null","","","","Images/BlackBeadChoice.png","","null"
"image-button-response","262","3326741","0.0-13.0-2.67","3","Low_HMMActual","","","","","","null","","","","Images/BlackBeadChoiceWrong.png","","null"
"image-button-response","263","3327211","0.0-13.0-0.68","3","Low_HMMActual","","","","","","467.0950000002049","","","","Images/NewTrialWC.png","","0"
"image-button-response","264","3327521","0.0-13.0-1.68","3","Low_HMMActual","","","","","","null","","","","Images/BlackBeadChoice.png","","null"
"image-button-response","265","3328030","0.0-13.0-2.68","3","Low_HMMActual","","","","","","null","","","","Images/BlackBeadChoiceWrong.png","","null"
"image-button-response","266","3329012","0.0-13.0-0.69","3","Low_HMMActual","","","","","","977.7549999998882","","","","Images/NewTrialWC.png","","2"
"image-button-response","267","3329324","0.0-13.0-1.69","3","Low_HMMActual","","","","","","null","","","","Images/WhiteBeadChoice.png","","null"
"image-button-response","268","3329829","0.0-13.0-2.69","3","Low_HMMActual","","","","","","437.6899999915622","","","","Images/WhiteBeadChoiceCorrect.png","","2"
"image-button-response","269","3331979","0.0-13.0-0.70","3","Low_HMMActual","","","","","","2140.8100000116974","","","","Images/NewTrialWC.png","","2"
"image-button-response","270","3332288","0.0-13.0-1.70","3","Low_HMMActual","","","","","","null","","","","Images/WhiteBeadChoice.png","","null"
"image-button-response","271","3332795","0.0-13.0-2.70","3","Low_HMMActual","","","","","","null","","","","Images/WhiteBeadChoiceCorrect.png","","null"
"image-button-response","272","3334398","0.0-13.0-0.71","3","Low_HMMActual","","","","","","1599.4300000020303","","","","Images/NewTrialWC.png","","2"
"image-button-response","273","3334702","0.0-13.0-1.71","3","Low_HMMActual","","","","","","null","","","","Images/WhiteBeadChoice.png","","null"
"image-button-response","274","3335208","0.0-13.0-2.71","3","Low_HMMActual","","","","","","null","","","","Images/WhiteBeadChoiceCorrect.png","","null"
"image-button-response","275","3342554","0.0-13.0-0.72","3","Low_HMMActual","","","","","","7341.894999990705","","","","Images/NewTrialWC.png","","3"
"image-button-response","276","3342870","0.0-13.0-1.72","3","Low_HMMActual","","","","","","null","","","","Images/WhiteBeadChoice.png","","null"
"image-button-response","277","3343378","0.0-13.0-2.72","3","Low_HMMActual","","","","","","null","","","","Images/WhiteBeadChoiceCorrect.png","","null"
"image-button-response","278","3344799","0.0-13.0-0.73","3","Low_HMMActual","","","","","","1416.799999977462","","","","Images/NewTrialWC.png","","2"
"image-button-response","279","3345106","0.0-13.0-1.73","3","Low_HMMActual","","","","","","null","","","","Images/WhiteBeadChoice.png","","null"
"image-button-response","280","3345611","0.0-13.0-2.73","3","Low_HMMActual","","","","","","null","","","","Images/WhiteBeadChoiceCorrect.png","","null"
"image-button-response","281","3346737","0.0-13.0-0.74","3","Low_HMMActual","","","","","","1121.8900000094436","","","","Images/NewTrialWC.png","","2"
"image-button-response","282","3347043","0.0-13.0-1.74","3","Low_HMMActual","","","","","","null","","","","Images/WhiteBeadChoice.png","","null"
"image-button-response","283","3347552","0.0-13.0-2.74","3","Low_HMMActual","","","","","","477.80500000249594","","","","Images/WhiteBeadChoiceCorrect.png","","2"
"image-button-response","284","3348790","0.0-13.0-0.75","3","Low_HMMActual","","","","","","1233.9199999989942","","","","Images/NewTrialWC.png","","2"
"image-button-response","285","3349099","0.0-13.0-1.75","3","Low_HMMActual","","","","","","null","","","","Images/WhiteBeadChoice.png","","null"
"image-button-response","286","3349606","0.0-13.0-2.75","3","Low_HMMActual","","","","","","null","","","","Images/WhiteBeadChoiceCorrect.png","","null"
"image-button-response","287","3350454","0.0-13.0-0.76","3","Low_HMMActual","","","","","","840.2150000040419","","","","Images/NewTrialWC.png","","2"
"image-button-response","288","3350772","0.0-13.0-1.76","3","Low_HMMActual","","","","","","null","","","","Images/WhiteBeadChoice.png","","null"
"image-button-response","289","3351279","0.0-13.0-2.76","3","Low_HMMActual","","","","","","null","","","","Images/WhiteBeadChoiceCorrect.png","","null"
"image-button-response","290","3352579","0.0-13.0-0.77","3","Low_HMMActual","","","","","","1295.8749999818392","","","","Images/NewTrialWC.png","","2"
"image-button-response","291","3352893","0.0-13.0-1.77","3","Low_HMMActual","","","","","","null","","","","Images/WhiteBeadChoice.png","","null"
"image-button-response","292","3353399","0.0-13.0-2.77","3","Low_HMMActual","","","","","","null","","","","Images/WhiteBeadChoiceCorrect.png","","null"
"image-button-response","293","3357710","0.0-13.0-0.78","3","Low_HMMActual","","","","","","4306.450000003912","","","","Images/NewTrialWC.png","","2"
"image-button-response","294","3358026","0.0-13.0-1.78","3","Low_HMMActual","","","","","","null","","","","Images/WhiteBeadChoice.png","","null"
"image-button-response","295","3358529","0.0-13.0-2.78","3","Low_HMMActual","","","","","","null","","","","Images/WhiteBeadChoiceCorrect.png","","null"
"image-button-response","296","3359722","0.0-13.0-0.79","3","Low_HMMActual","","","","","","1185.66500002658","","","","Images/NewTrialWC.png","","2"
"image-button-response","297","3360037","0.0-13.0-1.79","3","Low_HMMActual","","","","","","null","","","","Images/WhiteBeadChoice.png","","null"
"image-button-response","298","3360541","0.0-13.0-2.79","3","Low_HMMActual","","","","","","null","","","","Images/WhiteBeadChoiceWrong.png","","null"
"image-button-response","299","3361916","0.0-13.0-0.80","3","Low_HMMActual","","","","","","1371.030000009574","","","","Images/NewTrialBC.png","","2"
"image-button-response","300","3362226","0.0-13.0-1.80","3","Low_HMMActual","","","","","","null","","","","Images/WhiteBeadChoice.png","","null"
"image-button-response","301","3362737","0.0-13.0-2.80","3","Low_HMMActual","","","","","","null","","","","Images/WhiteBeadChoiceCorrect.png","","null"
"image-button-response","302","3364296","0.0-13.0-0.81","3","Low_HMMActual","","","","","","1556.039999996312","","","","Images/NewTrialWC.png","","2"
"image-button-response","303","3364600","0.0-13.0-1.81","3","Low_HMMActual","","","","","","null","","","","Images/WhiteBeadChoice.png","","null"
"image-button-response","304","3365106","0.0-13.0-2.81","3","Low_HMMActual","","","","","","null","","","","Images/WhiteBeadChoiceCorrect.png","","null"
"image-button-response","305","3365910","0.0-13.0-0.82","3","Low_HMMActual","","","","","","799.3300000089221","","","","Images/NewTrialWC.png","","0"
"image-button-response","306","3366213","0.0-13.0-1.82","3","Low_HMMActual","","","","","","null","","","","Images/BlackBeadChoice.png","","null"
"image-button-response","307","3366715","0.0-13.0-2.82","3","Low_HMMActual","","","","","","null","","","","Images/BlackBeadChoiceWrong.png","","null"
"image-button-response","308","3367822","0.0-13.0-0.83","3","Low_HMMActual","","","","","","1102.4150000014342","","","","Images/NewTrialWC.png","","0"
"image-button-response","309","3368135","0.0-13.0-1.83","3","Low_HMMActual","","","","","","null","","","","Images/BlackBeadChoice.png","","null"
"image-button-response","310","3368641","0.0-13.0-2.83","3","Low_HMMActual","","","","","","null","","","","Images/BlackBeadChoiceCorrect.png","","null"
"image-button-response","311","3369182","0.0-13.0-0.84","3","Low_HMMActual","","","","","","538.0850000074133","","","","Images/NewTrialBC.png","","0"
"image-button-response","312","3369495","0.0-13.0-1.84","3","Low_HMMActual","","","","","","null","","","","Images/BlackBeadChoice.png","","null"
"image-button-response","313","3369998","0.0-13.0-2.84","3","Low_HMMActual","","","","","","null","","","","Images/BlackBeadChoiceWrong.png","","null"
"image-button-response","314","3370532","0.0-13.0-0.85","3","Low_HMMActual","","","","","","530.2049999879673","","","","Images/NewTrialWC.png","","2"
"image-button-response","315","3370847","0.0-13.0-1.85","3","Low_HMMActual","","","","","","null","","","","Images/WhiteBeadChoice.png","","null"
"image-button-response","316","3371355","0.0-13.0-2.85","3","Low_HMMActual","","","","","","null","","","","Images/WhiteBeadChoiceWrong.png","","null"
"image-button-response","317","3372244","0.0-13.0-0.86","3","Low_HMMActual","","","","","","886.2849999861792","","","","Images/NewTrialBC.png","","1"
"image-button-response","318","3372548","0.0-13.0-1.86","3","Low_HMMActual","","","","","","null","","","","Images/BlackBeadChoice.png","","null"
"image-button-response","319","3373058","0.0-13.0-2.86","3","Low_HMMActual","","","","","","null","","","","Images/BlackBeadChoiceCorrect.png","","null"
"image-button-response","320","3373456","0.0-13.0-0.87","3","Low_HMMActual","","","","","","393.81500001763925","","","","Images/NewTrialBC.png","","2"
"image-button-response","321","3373770","0.0-13.0-1.87","3","Low_HMMActual","","","","","","null","","","","Images/WhiteBeadChoice.png","","null"
"image-button-response","322","3374287","0.0-13.0-2.87","3","Low_HMMActual","","","","","","null","","","","Images/WhiteBeadChoiceCorrect.png","","null"
"image-button-response","323","3374718","0.0-13.0-0.88","3","Low_HMMActual","","","","","","428.4749999935739","","","","Images/NewTrialWC.png","","2"
"image-button-response","324","3375034","0.0-13.0-1.88","3","Low_HMMActual","","","","","","null","","","","Images/WhiteBeadChoice.png","","null"
"image-button-response","325","3375541","0.0-13.0-2.88","3","Low_HMMActual","","","","","","null","","","","Images/WhiteBeadChoiceCorrect.png","","null"
"image-button-response","326","3375834","0.0-13.0-0.89","3","Low_HMMActual","","","","","","288.5250000106171","","","","Images/NewTrialWC.png","","2"
"image-button-response","327","3376137","0.0-13.0-1.89","3","Low_HMMActual","","","","","","null","","","","Images/WhiteBeadChoice.png","","null"
"image-button-response","328","3376645","0.0-13.0-2.89","3","Low_HMMActual","","","","","","null","","","","Images/WhiteBeadChoiceCorrect.png","","null"
"image-button-response","329","3377091","0.0-13.0-0.90","3","Low_HMMActual","","","","","","440.8500000135973","","","","Images/NewTrialWC.png","","2"
"image-button-response","330","3377395","0.0-13.0-1.90","3","Low_HMMActual","","","","","","null","","","","Images/WhiteBeadChoice.png","","null"
"image-button-response","331","3377925","0.0-13.0-2.90","3","Low_HMMActual","","","","","","null","","","","Images/WhiteBeadChoiceCorrect.png","","null"
"image-button-response","332","3378415","0.0-13.0-0.91","3","Low_HMMActual","","","","","","485.625000001397","","","","Images/NewTrialWC.png","","2"
"image-button-response","333","3378731","0.0-13.0-1.91","3","Low_HMMActual","","","","","","null","","","","Images/WhiteBeadChoice.png","","null"
"image-button-response","334","3379250","0.0-13.0-2.91","3","Low_HMMActual","","","","","","null","","","","Images/WhiteBeadChoiceCorrect.png","","null"
"image-button-response","335","3381049","0.0-13.0-0.92","3","Low_HMMActual","","","","","","1794.5849999962375","","","","Images/NewTrialWC.png","","2"
"image-button-response","336","3381358","0.0-13.0-1.92","3","Low_HMMActual","","","","","","null","","","","Images/WhiteBeadChoice.png","","null"
"image-button-response","337","3381865","0.0-13.0-2.92","3","Low_HMMActual","","","","","","null","","","","Images/WhiteBeadChoiceCorrect.png","","null"
"image-button-response","338","3384122","0.0-13.0-0.93","3","Low_HMMActual","","","","","","2251.3749999925494","","","","Images/NewTrialWC.png","","2"
"image-button-response","339","3384426","0.0-13.0-1.93","3","Low_HMMActual","","","","","","null","","","","Images/WhiteBeadChoice.png","","null"
"image-button-response","340","3384939","0.0-13.0-2.93","3","Low_HMMActual","","","","","","null","","","","Images/WhiteBeadChoiceWrong.png","","null"
"image-button-response","341","3387880","0.0-13.0-0.94","3","Low_HMMActual","","","","","","2937.8649999853224","","","","Images/NewTrialBC.png","","1"
"image-button-response","342","3388183","0.0-13.0-1.94","3","Low_HMMActual","","","","","","null","","","","Images/BlackBeadChoice.png","","null"
"image-button-response","343","3388686","0.0-13.0-2.94","3","Low_HMMActual","","","","","","null","","","","Images/BlackBeadChoiceWrong.png","","null"
"image-button-response","344","3389497","0.0-13.0-0.95","3","Low_HMMActual","","","","","","807.1950000012293","","","","Images/NewTrialWC.png","","2"
"image-button-response","345","3389801","0.0-13.0-1.95","3","Low_HMMActual","","","","","","null","","","","Images/WhiteBeadChoice.png","","null"
"image-button-response","346","3390312","0.0-13.0-2.95","3","Low_HMMActual","","","","","","448.68999999016523","","","","Images/WhiteBeadChoiceCorrect.png","","2"
"image-button-response","347","3392346","0.0-13.0-0.96","3","Low_HMMActual","","","","","","2028.3200000124052","","","","Images/NewTrialWC.png","","2"
"image-button-response","348","3392657","0.0-13.0-1.96","3","Low_HMMActual","","","","","","null","","","","Images/WhiteBeadChoice.png","","null"
"image-button-response","349","3393665","0.0-13.0-2.96","3","Low_HMMActual","","","","","","null","","","","Images/WhiteBeadChoiceCorrect.png","","null"
"image-button-response","350","3436416","0.0-13.0-0.97","3","Low_HMMActual","","","","","","42747.95499999914","","","","Images/NewTrialWC.png","","2"
"image-button-response","351","3436720","0.0-13.0-1.97","3","Low_HMMActual","","","","","","null","","","","Images/WhiteBeadChoice.png","","null"
"image-button-response","352","3437223","0.0-13.0-2.97","3","Low_HMMActual","","","","","","null","","","","Images/WhiteBeadChoiceWrong.png","","null"
"image-button-response","353","3438369","0.0-13.0-0.98","3","Low_HMMActual","","","","","","1141.3849999951199","","","","Images/NewTrialBC.png","","2"
"image-button-response","354","3438685","0.0-13.0-1.98","3","Low_HMMActual","","","","","","null","","","","Images/WhiteBeadChoice.png","","null"
"image-button-response","355","3439190","0.0-13.0-2.98","3","Low_HMMActual","","","","","","397.85499998833984","","","","Images/WhiteBeadChoiceCorrect.png","","2"
"image-button-response","356","3439981","0.0-13.0-0.99","3","Low_HMMActual","","","","","","786.759999988135","","","","Images/NewTrialWC.png","","2"
"image-button-response","357","3440293","0.0-13.0-1.99","3","Low_HMMActual","","","","","","null","","","","Images/WhiteBeadChoice.png","","null"
"image-button-response","358","3440814","0.0-13.0-2.99","3","Low_HMMActual","","","","","","null","","","","Images/WhiteBeadChoiceCorrect.png","","null"
"image-button-response","359","3441674","0.0-13.0-0.100","3","Low_HMMActual","","","","","","856.3650000141934","","","","Images/NewTrialWC.png","","2"
"image-button-response","360","3441988","0.0-13.0-1.100","3","Low_HMMActual","","","","","","null","","","","Images/WhiteBeadChoice.png","","null"
"image-button-response","361","3442496","0.0-13.0-2.100","3","Low_HMMActual","","","","","","null","","","","Images/WhiteBeadChoiceCorrect.png","","null"
"image-button-response","362","3443532","0.0-13.0-0.101","3","Low_HMMActual","","","","","","1031.2799999956042","","","","Images/NewTrialWC.png","","2"
"image-button-response","363","3443837","0.0-13.0-1.101","3","Low_HMMActual","","","","","","null","","","","Images/WhiteBeadChoice.png","","null"
"image-button-response","364","3444357","0.0-13.0-2.101","3","Low_HMMActual","","","","","","null","","","","Images/WhiteBeadChoiceCorrect.png","","null"
"image-button-response","365","3446349","0.0-13.0-0.102","3","Low_HMMActual","","","","","","1987.3950000032783","","","","Images/NewTrialWC.png","","2"
"image-button-response","366","3446656","0.0-13.0-1.102","3","Low_HMMActual","","","","","","null","","","","Images/WhiteBeadChoice.png","","null"
"image-button-response","367","3447160","0.0-13.0-2.102","3","Low_HMMActual","","","","","","null","","","","Images/WhiteBeadChoiceCorrect.png","","null"
"image-button-response","368","3452264","0.0-13.0-0.103","3","Low_HMMActual","","","","","","5099.989999987651","","","","Images/NewTrialWC.png","","2"
"image-button-response","369","3452568","0.0-13.0-1.103","3","Low_HMMActual","","","","","","null","","","","Images/WhiteBeadChoice.png","","null"
"image-button-response","370","3453087","0.0-13.0-2.103","3","Low_HMMActual","","","","","","null","","","","Images/WhiteBeadChoiceCorrect.png","","null"
"image-button-response","371","3457289","0.0-13.0-0.104","3","Low_HMMActual","","","","","","4198.050000006333","","","","Images/NewTrialWC.png","","2"
"image-button-response","372","3457604","0.0-13.0-1.104","3","Low_HMMActual","","","","","","null","","","","Images/WhiteBeadChoice.png","","null"
"image-button-response","373","3458115","0.0-13.0-2.104","3","Low_HMMActual","","","","","","null","","","","Images/WhiteBeadChoiceCorrect.png","","null"
"image-button-response","374","3466646","0.0-13.0-0.105","3","Low_HMMActual","","","","","","8526.834999997169","","","","Images/NewTrialWC.png","","2"
"image-button-response","375","3466955","0.0-13.0-1.105","3","Low_HMMActual","","","","","","null","","","","Images/WhiteBeadChoice.png","","null"
"image-button-response","376","3467481","0.0-13.0-2.105","3","Low_HMMActual","","","","","","null","","","","Images/WhiteBeadChoiceWrong.png","","null"
"image-button-response","377","3468387","0.0-13.0-0.106","3","Low_HMMActual","","","","","","902.5099999858066","","","","Images/NewTrialBC.png","","2"
"image-button-response","378","3468705","0.0-13.0-1.106","3","Low_HMMActual","","","","","","null","","","","Images/WhiteBeadChoice.png","","null"
"image-button-response","379","3469208","0.0-13.0-2.106","3","Low_HMMActual","","","","","","null","","","","Images/WhiteBeadChoiceCorrect.png","","null"
"image-button-response","380","3470860","0.0-13.0-0.107","3","Low_HMMActual","","","","","","1647.8749999953434","","","","Images/NewTrialWC.png","","1"
"image-button-response","381","3471164","0.0-13.0-1.107","3","Low_HMMActual","","","","","","null","","","","Images/BlackBeadChoice.png","","null"
"image-button-response","382","3471667","0.0-13.0-2.107","3","Low_HMMActual","","","","","","null","","","","Images/BlackBeadChoiceWrong.png","","null"
"image-button-response","383","3473212","0.0-13.0-0.108","3","Low_HMMActual","","","","","","1537.7649999861605","","","","Images/NewTrialWC.png","","1"
"image-button-response","384","3473515","0.0-13.0-1.108","3","Low_HMMActual","","","","","","null","","","","Images/BlackBeadChoice.png","","null"
"image-button-response","385","3474034","0.0-13.0-2.108","3","Low_HMMActual","","","","","","null","","","","Images/BlackBeadChoiceCorrect.png","","null"
"image-button-response","386","3474873","0.0-13.0-0.109","3","Low_HMMActual","","","","","","835.8899999875575","","","","Images/NewTrialBC.png","","0"
"image-button-response","387","3475179","0.0-13.0-1.109","3","Low_HMMActual","","","","","","null","","","","Images/BlackBeadChoice.png","","null"
"image-button-response","388","3475683","0.0-13.0-2.109","3","Low_HMMActual","","","","","","null","","","","Images/BlackBeadChoiceWrong.png","","null"
"image-button-response","389","3476575","0.0-13.0-0.110","3","Low_HMMActual","","","","","","883.2049999912269","","","","Images/NewTrialWC.png","","2"
"image-button-response","390","3476878","0.0-13.0-1.110","3","Low_HMMActual","","","","","","null","","","","Images/WhiteBeadChoice.png","","null"
"image-button-response","391","3477391","0.0-13.0-2.110","3","Low_HMMActual","","","","","","null","","","","Images/WhiteBeadChoiceCorrect.png","","null"
"image-button-response","392","3481937","0.0-13.0-0.111","3","Low_HMMActual","","","","","","4542.379999998957","","","","Images/NewTrialWC.png","","2"
"image-button-response","393","3482244","0.0-13.0-1.111","3","Low_HMMActual","","","","","","null","","","","Images/WhiteBeadChoice.png","","null"
"image-button-response","394","3482763","0.0-13.0-2.111","3","Low_HMMActual","","","","","","390.8749999832362","","","","Images/WhiteBeadChoiceCorrect.png","","2"
"image-button-response","395","3484106","0.0-13.0-0.112","3","Low_HMMActual","","","","","","1337.96999999322","","","","Images/NewTrialWC.png","","2"
"image-button-response","396","3484411","0.0-13.0-1.112","3","Low_HMMActual","","","","","","null","","","","Images/WhiteBeadChoice.png","","null"
"image-button-response","397","3484917","0.0-13.0-2.112","3","Low_HMMActual","","","","","","null","","","","Images/WhiteBeadChoiceCorrect.png","","null"
"image-button-response","398","3485159","0.0-13.0-0.113","3","Low_HMMActual","","","","","","235.68499999213964","","","","Images/NewTrialWC.png","","2"
"image-button-response","399","3485468","0.0-13.0-1.113","3","Low_HMMActual","","","","","","null","","","","Images/WhiteBeadChoice.png","","null"
"image-button-response","400","3485976","0.0-13.0-2.113","3","Low_HMMActual","","","","","","null","","","","Images/WhiteBeadChoiceCorrect.png","","null"
"image-button-response","401","3486955","0.0-13.0-0.114","3","Low_HMMActual","","","","","","975.5650000008754","","","","Images/NewTrialWC.png","","2"
"image-button-response","402","3487259","0.0-13.0-1.114","3","Low_HMMActual","","","","","","null","","","","Images/WhiteBeadChoice.png","","null"
"image-button-response","403","3487767","0.0-13.0-2.114","3","Low_HMMActual","","","","","","null","","","","Images/WhiteBeadChoiceWrong.png","","null"
"image-button-response","404","3489668","0.0-13.0-0.115","3","Low_HMMActual","","","","","","1897.4900000030175","","","","Images/NewTrialBC.png","","3"
"image-button-response","405","3489974","0.0-13.0-1.115","3","Low_HMMActual","","","","","","null","","","","Images/WhiteBeadChoice.png","","null"
"image-button-response","406","3490489","0.0-13.0-2.115","3","Low_HMMActual","","","","","","null","","","","Images/WhiteBeadChoiceWrong.png","","null"
"image-button-response","407","3491425","0.0-13.0-0.116","3","Low_HMMActual","","","","","","930.290000018198","","","","Images/NewTrialBC.png","","2"
"image-button-response","408","3491729","0.0-13.0-1.116","3","Low_HMMActual","","","","","","null","","","","Images/WhiteBeadChoice.png","","null"
"image-button-response","409","3492241","0.0-13.0-2.116","3","Low_HMMActual","","","","","","null","","","","Images/WhiteBeadChoiceWrong.png","","null"
"image-button-response","410","3492827","0.0-13.0-0.117","3","Low_HMMActual","","","","","","582.5199999962933","","","","Images/NewTrialBC.png","","1"
"image-button-response","411","3493140","0.0-13.0-1.117","3","Low_HMMActual","","","","","","null","","","","Images/BlackBeadChoice.png","","null"
"image-button-response","412","3493643","0.0-13.0-2.117","3","Low_HMMActual","","","","","","null","","","","Images/BlackBeadChoiceCorrect.png","","null"
"image-button-response","413","3493878","0.0-13.0-0.118","3","Low_HMMActual","","","","","","231.92499999981374","","","","Images/NewTrialBC.png","","0"
"image-button-response","414","3494197","0.0-13.0-1.118","3","Low_HMMActual","","","","","","null","","","","Images/BlackBeadChoice.png","","null"
"image-button-response","415","3494706","0.0-13.0-2.118","3","Low_HMMActual","","","","","","null","","","","Images/BlackBeadChoiceCorrect.png","","null"
"image-button-response","416","3495745","0.0-13.0-0.119","3","Low_HMMActual","","","","","","1030.129999998957","","","","Images/NewTrialBC.png","","0"
"image-button-response","417","3496051","0.0-13.0-1.119","3","Low_HMMActual","","","","","","null","","","","Images/BlackBeadChoice.png","","null"
"image-button-response","418","3496559","0.0-13.0-2.119","3","Low_HMMActual","","","","","","null","","","","Images/BlackBeadChoiceWrong.png","","null"
"image-button-response","419","3497414","0.0-13.0-0.120","3","Low_HMMActual","","","","","","852.1400000024587","","","","Images/NewTrialWC.png","","0"
"image-button-response","420","3497725","0.0-13.0-1.120","3","Low_HMMActual","","","","","","null","","","","Images/BlackBeadChoice.png","","null"
"image-button-response","421","3498234","0.0-13.0-2.120","3","Low_HMMActual","","","","","","null","","","","Images/BlackBeadChoiceCorrect.png","","null"
"image-button-response","422","3498866","0.0-13.0-0.121","3","Low_HMMActual","","","","","","629.4599999967031","","","","Images/NewTrialBC.png","","0"
"image-button-response","423","3499182","0.0-13.0-1.121","3","Low_HMMActual","","","","","","null","","","","Images/BlackBeadChoice.png","","null"
"image-button-response","424","3499704","0.0-13.0-2.121","3","Low_HMMActual","","","","","","null","","","","Images/BlackBeadChoiceCorrect.png","","null"
"image-button-response","425","3500247","0.0-13.0-0.122","3","Low_HMMActual","","","","","","539.760000014212","","","","Images/NewTrialBC.png","","0"
"image-button-response","426","3500557","0.0-13.0-1.122","3","Low_HMMActual","","","","","","null","","","","Images/BlackBeadChoice.png","","null"
"image-button-response","427","3501061","0.0-13.0-2.122","3","Low_HMMActual","","","","","","null","","","","Images/BlackBeadChoiceCorrect.png","","null"
"image-button-response","428","3502552","0.0-13.0-0.123","3","Low_HMMActual","","","","","","1480.7499999878928","","","","Images/NewTrialBC.png","","0"
"image-button-response","429","3502855","0.0-13.0-1.123","3","Low_HMMActual","","","","","","null","","","","Images/BlackBeadChoice.png","","null"
"image-button-response","430","3503374","0.0-13.0-2.123","3","Low_HMMActual","","","","","","null","","","","Images/BlackBeadChoiceCorrect.png","","null"
"image-button-response","431","3504477","0.0-13.0-0.124","3","Low_HMMActual","","","","","","1099.9949999973178","","","","Images/NewTrialBC.png","","0"
"image-button-response","432","3504782","0.0-13.0-1.124","3","Low_HMMActual","","","","","","null","","","","Images/BlackBeadChoice.png","","null"
"image-button-response","433","3505288","0.0-13.0-2.124","3","Low_HMMActual","","","","","","null","","","","Images/BlackBeadChoiceWrong.png","","null"
"image-button-response","434","3506622","0.0-13.0-0.125","3","Low_HMMActual","","","","","","1331.2150000128895","","","","Images/NewTrialWC.png","","2"
"image-button-response","435","3506931","0.0-13.0-1.125","3","Low_HMMActual","","","","","","null","","","","Images/WhiteBeadChoice.png","","null"
"image-button-response","436","3507437","0.0-13.0-2.125","3","Low_HMMActual","","","","","","null","","","","Images/WhiteBeadChoiceWrong.png","","null"
"image-button-response","437","3508231","0.0-13.0-0.126","3","Low_HMMActual","","","","","","782.2900000028312","","","","Images/NewTrialBC.png","","0"
"image-button-response","438","3508538","0.0-13.0-1.126","3","Low_HMMActual","","","","","","null","","","","Images/BlackBeadChoice.png","","null"
"image-button-response","439","3509044","0.0-13.0-2.126","3","Low_HMMActual","","","","","","null","","","","Images/BlackBeadChoiceCorrect.png","","null"
"image-button-response","440","3509238","0.0-13.0-0.127","3","Low_HMMActual","","","","","","191.87499998975545","","","","Images/NewTrialBC.png","","0"
"image-button-response","441","3509553","0.0-13.0-1.127","3","Low_HMMActual","","","","","","null","","","","Images/BlackBeadChoice.png","","null"
"image-button-response","442","3510060","0.0-13.0-2.127","3","Low_HMMActual","","","","","","null","","","","Images/BlackBeadChoiceCorrect.png","","null"
"image-button-response","443","3511220","0.0-13.0-0.128","3","Low_HMMActual","","","","","","1155.5700000026263","","","","Images/NewTrialBC.png","","0"
"image-button-response","444","3511524","0.0-13.0-1.128","3","Low_HMMActual","","","","","","null","","","","Images/BlackBeadChoice.png","","null"
"image-button-response","445","3512041","0.0-13.0-2.128","3","Low_HMMActual","","","","","","null","","","","Images/BlackBeadChoiceCorrect.png","","null"
"image-button-response","446","3512897","0.0-13.0-0.129","3","Low_HMMActual","","","","","","853.2799999816343","","","","Images/NewTrialBC.png","","0"
"image-button-response","447","3513212","0.0-13.0-1.129","3","Low_HMMActual","","","","","","null","","","","Images/BlackBeadChoice.png","","null"
"image-button-response","448","3513729","0.0-13.0-2.129","3","Low_HMMActual","","","","","","null","","","","Images/BlackBeadChoiceCorrect.png","","null"
"image-button-response","449","3521585","0.0-13.0-0.130","3","Low_HMMActual","","","","","","7852.754999999888","","","","Images/NewTrialBC.png","","0"
"image-button-response","450","3521890","0.0-13.0-1.130","3","Low_HMMActual","","","","","","null","","","","Images/BlackBeadChoice.png","","null"
"image-button-response","451","3522395","0.0-13.0-2.130","3","Low_HMMActual","","","","","","null","","","","Images/BlackBeadChoiceCorrect.png","","null"
"image-button-response","452","3523458","0.0-13.0-0.131","3","Low_HMMActual","","","","","","1059.2049999972805","","","","Images/NewTrialBC.png","","0"
"image-button-response","453","3523763","0.0-13.0-1.131","3","Low_HMMActual","","","","","","null","","","","Images/BlackBeadChoice.png","","null"
"image-button-response","454","3524276","0.0-13.0-2.131","3","Low_HMMActual","","","","","","null","","","","Images/BlackBeadChoiceCorrect.png","","null"
"image-button-response","455","3526803","0.0-13.0-0.132","3","Low_HMMActual","","","","","","2523.0199999934994","","","","Images/NewTrialBC.png","","0"
"image-button-response","456","3527116","0.0-13.0-1.132","3","Low_HMMActual","","","","","","null","","","","Images/BlackBeadChoice.png","","null"
"image-button-response","457","3527624","0.0-13.0-2.132","3","Low_HMMActual","","","","","","null","","","","Images/BlackBeadChoiceCorrect.png","","null"
"image-button-response","458","3530098","0.0-13.0-0.133","3","Low_HMMActual","","","","","","2470.6350000053644","","","","Images/NewTrialBC.png","","0"
"image-button-response","459","3530410","0.0-13.0-1.133","3","Low_HMMActual","","","","","","null","","","","Images/BlackBeadChoice.png","","null"
"image-button-response","460","3530916","0.0-13.0-2.133","3","Low_HMMActual","","","","","","null","","","","Images/BlackBeadChoiceCorrect.png","","null"
"image-button-response","461","3533637","0.0-13.0-0.134","3","Low_HMMActual","","","","","","2717.1200000159442","","","","Images/NewTrialBC.png","","0"
"image-button-response","462","3533942","0.0-13.0-1.134","3","Low_HMMActual","","","","","","null","","","","Images/BlackBeadChoice.png","","null"
"image-button-response","463","3534448","0.0-13.0-2.134","3","Low_HMMActual","","","","","","null","","","","Images/BlackBeadChoiceWrong.png","","null"
"image-button-response","464","3535055","0.0-13.0-0.135","3","Low_HMMActual","","","","","","604.1400000099093","","","","Images/NewTrialWC.png","","3"
"image-button-response","465","3535368","0.0-13.0-1.135","3","Low_HMMActual","","","","","","null","","","","Images/WhiteBeadChoice.png","","null"
"image-button-response","466","3535877","0.0-13.0-2.135","3","Low_HMMActual","","","","","","null","","","","Images/WhiteBeadChoiceWrong.png","","null"
"image-button-response","467","3536924","0.0-13.0-0.136","3","Low_HMMActual","","","","","","1044.2450000261888","","","","Images/NewTrialBC.png","","0"
"image-button-response","468","3537236","0.0-13.0-1.136","3","Low_HMMActual","","","","","","null","","","","Images/BlackBeadChoice.png","","null"
"image-button-response","469","3537746","0.0-13.0-2.136","3","Low_HMMActual","","","","","","null","","","","Images/BlackBeadChoiceCorrect.png","","null"
"image-button-response","470","3538605","0.0-13.0-0.137","3","Low_HMMActual","","","","","","854.9249999923632","","","","Images/NewTrialBC.png","","0"
"image-button-response","471","3538917","0.0-13.0-1.137","3","Low_HMMActual","","","","","","null","","","","Images/BlackBeadChoice.png","","null"
"image-button-response","472","3539426","0.0-13.0-2.137","3","Low_HMMActual","","","","","","null","","","","Images/BlackBeadChoiceWrong.png","","null"
"image-button-response","473","3540450","0.0-13.0-0.138","3","Low_HMMActual","","","","","","1020.4000000087544","","","","Images/NewTrialWC.png","","2"
"image-button-response","474","3540754","0.0-13.0-1.138","3","Low_HMMActual","","","","","","null","","","","Images/WhiteBeadChoice.png","","null"
"image-button-response","475","3541269","0.0-13.0-2.138","3","Low_HMMActual","","","","","","null","","","","Images/WhiteBeadChoiceCorrect.png","","null"
"image-button-response","476","3541699","0.0-13.0-0.139","3","Low_HMMActual","","","","","","417.88999998243526","","","","Images/NewTrialWC.png","","2"
"image-button-response","477","3542013","0.0-13.0-1.139","3","Low_HMMActual","","","","","","null","","","","Images/WhiteBeadChoice.png","","null"
"image-button-response","478","3542519","0.0-13.0-2.139","3","Low_HMMActual","","","","","","null","","","","Images/WhiteBeadChoiceWrong.png","","null"
"image-button-response","479","3546008","0.0-13.0-0.140","3","Low_HMMActual","","","","","","3485.0900000021793","","","","Images/NewTrialBC.png","","1"
"image-button-response","480","3546325","0.0-13.0-1.140","3","Low_HMMActual","","","","","","null","","","","Images/BlackBeadChoice.png","","null"
"image-button-response","481","3546845","0.0-13.0-2.140","3","Low_HMMActual","","","","","","null","","","","Images/BlackBeadChoiceWrong.png","","null"
"image-button-response","482","3547325","0.0-13.0-0.141","3","Low_HMMActual","","","","","","477.0499999867752","","","","Images/NewTrialWC.png","","1"
"image-button-response","483","3547636","0.0-13.0-1.141","3","Low_HMMActual","","","","","","null","","","","Images/BlackBeadChoice.png","","null"
"image-button-response","484","3548145","0.0-13.0-2.141","3","Low_HMMActual","","","","","","null","","","","Images/BlackBeadChoiceCorrect.png","","null"
"image-button-response","485","3548894","0.0-13.0-0.142","3","Low_HMMActual","","","","","","745.3450000029989","","","","Images/NewTrialBC.png","","0"
"image-button-response","486","3549206","0.0-13.0-1.142","3","Low_HMMActual","","","","","","null","","","","Images/BlackBeadChoice.png","","null"
"image-button-response","487","3549713","0.0-13.0-2.142","3","Low_HMMActual","","","","","","null","","","","Images/BlackBeadChoiceCorrect.png","","null"
"image-button-response","488","3550386","0.0-13.0-0.143","3","Low_HMMActual","","","","","","669.1649999991059","","","","Images/NewTrialBC.png","","0"
"image-button-response","489","3550691","0.0-13.0-1.143","3","Low_HMMActual","","","","","","null","","","","Images/BlackBeadChoice.png","","null"
"image-button-response","490","3551200","0.0-13.0-2.143","3","Low_HMMActual","","","","","","null","","","","Images/BlackBeadChoiceCorrect.png","","null"
"image-button-response","491","3552699","0.0-13.0-0.144","3","Low_HMMActual","","","","","","1491.7750000022352","","","","Images/NewTrialBC.png","","0"
"image-button-response","492","3553004","0.0-13.0-1.144","3","Low_HMMActual","","","","","","null","","","","Images/BlackBeadChoice.png","","null"
"image-button-response","493","3553512","0.0-13.0-2.144","3","Low_HMMActual","","","","","","null","","","","Images/BlackBeadChoiceCorrect.png","","null"
"image-button-response","494","3555806","0.0-13.0-0.145","3","Low_HMMActual","","","","","","2290.09500000393","","","","Images/NewTrialBC.png","","0"
"image-button-response","495","3556136","0.0-13.0-1.145","3","Low_HMMActual","","","","","","null","","","","Images/BlackBeadChoice.png","","null"
"image-button-response","496","3556640","0.0-13.0-2.145","3","Low_HMMActual","","","","","","null","","","","Images/BlackBeadChoiceWrong.png","","null"
"image-button-response","497","3558722","0.0-13.0-0.146","3","Low_HMMActual","","","","","","2078.475000016857","","","","Images/NewTrialWC.png","","2"
"image-button-response","498","3559033","0.0-13.0-1.146","3","Low_HMMActual","","","","","","null","","","","Images/WhiteBeadChoice.png","","null"
"image-button-response","499","3559537","0.0-13.0-2.146","3","Low_HMMActual","","","","","","null","","","","Images/WhiteBeadChoiceWrong.png","","null"
"image-button-response","500","3560075","0.0-13.0-0.147","3","Low_HMMActual","","","","","","529.2900000056252","","","","Images/NewTrialBC.png","","0"
"image-button-response","501","3560389","0.0-13.0-1.147","3","Low_HMMActual","","","","","","null","","","","Images/BlackBeadChoice.png","","null"
"image-button-response","502","3560895","0.0-13.0-2.147","3","Low_HMMActual","","","","","","null","","","","Images/BlackBeadChoiceWrong.png","","null"
"image-button-response","503","3561740","0.0-13.0-0.148","3","Low_HMMActual","","","","","","841.855000006035","","","","Images/NewTrialWC.png","","0"
"image-button-response","504","3562050","0.0-13.0-1.148","3","Low_HMMActual","","","","","","null","","","","Images/BlackBeadChoice.png","","null"
"image-button-response","505","3562557","0.0-13.0-2.148","3","Low_HMMActual","","","","","","null","","","","Images/BlackBeadChoiceCorrect.png","","null"
"image-button-response","506","3563660","0.0-13.0-0.149","3","Low_HMMActual","","","","","","1100.2299999818206","","","","Images/NewTrialBC.png","","0"
"image-button-response","507","3563966","0.0-13.0-1.149","3","Low_HMMActual","","","","","","null","","","","Images/BlackBeadChoice.png","","null"
"image-button-response","508","3564475","0.0-13.0-2.149","3","Low_HMMActual","","","","","","null","","","","Images/BlackBeadChoiceCorrect.png","","null"
"image-button-response","509","3565293","0.0-13.0-0.150","3","Low_HMMActual","","","","","","814.574999996461","","","","Images/NewTrialBC.png","","0"
"image-button-response","510","3565613","0.0-13.0-1.150","3","Low_HMMActual","","","","","","null","","","","Images/BlackBeadChoice.png","","null"
"image-button-response","511","3566118","0.0-13.0-2.150","3","Low_HMMActual","","","","","","null","","","","Images/BlackBeadChoiceCorrect.png","","null"
"image-button-response","512","3566371","0.0-13.0-0.151","3","Low_HMMActual","","","","","","249.12499997299165","","","","Images/NewTrialBC.png","","0"
"image-button-response","513","3566683","0.0-13.0-1.151","3","Low_HMMActual","","","","","","null","","","","Images/BlackBeadChoice.png","","null"
"image-button-response","514","3567194","0.0-13.0-2.151","3","Low_HMMActual","","","","","","null","","","","Images/BlackBeadChoiceCorrect.png","","null"
"image-button-response","515","3567502","0.0-13.0-0.152","3","Low_HMMActual","","","","","","304.6599999940954","","","","Images/NewTrialBC.png","","0"
"image-button-response","516","3567823","0.0-13.0-1.152","3","Low_HMMActual","","","","","","null","","","","Images/BlackBeadChoice.png","","null"
"image-button-response","517","3568329","0.0-13.0-2.152","3","Low_HMMActual","","","","","","null","","","","Images/BlackBeadChoiceWrong.png","","null"
"image-button-response","518","3570687","0.0-13.0-0.153","3","Low_HMMActual","","","","","","2355.619999987539","","","","Images/NewTrialWC.png","","0"
"image-button-response","519","3570993","0.0-13.0-1.153","3","Low_HMMActual","","","","","","null","","","","Images/BlackBeadChoice.png","","null"
"image-button-response","520","3571496","0.0-13.0-2.153","3","Low_HMMActual","","","","","","424.36000000406057","","","","Images/BlackBeadChoiceCorrect.png","","0"
"image-button-response","521","3573204","0.0-13.0-0.154","3","Low_HMMActual","","","","","","1703.5850000102073","","","","Images/NewTrialBC.png","","0"
"image-button-response","522","3573512","0.0-13.0-1.154","3","Low_HMMActual","","","","","","null","","","","Images/BlackBeadChoice.png","","null"
"image-button-response","523","3574017","0.0-13.0-2.154","3","Low_HMMActual","","","","","","null","","","","Images/BlackBeadChoiceCorrect.png","","null"
"image-button-response","524","3574698","0.0-13.0-0.155","3","Low_HMMActual","","","","","","677.9000000096858","","","","Images/NewTrialBC.png","","0"
"image-button-response","525","3575023","0.0-13.0-1.155","3","Low_HMMActual","","","","","","null","","","","Images/BlackBeadChoice.png","","null"
"image-button-response","526","3575538","0.0-13.0-2.155","3","Low_HMMActual","","","","","","null","","","","Images/BlackBeadChoiceCorrect.png","","null"
"image-button-response","527","3576050","0.0-13.0-0.156","3","Low_HMMActual","","","","","","510.489999985788","","","","Images/NewTrialBC.png","","0"
"image-button-response","528","3576362","0.0-13.0-1.156","3","Low_HMMActual","","","","","","null","","","","Images/BlackBeadChoice.png","","null"
"image-button-response","529","3576865","0.0-13.0-2.156","3","Low_HMMActual","","","","","","null","","","","Images/BlackBeadChoiceWrong.png","","null"
"image-button-response","530","3577868","0.0-13.0-0.157","3","Low_HMMActual","","","","","","999.8699999996461","","","","Images/NewTrialWC.png","","2"
"image-button-response","531","3578178","0.0-13.0-1.157","3","Low_HMMActual","","","","","","null","","","","Images/WhiteBeadChoice.png","","null"
"image-button-response","532","3578684","0.0-13.0-2.157","3","Low_HMMActual","","","","","","null","","","","Images/WhiteBeadChoiceCorrect.png","","null"
"image-button-response","533","3579524","0.0-13.0-0.158","3","Low_HMMActual","","","","","","836.040000023786","","","","Images/NewTrialWC.png","","2"
"image-button-response","534","3579839","0.0-13.0-1.158","3","Low_HMMActual","","","","","","null","","","","Images/WhiteBeadChoice.png","","null"
"image-button-response","535","3580347","0.0-13.0-2.158","3","Low_HMMActual","","","","","","null","","","","Images/WhiteBeadChoiceCorrect.png","","null"
"image-button-response","536","3581850","0.0-13.0-0.159","3","Low_HMMActual","","","","","","1498.8200000082143","","","","Images/NewTrialWC.png","","2"
"image-button-response","537","3582157","0.0-13.0-1.159","3","Low_HMMActual","","","","","","null","","","","Images/WhiteBeadChoice.png","","null"
"image-button-response","538","3582663","0.0-13.0-2.159","3","Low_HMMActual","","","","","","null","","","","Images/WhiteBeadChoiceWrong.png","","null"
"image-button-response","539","3583777","0.0-13.0-0.160","3","Low_HMMActual","","","","","","1106.5200000014156","","","","Images/NewTrialBC.png","","1"
"image-button-response","540","3584080","0.0-13.0-1.160","3","Low_HMMActual","","","","","","null","","","","Images/BlackBeadChoice.png","","null"
"image-button-response","541","3584588","0.0-13.0-2.160","3","Low_HMMActual","","","","","","null","","","","Images/BlackBeadChoiceCorrect.png","","null"
"image-button-response","542","3584990","0.0-13.0-0.161","3","Low_HMMActual","","","","","","398.4899999923073","","","","Images/NewTrialBC.png","","0"
"image-button-response","543","3585297","0.0-13.0-1.161","3","Low_HMMActual","","","","","","null","","","","Images/BlackBeadChoice.png","","null"
"image-button-response","544","3585803","0.0-13.0-2.161","3","Low_HMMActual","","","","","","null","","","","Images/BlackBeadChoiceCorrect.png","","null"
"image-button-response","545","3586251","0.0-13.0-0.162","3","Low_HMMActual","","","","","","444.45499998982996","","","","Images/NewTrialBC.png","","0"
"image-button-response","546","3586560","0.0-13.0-1.162","3","Low_HMMActual","","","","","","null","","","","Images/BlackBeadChoice.png","","null"
"image-button-response","547","3587069","0.0-13.0-2.162","3","Low_HMMActual","","","","","","null","","","","Images/BlackBeadChoiceCorrect.png","","null"
"image-button-response","548","3587720","0.0-13.0-0.163","3","Low_HMMActual","","","","","","644.1200000117533","","","","Images/NewTrialBC.png","","0"
"image-button-response","549","3588034","0.0-13.0-1.163","3","Low_HMMActual","","","","","","null","","","","Images/BlackBeadChoice.png","","null"
"image-button-response","550","3588541","0.0-13.0-2.163","3","Low_HMMActual","","","","","","null","","","","Images/BlackBeadChoiceWrong.png","","null"
"image-button-response","551","3589681","0.0-13.0-0.164","3","Low_HMMActual","","","","","","1137.4849999849685","","","","Images/NewTrialWC.png","","3"
"image-button-response","552","3589994","0.0-13.0-1.164","3","Low_HMMActual","","","","","","null","","","","Images/WhiteBeadChoice.png","","null"
"image-button-response","553","3590498","0.0-13.0-2.164","3","Low_HMMActual","","","","","","null","","","","Images/WhiteBeadChoiceWrong.png","","null"
"image-button-response","554","3590950","0.0-13.0-0.165","3","Low_HMMActual","","","","","","446.89500000094995","","","","Images/NewTrialBC.png","","0"
"image-button-response","555","3591267","0.0-13.0-1.165","3","Low_HMMActual","","","","","","null","","","","Images/BlackBeadChoice.png","","null"
"image-button-response","556","3591775","0.0-13.0-2.165","3","Low_HMMActual","","","","","","null","","","","Images/BlackBeadChoiceCorrect.png","","null"
"image-button-response","557","3592038","0.0-13.0-0.166","3","Low_HMMActual","","","","","","256.28999999025837","","","","Images/NewTrialBC.png","","0"
"image-button-response","558","3592344","0.0-13.0-1.166","3","Low_HMMActual","","","","","","null","","","","Images/BlackBeadChoice.png","","null"
"image-button-response","559","3592850","0.0-13.0-2.166","3","Low_HMMActual","","","","","","null","","","","Images/BlackBeadChoiceCorrect.png","","null"
"image-button-response","560","3593610","0.0-13.0-0.167","3","Low_HMMActual","","","","","","757.2450000150129","","","","Images/NewTrialBC.png","","0"
"image-button-response","561","3593923","0.0-13.0-1.167","3","Low_HMMActual","","","","","","null","","","","Images/BlackBeadChoice.png","","null"
"image-button-response","562","3594428","0.0-13.0-2.167","3","Low_HMMActual","","","","","","null","","","","Images/BlackBeadChoiceCorrect.png","","null"
"image-button-response","563","3601710","0.0-13.0-0.168","3","Low_HMMActual","","","","","","7278.625000006054","","","","Images/NewTrialBC.png","","0"
"image-button-response","564","3602025","0.0-13.0-1.168","3","Low_HMMActual","","","","","","null","","","","Images/BlackBeadChoice.png","","null"
"image-button-response","565","3602530","0.0-13.0-2.168","3","Low_HMMActual","","","","","","null","","","","Images/BlackBeadChoiceCorrect.png","","null"
"image-button-response","566","3603246","0.0-13.0-0.169","3","Low_HMMActual","","","","","","708.8649999932386","","","","Images/NewTrialBC.png","","0"
"image-button-response","567","3603559","0.0-13.0-1.169","3","Low_HMMActual","","","","","","null","","","","Images/BlackBeadChoice.png","","null"
"image-button-response","568","3604068","0.0-13.0-2.169","3","Low_HMMActual","","","","","","null","","","","Images/BlackBeadChoiceCorrect.png","","null"
"image-button-response","569","3605196","0.0-13.0-0.170","3","Low_HMMActual","","","","","","1124.4500000029802","","","","Images/NewTrialBC.png","","2"
"image-button-response","570","3605503","0.0-13.0-1.170","3","Low_HMMActual","","","","","","null","","","","Images/WhiteBeadChoice.png","","null"
"image-button-response","571","3606009","0.0-13.0-2.170","3","Low_HMMActual","","","","","","null","","","","Images/WhiteBeadChoiceCorrect.png","","null"
"image-button-response","572","3606741","0.0-13.0-0.171","3","Low_HMMActual","","","","","","727.9900000137277","","","","Images/NewTrialWC.png","","2"
"image-button-response","573","3607054","0.0-13.0-1.171","3","Low_HMMActual","","","","","","null","","","","Images/WhiteBeadChoice.png","","null"
"image-button-response","574","3607557","0.0-13.0-2.171","3","Low_HMMActual","","","","","","null","","","","Images/WhiteBeadChoiceWrong.png","","null"
"image-button-response","575","3608245","0.0-13.0-0.172","3","Low_HMMActual","","","","","","684.4149999958463","","","","Images/NewTrialBC.png","","0"
"image-button-response","576","3608548","0.0-13.0-1.172","3","Low_HMMActual","","","","","","null","","","","Images/BlackBeadChoice.png","","null"
"image-button-response","577","3609056","0.0-13.0-2.172","3","Low_HMMActual","","","","","","null","","","","Images/BlackBeadChoiceCorrect.png","","null"
"image-button-response","578","3609594","0.0-13.0-0.173","3","Low_HMMActual","","","","","","525.9400000213645","","","","Images/NewTrialBC.png","","0"
"image-button-response","579","3609898","0.0-13.0-1.173","3","Low_HMMActual","","","","","","null","","","","Images/BlackBeadChoice.png","","null"
"image-button-response","580","3610415","0.0-13.0-2.173","3","Low_HMMActual","","","","","","null","","","","Images/BlackBeadChoiceWrong.png","","null"
"image-button-response","581","3612752","0.0-13.0-0.174","3","Low_HMMActual","","","","","","2334.9850000231527","","","","Images/NewTrialWC.png","","1"
"image-button-response","582","3613057","0.0-13.0-1.174","3","Low_HMMActual","","","","","","null","","","","Images/BlackBeadChoice.png","","null"
"image-button-response","583","3613570","0.0-13.0-2.174","3","Low_HMMActual","","","","","","null","","","","Images/BlackBeadChoiceCorrect.png","","null"
"image-button-response","584","3614372","0.0-13.0-0.175","3","Low_HMMActual","","","","","","798.3349999994971","","","","Images/NewTrialBC.png","","0"
"image-button-response","585","3614685","0.0-13.0-1.175","3","Low_HMMActual","","","","","","null","","","","Images/BlackBeadChoice.png","","null"
"image-button-response","586","3615197","0.0-13.0-2.175","3","Low_HMMActual","","","","","","null","","","","Images/BlackBeadChoiceWrong.png","","null"
"image-button-response","587","3615753","0.0-13.0-0.176","3","Low_HMMActual","","","","","","552.4999999906868","","","","Images/NewTrialWC.png","","3"
"image-button-response","588","3616057","0.0-13.0-1.176","3","Low_HMMActual","","","","","","null","","","","Images/WhiteBeadChoice.png","","null"
"image-button-response","589","3616560","0.0-13.0-2.176","3","Low_HMMActual","","","","","","null","","","","Images/WhiteBeadChoiceWrong.png","","null"
"image-button-response","590","3616953","0.0-13.0-0.177","3","Low_HMMActual","","","","","","388.52000000793487","","","","Images/NewTrialBC.png","","2"
"image-button-response","591","3617257","0.0-13.0-1.177","3","Low_HMMActual","","","","","","null","","","","Images/WhiteBeadChoice.png","","null"
"image-button-response","592","3617779","0.0-13.0-2.177","3","Low_HMMActual","","","","","","null","","","","Images/WhiteBeadChoiceWrong.png","","null"
"image-button-response","593","3618681","0.0-13.0-0.178","3","Low_HMMActual","","","","","","898.6699999948032","","","","Images/NewTrialBC.png","","0"
"image-button-response","594","3618989","0.0-13.0-1.178","3","Low_HMMActual","","","","","","null","","","","Images/BlackBeadChoice.png","","null"
"image-button-response","595","3619505","0.0-13.0-2.178","3","Low_HMMActual","","","","","","null","","","","Images/BlackBeadChoiceWrong.png","","null"
"image-button-response","596","3620083","0.0-13.0-0.179","3","Low_HMMActual","","","","","","574.0050000026822","","","","Images/NewTrialWC.png","","2"
"image-button-response","597","3620386","0.0-13.0-1.179","3","Low_HMMActual","","","","","","null","","","","Images/WhiteBeadChoice.png","","null"
"image-button-response","598","3620892","0.0-13.0-2.179","3","Low_HMMActual","","","","","","null","","","","Images/WhiteBeadChoiceWrong.png","","null"
"image-button-response","599","3622667","0.0-13.0-0.180","3","Low_HMMActual","","","","","","1770.4749999977648","","","","Images/NewTrialBC.png","","0"
"image-button-response","600","3622979","0.0-13.0-1.180","3","Low_HMMActual","","","","","","null","","","","Images/BlackBeadChoice.png","","null"
"image-button-response","601","3623487","0.0-13.0-2.180","3","Low_HMMActual","","","","","","null","","","","Images/BlackBeadChoiceWrong.png","","null"
"image-button-response","602","3624889","0.0-13.0-0.181","3","Low_HMMActual","","","","","","1398.589999997057","","","","Images/NewTrialWC.png","","2"
"image-button-response","603","3625207","0.0-13.0-1.181","3","Low_HMMActual","","","","","","null","","","","Images/WhiteBeadChoice.png","","null"
"image-button-response","604","3625711","0.0-13.0-2.181","3","Low_HMMActual","","","","","","490.04000000469387","","","","Images/WhiteBeadChoiceCorrect.png","","2"
"image-button-response","605","3628166","0.0-13.0-0.182","3","Low_HMMActual","","","","","","2450.394999992568","","","","Images/NewTrialWC.png","","2"
"image-button-response","606","3628472","0.0-13.0-1.182","3","Low_HMMActual","","","","","","null","","","","Images/WhiteBeadChoice.png","","null"
"image-button-response","607","3628980","0.0-13.0-2.182","3","Low_HMMActual","","","","","","null","","","","Images/WhiteBeadChoiceCorrect.png","","null"
"image-button-response","608","3629175","0.0-13.0-0.183","3","Low_HMMActual","","","","","","191.14999999897555","","","","Images/NewTrialWC.png","","2"
"image-button-response","609","3629484","0.0-13.0-1.183","3","Low_HMMActual","","","","","","null","","","","Images/WhiteBeadChoice.png","","null"
"image-button-response","610","3629991","0.0-13.0-2.183","3","Low_HMMActual","","","","","","null","","","","Images/WhiteBeadChoiceCorrect.png","","null"
"image-button-response","611","3630580","0.0-13.0-0.184","3","Low_HMMActual","","","","","","585.4399999952875","","","","Images/NewTrialWC.png","","2"
"image-button-response","612","3630904","0.0-13.0-1.184","3","Low_HMMActual","","","","","","null","","","","Images/WhiteBeadChoice.png","","null"
"image-button-response","613","3631408","0.0-13.0-2.184","3","Low_HMMActual","","","","","","443.0250000152737","","","","Images/WhiteBeadChoiceCorrect.png","","2"
"image-button-response","614","3632841","0.0-13.0-0.185","3","Low_HMMActual","","","","","","1428.2949999906123","","","","Images/NewTrialWC.png","","2"
"image-button-response","615","3633155","0.0-13.0-1.185","3","Low_HMMActual","","","","","","null","","","","Images/WhiteBeadChoice.png","","null"
"image-button-response","616","3633676","0.0-13.0-2.185","3","Low_HMMActual","","","","","","null","","","","Images/WhiteBeadChoiceWrong.png","","null"
"image-button-response","617","3634721","0.0-13.0-0.186","3","Low_HMMActual","","","","","","1041.3450000048615","","","","Images/NewTrialBC.png","","0"
"image-button-response","618","3635027","0.0-13.0-1.186","3","Low_HMMActual","","","","","","null","","","","Images/BlackBeadChoice.png","","null"
"image-button-response","619","3635530","0.0-13.0-2.186","3","Low_HMMActual","","","","","","null","","","","Images/BlackBeadChoiceWrong.png","","null"
"image-button-response","620","3635837","0.0-13.0-0.187","3","Low_HMMActual","","","","","","303.455000015907","","","","Images/NewTrialWC.png","","3"
"image-button-response","621","3636152","0.0-13.0-1.187","3","Low_HMMActual","","","","","","null","","","","Images/WhiteBeadChoice.png","","null"
"image-button-response","622","3636664","0.0-13.0-2.187","3","Low_HMMActual","","","","","","null","","","","Images/WhiteBeadChoiceWrong.png","","null"
"image-button-response","623","3637354","0.0-13.0-0.188","3","Low_HMMActual","","","","","","687.2999999905005","","","","Images/NewTrialBC.png","","0"
"image-button-response","624","3637669","0.0-13.0-1.188","3","Low_HMMActual","","","","","","null","","","","Images/BlackBeadChoice.png","","null"
"image-button-response","625","3638178","0.0-13.0-2.188","3","Low_HMMActual","","","","","","null","","","","Images/BlackBeadChoiceWrong.png","","null"
"image-button-response","626","3638675","0.0-13.0-0.189","3","Low_HMMActual","","","","","","492.50500000221655","","","","Images/NewTrialWC.png","","3"
"image-button-response","627","3638993","0.0-13.0-1.189","3","Low_HMMActual","","","","","","null","","","","Images/WhiteBeadChoice.png","","null"
"image-button-response","628","3639499","0.0-13.0-2.189","3","Low_HMMActual","","","","","","null","","","","Images/WhiteBeadChoiceCorrect.png","","null"
"image-button-response","629","3639848","0.0-13.0-0.190","3","Low_HMMActual","","","","","","344.8199999984354","","","","Images/NewTrialWC.png","","3"
"image-button-response","630","3640162","0.0-13.0-1.190","3","Low_HMMActual","","","","","","null","","","","Images/WhiteBeadChoice.png","","null"
"image-button-response","631","3640668","0.0-13.0-2.190","3","Low_HMMActual","","","","","","473.8899999936111","","","","Images/WhiteBeadChoiceCorrect.png","","3"
"image-button-response","632","3643077","0.0-13.0-0.191","3","Low_HMMActual","","","","","","2391.4999999981374","","","","Images/NewTrialWC.png","","3"
"image-button-response","633","3643380","0.0-13.0-1.191","3","Low_HMMActual","","","","","","null","","","","Images/WhiteBeadChoice.png","","null"
"image-button-response","634","3643884","0.0-13.0-2.191","3","Low_HMMActual","","","","","","405.8950000037439","","","","Images/WhiteBeadChoiceCorrect.png","","3"
"image-button-response","635","3645738","0.0-13.0-0.192","3","Low_HMMActual","","","","","","1849.295000021346","","","","Images/NewTrialWC.png","","2"
"image-button-response","636","3646050","0.0-13.0-1.192","3","Low_HMMActual","","","","","","null","","","","Images/WhiteBeadChoice.png","","null"
"image-button-response","637","3646557","0.0-13.0-2.192","3","Low_HMMActual","","","","","","null","","","","Images/WhiteBeadChoiceCorrect.png","","null"
"image-button-response","638","3647151","0.0-13.0-0.193","3","Low_HMMActual","","","","","","589.7899999981746","","","","Images/NewTrialWC.png","","2"
"image-button-response","639","3647454","0.0-13.0-1.193","3","Low_HMMActual","","","","","","null","","","","Images/WhiteBeadChoice.png","","null"
"image-button-response","640","3647964","0.0-13.0-2.193","3","Low_HMMActual","","","","","","null","","","","Images/WhiteBeadChoiceCorrect.png","","null"
"image-button-response","641","3650029","0.0-13.0-0.194","3","Low_HMMActual","","","","","","2060.5700000012293","","","","Images/NewTrialWC.png","","2"
"image-button-response","642","3650338","0.0-13.0-1.194","3","Low_HMMActual","","","","","","null","","","","Images/WhiteBeadChoice.png","","null"
"image-button-response","643","3650846","0.0-13.0-2.194","3","Low_HMMActual","","","","","","null","","","","Images/WhiteBeadChoiceWrong.png","","null"
"image-button-response","644","3651676","0.0-13.0-0.195","3","Low_HMMActual","","","","","","826.6650000005029","","","","Images/NewTrialBC.png","","0"
"image-button-response","645","3651985","0.0-13.0-1.195","3","Low_HMMActual","","","","","","null","","","","Images/BlackBeadChoice.png","","null"
"image-button-response","646","3652491","0.0-13.0-2.195","3","Low_HMMActual","","","","","","null","","","","Images/BlackBeadChoiceCorrect.png","","null"
"image-button-response","647","3652653","0.0-13.0-0.196","3","Low_HMMActual","","","","","","155.910000001546","","","","Images/NewTrialBC.png","","0"
"image-button-response","648","3652960","0.0-13.0-1.196","3","Low_HMMActual","","","","","","null","","","","Images/BlackBeadChoice.png","","null"
"image-button-response","649","3653464","0.0-13.0-2.196","3","Low_HMMActual","","","","","","null","","","","Images/BlackBeadChoiceWrong.png","","null"
"image-button-response","650","3654275","0.0-13.0-0.197","3","Low_HMMActual","","","","","","806.6849999884143","","","","Images/NewTrialWC.png","","2"
"image-button-response","651","3654579","0.0-13.0-1.197","3","Low_HMMActual","","","","","","null","","","","Images/WhiteBeadChoice.png","","null"
"image-button-response","652","3655081","0.0-13.0-2.197","3","Low_HMMActual","","","","","","null","","","","Images/WhiteBeadChoiceCorrect.png","","null"
"image-button-response","653","3656011","0.0-13.0-0.198","3","Low_HMMActual","","","","","","924.9649999835528","","","","Images/NewTrialWC.png","","2"
"image-button-response","654","3656323","0.0-13.0-1.198","3","Low_HMMActual","","","","","","null","","","","Images/WhiteBeadChoice.png","","null"
"image-button-response","655","3656831","0.0-13.0-2.198","3","Low_HMMActual","","","","","","null","","","","Images/WhiteBeadChoiceCorrect.png","","null"
"image-button-response","656","3657696","0.0-13.0-0.199","3","Low_HMMActual","","","","","","861.2900000009686","","","","Images/NewTrialWC.png","","2"
"image-button-response","657","3658001","0.0-13.0-1.199","3","Low_HMMActual","","","","","","null","","","","Images/WhiteBeadChoice.png","","null"
"image-button-response","658","3658509","0.0-13.0-2.199","3","Low_HMMActual","","","","","","null","","","","Images/WhiteBeadChoiceCorrect.png","","null"
"image-button-response","659","3662402","0.0-13.0-0.200","3","Low_HMMActual","","","","","","3888.8499999884516","","","","Images/NewTrialWC.png","","2"
"image-button-response","660","3662706","0.0-13.0-1.200","3","Low_HMMActual","","","","","","null","","","","Images/WhiteBeadChoice.png","","null"
