"trial_type","trial_index","time_elapsed","internal_node_id","Script_Picker","Block_Type","success","timeout","failed_images","failed_audio","failed_video","rt","url","responses","question_order","stimulus","key_press","response"
"pavlovia","0","25","0.0-0.0","1","Low_HMMActual","","","","","","","","","","","",""
"preload","1","27","0.0-1.0","1","Low_HMMActual","true","false","[]","[]","[]","","","","","","",""
"external-html","2","4462","0.0-2.0-0.0","1","Low_HMMActual","","","","","","4195.945000000393","consent.html","","","","",""
"survey-multi-choice","3","11142","0.0-2.0-1.0","1","Low_HMMActual","","","","","","6676.279999999679","","{""Q0"":""Male"",""Q1"":""Hispanic or Latino""}","[0,1]","","",""
"survey-text","4","13734","0.0-2.0-2.0","1","Low_HMMActual","","","","","","2583.0000000005384","","{""Q0"":""21""}","","","",""
"survey-text","5","19958","0.0-2.0-3.0","1","Low_HMMActual","","","","","","6112.679999999273","","{""Q0"":""6041bf57d082671c3ce0cdf6""}","","","",""
"image-keyboard-response","6","76377","0.0-3.0-0.0","1","Low_HMMActual","","","","","","56315.89500000063","","","","tutorial/tutorial1.png"," ",""
"image-keyboard-response","7","119006","0.0-3.0-0.1","1","Low_HMMActual","","","","","","42628.78000000001","","","","tutorial/tutorial2.png"," ",""
"image-keyboard-response","8","123495","0.0-3.0-0.2","1","Low_HMMActual","","","","","","4488.249999999418","","","","tutorial/tutorial3.png"," ",""
"image-keyboard-response","9","127424","0.0-3.0-0.3","1","Low_HMMActual","","","","","","3927.805000000255","","","","tutorial/tutorial4.png"," ",""
"image-keyboard-response","10","130613","0.0-3.0-0.4","1","Low_HMMActual","","","","","","3188.9499999997497","","","","tutorial/tutorial5.png"," ",""
"image-keyboard-response","11","155457","0.0-3.0-0.5","1","Low_HMMActual","","","","","","24843.495000000054","","","","tutorial/tutorial6.png"," ",""
"image-keyboard-response","12","162291","0.0-3.0-0.6","1","Low_HMMActual","","","","","","6832.760000000213","","","","tutorial/tutorial7.png"," ",""
"image-keyboard-response","13","205883","0.0-3.0-0.7","1","Low_HMMActual","","","","","","43591.10500000042","","","","tutorial/tutorial8.png"," ",""
"image-keyboard-response","14","215475","0.0-3.0-0.8","1","Low_HMMActual","","","","","","9591.660000000033","","","","tutorial/tutorial9.png"," ",""
"image-keyboard-response","15","227910","0.0-3.0-0.9","1","Low_HMMActual","","","","","","12433.540000000008","","","","tutorial/tutorial10.png"," ",""
"image-keyboard-response","16","232858","0.0-3.0-0.10","1","Low_HMMActual","","","","","","4947.294999999955","","","","tutorial/tutorial11.png"," ",""
"image-keyboard-response","17","242758","0.0-3.0-0.11","1","Low_HMMActual","","","","","","9898.839999999822","","","","tutorial/tutorial12.png"," ",""
"image-keyboard-response","18","244694","0.0-3.0-0.12","1","Low_HMMActual","","","","","","1935.3449999998847","","","","tutorial/tutorial13.png"," ",""
"image-keyboard-response","19","257101","0.0-3.0-0.13","1","Low_HMMActual","","","","","","12406.8299999999","","","","tutorial/tutorial14.png"," ",""
"image-keyboard-response","20","259931","0.0-3.0-0.14","1","Low_HMMActual","","","","","","2828.8800000000047","","","","tutorial/tutorial15.png"," ",""
"image-keyboard-response","21","267536","0.0-4.0","1","Low_HMMActual","","","","","","7604.859999999404","","","","tutorial/tutorial16.png","arrowup",""
"image-keyboard-response","22","276041","0.0-5.0","1","Low_HMMActual","","","","","","6451.654999999853","","","","tutorial/tutorial17.png","arrowright",""
"image-keyboard-response","23","282714","0.0-6.0","1","Low_HMMActual","","","","","","5503.090000000142","","","","tutorial/tutorial18.png","arrowleft",""
"image-keyboard-response","24","287127","0.0-7.0","1","Low_HMMActual","","","","","","3190.550000000221","","","","tutorial/tutorial19.png"," ",""
"html-keyboard-response","25","288298","0.0-8.0","2","Low_HMMActual","","","","","","1167.0250000006636","","","","<div class=""container"" style=""height:800px;width:800px;display:flex;flex-direction:column;justify-content:center;align-items:center;text-align:center;font-weight:normal;font-family:Arial;font-size:20px""><p>Loading episode&hellip;</p><div>"," ",""
"image-button-response","26","300898","0.0-9.0-0.0","2","Low_HMMActual","","","","","","12595.749999999476","","","","Images/NoChoice.png","","0"
"image-button-response","27","301208","0.0-9.0-1.0","2","Low_HMMActual","","","","","","null","","","","Images/BlackBeadChoice.png","","null"
"image-button-response","28","301712","0.0-9.0-2.0","2","Low_HMMActual","","","","","","null","","","","Images/BlackBeadChoiceWrong.png","","null"
"image-button-response","29","309507","0.0-9.0-0.1","2","Low_HMMActual","","","","","","7793.055000000051","","","","Images/NewTrialWC.png","","3"
"image-button-response","30","309809","0.0-9.0-1.1","2","Low_HMMActual","","","","","","null","","","","Images/WhiteBeadChoice.png","","null"
"image-button-response","31","310311","0.0-9.0-2.1","2","Low_HMMActual","","","","","","null","","","","Images/WhiteBeadChoiceCorrect.png","","null"
"image-button-response","32","311739","0.0-9.0-0.2","2","Low_HMMActual","","","","","","1425.4299999993527","","","","Images/NewTrialWC.png","","0"
"image-button-response","33","312048","0.0-9.0-1.2","2","Low_HMMActual","","","","","","null","","","","Images/BlackBeadChoice.png","","null"
"image-button-response","34","312555","0.0-9.0-2.2","2","Low_HMMActual","","","","","","null","","","","Images/BlackBeadChoiceWrong.png","","null"
"image-button-response","35","313675","0.0-9.0-0.3","2","Low_HMMActual","","","","","","1118.0599999997648","","","","Images/NewTrialWC.png","","0"
"image-button-response","36","313980","0.0-9.0-1.3","2","Low_HMMActual","","","","","","null","","","","Images/BlackBeadChoice.png","","null"
"image-button-response","37","314496","0.0-9.0-2.3","2","Low_HMMActual","","","","","","null","","","","Images/BlackBeadChoiceCorrect.png","","null"
"image-button-response","38","317084","0.0-9.0-0.4","2","Low_HMMActual","","","","","","2587.0899999999674","","","","Images/NewTrialBC.png","","0"
"image-button-response","39","317392","0.0-9.0-1.4","2","Low_HMMActual","","","","","","null","","","","Images/BlackBeadChoice.png","","null"
"image-button-response","40","317894","0.0-9.0-2.4","2","Low_HMMActual","","","","","","null","","","","Images/BlackBeadChoiceWrong.png","","null"
"image-button-response","41","319716","0.0-9.0-0.5","2","Low_HMMActual","","","","","","1819.8250000004773","","","","Images/NewTrialWC.png","","1"
"image-button-response","42","320020","0.0-9.0-1.5","2","Low_HMMActual","","","","","","null","","","","Images/BlackBeadChoice.png","","null"
"image-button-response","43","320523","0.0-9.0-2.5","2","Low_HMMActual","","","","","","null","","","","Images/BlackBeadChoiceWrong.png","","null"
"image-button-response","44","321332","0.0-9.0-0.6","2","Low_HMMActual","","","","","","807.1700000000419","","","","Images/NewTrialWC.png","","2"
"image-button-response","45","321634","0.0-9.0-1.6","2","Low_HMMActual","","","","","","null","","","","Images/WhiteBeadChoice.png","","null"
"image-button-response","46","322135","0.0-9.0-2.6","2","Low_HMMActual","","","","","","null","","","","Images/WhiteBeadChoiceWrong.png","","null"
"image-button-response","47","323885","0.0-9.0-0.7","2","Low_HMMActual","","","","","","1747.924999999639","","","","Images/NewTrialBC.png","","0"
"image-button-response","48","324202","0.0-9.0-1.7","2","Low_HMMActual","","","","","","null","","","","Images/BlackBeadChoice.png","","null"
"image-button-response","49","324705","0.0-9.0-2.7","2","Low_HMMActual","","","","","","null","","","","Images/BlackBeadChoiceWrong.png","","null"
"image-button-response","50","325493","0.0-9.0-0.8","2","Low_HMMActual","","","","","","786.8850000004168","","","","Images/NewTrialWC.png","","0"
"image-button-response","51","325796","0.0-9.0-1.8","2","Low_HMMActual","","","","","","null","","","","Images/BlackBeadChoice.png","","null"
"image-button-response","52","326297","0.0-9.0-2.8","2","Low_HMMActual","","","","","","null","","","","Images/BlackBeadChoiceCorrect.png","","null"
"image-button-response","53","327437","0.0-9.0-0.9","2","Low_HMMActual","","","","","","1137.8549999999232","","","","Images/NewTrialBC.png","","2"
"image-button-response","54","327739","0.0-9.0-1.9","2","Low_HMMActual","","","","","","null","","","","Images/WhiteBeadChoice.png","","null"
"image-button-response","55","328245","0.0-9.0-2.9","2","Low_HMMActual","","","","","","null","","","","Images/WhiteBeadChoiceCorrect.png","","null"
"html-keyboard-response","56","331270","0.0-10.0","2","Low_HMMActual","","","","","","3023.100000000326","","","",""," ",""
"image-keyboard-response","57","335692","0.0-11.0","2","Low_HMMActual","","","","","","4420.844999999623","","","","tutorial/tutorial20.png"," ",""
"html-keyboard-response","58","350207","0.0-12.0","3","Low_HMMActual","","","","","","14510.589999999851","","","","<div class=""container"" style=""height:800px;width:800px;display:flex;flex-direction:column;justify-content:center;align-items:center;text-align:center;font-weight:normal;font-family:Arial;font-size:20px""><p>Loading episode&hellip;</p><div>"," ",""
"image-button-response","59","352418","0.0-13.0-0.0","3","Low_HMMActual","","","","","","2209.3800000002375","","","","Images/NoChoice.png","","1"
"image-button-response","60","352726","0.0-13.0-1.0","3","Low_HMMActual","","","","","","null","","","","Images/BlackBeadChoice.png","","null"
"image-button-response","61","353228","0.0-13.0-2.0","3","Low_HMMActual","","","","","","null","","","","Images/BlackBeadChoiceWrong.png","","null"
"image-button-response","62","353850","0.0-13.0-0.1","3","Low_HMMActual","","","","","","620.0950000002049","","","","Images/NewTrialWC.png","","2"
"image-button-response","63","354153","0.0-13.0-1.1","3","Low_HMMActual","","","","","","null","","","","Images/WhiteBeadChoice.png","","null"
"image-button-response","64","354668","0.0-13.0-2.1","3","Low_HMMActual","","","","","","null","","","","Images/WhiteBeadChoiceCorrect.png","","null"
"image-button-response","65","355738","0.0-13.0-0.2","3","Low_HMMActual","","","","","","1068.2649999998976","","","","Images/NewTrialWC.png","","2"
"image-button-response","66","356040","0.0-13.0-1.2","3","Low_HMMActual","","","","","","null","","","","Images/WhiteBeadChoice.png","","null"
"image-button-response","67","356546","0.0-13.0-2.2","3","Low_HMMActual","","","","","","null","","","","Images/WhiteBeadChoiceCorrect.png","","null"
"image-button-response","68","357112","0.0-13.0-0.3","3","Low_HMMActual","","","","","","557.5750000007683","","","","Images/NewTrialWC.png","","2"
"image-button-response","69","357415","0.0-13.0-1.3","3","Low_HMMActual","","","","","","null","","","","Images/WhiteBeadChoice.png","","null"
"image-button-response","70","357918","0.0-13.0-2.3","3","Low_HMMActual","","","","","","null","","","","Images/WhiteBeadChoiceCorrect.png","","null"
"image-button-response","71","358715","0.0-13.0-0.4","3","Low_HMMActual","","","","","","795.3399999996764","","","","Images/NewTrialWC.png","","1"
"image-button-response","72","359030","0.0-13.0-1.4","3","Low_HMMActual","","","","","","null","","","","Images/BlackBeadChoice.png","","null"
"image-button-response","73","359537","0.0-13.0-2.4","3","Low_HMMActual","","","","","","null","","","","Images/BlackBeadChoiceCorrect.png","","null"
"image-button-response","74","361194","0.0-13.0-0.5","3","Low_HMMActual","","","","","","1655.1200000003446","","","","Images/NewTrialBC.png","","0"
"image-button-response","75","361505","0.0-13.0-1.5","3","Low_HMMActual","","","","","","null","","","","Images/BlackBeadChoice.png","","null"
"image-button-response","76","362020","0.0-13.0-2.5","3","Low_HMMActual","","","","","","null","","","","Images/BlackBeadChoiceWrong.png","","null"
"image-button-response","77","362755","0.0-13.0-0.6","3","Low_HMMActual","","","","","","732.6300000004121","","","","Images/NewTrialWC.png","","2"
"image-button-response","78","363063","0.0-13.0-1.6","3","Low_HMMActual","","","","","","null","","","","Images/WhiteBeadChoice.png","","null"
"image-button-response","79","363565","0.0-13.0-2.6","3","Low_HMMActual","","","","","","null","","","","Images/WhiteBeadChoiceCorrect.png","","null"
"image-button-response","80","363995","0.0-13.0-0.7","3","Low_HMMActual","","","","","","428.1650000002701","","","","Images/NewTrialWC.png","","2"
"image-button-response","81","364312","0.0-13.0-1.7","3","Low_HMMActual","","","","","","null","","","","Images/WhiteBeadChoice.png","","null"
"image-button-response","82","364815","0.0-13.0-2.7","3","Low_HMMActual","","","","","","null","","","","Images/WhiteBeadChoiceCorrect.png","","null"
"image-button-response","83","366019","0.0-13.0-0.8","3","Low_HMMActual","","","","","","1202.1349999995437","","","","Images/NewTrialWC.png","","1"
"image-button-response","84","366332","0.0-13.0-1.8","3","Low_HMMActual","","","","","","null","","","","Images/BlackBeadChoice.png","","null"
"image-button-response","85","366834","0.0-13.0-2.8","3","Low_HMMActual","","","","","","null","","","","Images/BlackBeadChoiceCorrect.png","","null"
"image-button-response","86","367419","0.0-13.0-0.9","3","Low_HMMActual","","","","","","582.8149999997695","","","","Images/NewTrialBC.png","","2"
"image-button-response","87","367720","0.0-13.0-1.9","3","Low_HMMActual","","","","","","null","","","","Images/WhiteBeadChoice.png","","null"
"image-button-response","88","368222","0.0-13.0-2.9","3","Low_HMMActual","","","","","","null","","","","Images/WhiteBeadChoiceWrong.png","","null"
"image-button-response","89","369892","0.0-13.0-0.10","3","Low_HMMActual","","","","","","1668.2000000000698","","","","Images/NewTrialBC.png","","3"
"image-button-response","90","370194","0.0-13.0-1.10","3","Low_HMMActual","","","","","","null","","","","Images/WhiteBeadChoice.png","","null"
"image-button-response","91","370696","0.0-13.0-2.10","3","Low_HMMActual","","","","","","null","","","","Images/WhiteBeadChoiceWrong.png","","null"
"image-button-response","92","371596","0.0-13.0-0.11","3","Low_HMMActual","","","","","","899.1450000003097","","","","Images/NewTrialBC.png","","0"
"image-button-response","93","371901","0.0-13.0-1.11","3","Low_HMMActual","","","","","","null","","","","Images/BlackBeadChoice.png","","null"
"image-button-response","94","372402","0.0-13.0-2.11","3","Low_HMMActual","","","","","","null","","","","Images/BlackBeadChoiceWrong.png","","null"
"image-button-response","95","373004","0.0-13.0-0.12","3","Low_HMMActual","","","","","","590.3549999993411","","","","Images/NewTrialWC.png","","2"
"image-button-response","96","373305","0.0-13.0-1.12","3","Low_HMMActual","","","","","","null","","","","Images/WhiteBeadChoice.png","","null"
"image-button-response","97","373807","0.0-13.0-2.12","3","Low_HMMActual","","","","","","null","","","","Images/WhiteBeadChoiceCorrect.png","","null"
"image-button-response","98","374068","0.0-13.0-0.13","3","Low_HMMActual","","","","","","258.8900000000722","","","","Images/NewTrialWC.png","","2"
"image-button-response","99","374370","0.0-13.0-1.13","3","Low_HMMActual","","","","","","null","","","","Images/WhiteBeadChoice.png","","null"
"image-button-response","100","374872","0.0-13.0-2.13","3","Low_HMMActual","","","","","","null","","","","Images/WhiteBeadChoiceWrong.png","","null"
"image-button-response","101","376117","0.0-13.0-0.14","3","Low_HMMActual","","","","","","1243.015000000014","","","","Images/NewTrialBC.png","","1"
"image-button-response","102","376431","0.0-13.0-1.14","3","Low_HMMActual","","","","","","null","","","","Images/BlackBeadChoice.png","","null"
"image-button-response","103","376934","0.0-13.0-2.14","3","Low_HMMActual","","","","","","null","","","","Images/BlackBeadChoiceWrong.png","","null"
"image-button-response","104","378053","0.0-13.0-0.15","3","Low_HMMActual","","","","","","1117.2200000000885","","","","Images/NewTrialWC.png","","3"
"image-button-response","105","378360","0.0-13.0-1.15","3","Low_HMMActual","","","","","","null","","","","Images/WhiteBeadChoice.png","","null"
"image-button-response","106","378864","0.0-13.0-2.15","3","Low_HMMActual","","","","","","null","","","","Images/WhiteBeadChoiceWrong.png","","null"
"image-button-response","107","379685","0.0-13.0-0.16","3","Low_HMMActual","","","","","","818.3150000004098","","","","Images/NewTrialBC.png","","2"
"image-button-response","108","379986","0.0-13.0-1.16","3","Low_HMMActual","","","","","","null","","","","Images/WhiteBeadChoice.png","","null"
"image-button-response","109","380490","0.0-13.0-2.16","3","Low_HMMActual","","","","","","null","","","","Images/WhiteBeadChoiceCorrect.png","","null"
"image-button-response","110","381038","0.0-13.0-0.17","3","Low_HMMActual","","","","","","545.7099999993807","","","","Images/NewTrialWC.png","","2"
"image-button-response","111","381340","0.0-13.0-1.17","3","Low_HMMActual","","","","","","null","","","","Images/WhiteBeadChoice.png","","null"
"image-button-response","112","381842","0.0-13.0-2.17","3","Low_HMMActual","","","","","","null","","","","Images/WhiteBeadChoiceCorrect.png","","null"
"image-button-response","113","382374","0.0-13.0-0.18","3","Low_HMMActual","","","","","","530.1799999997602","","","","Images/NewTrialWC.png","","2"
"image-button-response","114","382676","0.0-13.0-1.18","3","Low_HMMActual","","","","","","null","","","","Images/WhiteBeadChoice.png","","null"
"image-button-response","115","383178","0.0-13.0-2.18","3","Low_HMMActual","","","","","","null","","","","Images/WhiteBeadChoiceCorrect.png","","null"
"image-button-response","116","383446","0.0-13.0-0.19","3","Low_HMMActual","","","","","","266.31999999971595","","","","Images/NewTrialWC.png","","1"
"image-button-response","117","383748","0.0-13.0-1.19","3","Low_HMMActual","","","","","","null","","","","Images/BlackBeadChoice.png","","null"
"image-button-response","118","384255","0.0-13.0-2.19","3","Low_HMMActual","","","","","","null","","","","Images/BlackBeadChoiceCorrect.png","","null"
"image-button-response","119","384878","0.0-13.0-0.20","3","Low_HMMActual","","","","","","621.0650000002934","","","","Images/NewTrialBC.png","","0"
"image-button-response","120","385193","0.0-13.0-1.20","3","Low_HMMActual","","","","","","null","","","","Images/BlackBeadChoice.png","","null"
"image-button-response","121","385701","0.0-13.0-2.20","3","Low_HMMActual","","","","","","null","","","","Images/BlackBeadChoiceWrong.png","","null"
"image-button-response","122","386206","0.0-13.0-0.21","3","Low_HMMActual","","","","","","503.34000000020023","","","","Images/NewTrialWC.png","","2"
"image-button-response","123","386512","0.0-13.0-1.21","3","Low_HMMActual","","","","","","null","","","","Images/WhiteBeadChoice.png","","null"
"image-button-response","124","387017","0.0-13.0-2.21","3","Low_HMMActual","","","","","","null","","","","Images/WhiteBeadChoiceCorrect.png","","null"
"image-button-response","125","387566","0.0-13.0-0.22","3","Low_HMMActual","","","","","","546.8499999996857","","","","Images/NewTrialWC.png","","2"
"image-button-response","126","387872","0.0-13.0-1.22","3","Low_HMMActual","","","","","","null","","","","Images/WhiteBeadChoice.png","","null"
"image-button-response","127","388377","0.0-13.0-2.22","3","Low_HMMActual","","","","","","null","","","","Images/WhiteBeadChoiceCorrect.png","","null"
"image-button-response","128","388814","0.0-13.0-0.23","3","Low_HMMActual","","","","","","434.16999999951804","","","","Images/NewTrialWC.png","","2"
"image-button-response","129","389119","0.0-13.0-1.23","3","Low_HMMActual","","","","","","null","","","","Images/WhiteBeadChoice.png","","null"
"image-button-response","130","389621","0.0-13.0-2.23","3","Low_HMMActual","","","","","","null","","","","Images/WhiteBeadChoiceCorrect.png","","null"
"image-button-response","131","390335","0.0-13.0-0.24","3","Low_HMMActual","","","","","","711.5800000001327","","","","Images/NewTrialWC.png","","1"
"image-button-response","132","390637","0.0-13.0-1.24","3","Low_HMMActual","","","","","","null","","","","Images/BlackBeadChoice.png","","null"
"image-button-response","133","391145","0.0-13.0-2.24","3","Low_HMMActual","","","","","","null","","","","Images/BlackBeadChoiceWrong.png","","null"
"image-button-response","134","392383","0.0-13.0-0.25","3","Low_HMMActual","","","","","","1236.1600000003818","","","","Images/NewTrialWC.png","","1"
"image-button-response","135","392690","0.0-13.0-1.25","3","Low_HMMActual","","","","","","null","","","","Images/BlackBeadChoice.png","","null"
"image-button-response","136","393198","0.0-13.0-2.25","3","Low_HMMActual","","","","","","null","","","","Images/BlackBeadChoiceWrong.png","","null"
"image-button-response","137","394415","0.0-13.0-0.26","3","Low_HMMActual","","","","","","1215.3600000001607","","","","Images/NewTrialWC.png","","3"
"image-button-response","138","394718","0.0-13.0-1.26","3","Low_HMMActual","","","","","","null","","","","Images/WhiteBeadChoice.png","","null"
"image-button-response","139","395220","0.0-13.0-2.26","3","Low_HMMActual","","","","","","null","","","","Images/WhiteBeadChoiceWrong.png","","null"
"image-button-response","140","395758","0.0-13.0-0.27","3","Low_HMMActual","","","","","","537.0299999995041","","","","Images/NewTrialBC.png","","0"
"image-button-response","141","396060","0.0-13.0-1.27","3","Low_HMMActual","","","","","","null","","","","Images/BlackBeadChoice.png","","null"
"image-button-response","142","396561","0.0-13.0-2.27","3","Low_HMMActual","","","","","","null","","","","Images/BlackBeadChoiceWrong.png","","null"
"image-button-response","143","397128","0.0-13.0-0.28","3","Low_HMMActual","","","","","","565.2199999995064","","","","Images/NewTrialWC.png","","2"
"image-button-response","144","397430","0.0-13.0-1.28","3","Low_HMMActual","","","","","","null","","","","Images/WhiteBeadChoice.png","","null"
"image-button-response","145","397939","0.0-13.0-2.28","3","Low_HMMActual","","","","","","null","","","","Images/WhiteBeadChoiceWrong.png","","null"
"image-button-response","146","398303","0.0-13.0-0.29","3","Low_HMMActual","","","","","","362.8399999997346","","","","Images/NewTrialBC.png","","2"
"image-button-response","147","398619","0.0-13.0-1.29","3","Low_HMMActual","","","","","","null","","","","Images/WhiteBeadChoice.png","","null"
"image-button-response","148","399127","0.0-13.0-2.29","3","Low_HMMActual","","","","","","null","","","","Images/WhiteBeadChoiceCorrect.png","","null"
"image-button-response","149","399544","0.0-13.0-0.30","3","Low_HMMActual","","","","","","415.4850000004517","","","","Images/NewTrialWC.png","","2"
"image-button-response","150","399846","0.0-13.0-1.30","3","Low_HMMActual","","","","","","null","","","","Images/WhiteBeadChoice.png","","null"
"image-button-response","151","400349","0.0-13.0-2.30","3","Low_HMMActual","","","","","","null","","","","Images/WhiteBeadChoiceCorrect.png","","null"
"image-button-response","152","400808","0.0-13.0-0.31","3","Low_HMMActual","","","","","","456.9000000001397","","","","Images/NewTrialWC.png","","2"
"image-button-response","153","401110","0.0-13.0-1.31","3","Low_HMMActual","","","","","","null","","","","Images/WhiteBeadChoice.png","","null"
"image-button-response","154","401611","0.0-13.0-2.31","3","Low_HMMActual","","","","","","null","","","","Images/WhiteBeadChoiceWrong.png","","null"
"image-button-response","155","402600","0.0-13.0-0.32","3","Low_HMMActual","","","","","","987.9599999994971","","","","Images/NewTrialBC.png","","2"
"image-button-response","156","402902","0.0-13.0-1.32","3","Low_HMMActual","","","","","","null","","","","Images/WhiteBeadChoice.png","","null"
"image-button-response","157","403404","0.0-13.0-2.32","3","Low_HMMActual","","","","","","null","","","","Images/WhiteBeadChoiceCorrect.png","","null"
"image-button-response","158","404056","0.0-13.0-0.33","3","Low_HMMActual","","","","","","650.2700000000768","","","","Images/NewTrialWC.png","","2"
"image-button-response","159","404359","0.0-13.0-1.33","3","Low_HMMActual","","","","","","null","","","","Images/WhiteBeadChoice.png","","null"
"image-button-response","160","404863","0.0-13.0-2.33","3","Low_HMMActual","","","","","","null","","","","Images/WhiteBeadChoiceCorrect.png","","null"
"image-button-response","161","405328","0.0-13.0-0.34","3","Low_HMMActual","","","","","","463.2549999997136","","","","Images/NewTrialWC.png","","0"
"image-button-response","162","405640","0.0-13.0-1.34","3","Low_HMMActual","","","","","","null","","","","Images/BlackBeadChoice.png","","null"
"image-button-response","163","406142","0.0-13.0-2.34","3","Low_HMMActual","","","","","","null","","","","Images/BlackBeadChoiceCorrect.png","","null"
"image-button-response","164","406649","0.0-13.0-0.35","3","Low_HMMActual","","","","","","505.67000000044936","","","","Images/NewTrialBC.png","","2"
"image-button-response","165","406952","0.0-13.0-1.35","3","Low_HMMActual","","","","","","null","","","","Images/WhiteBeadChoice.png","","null"
"image-button-response","166","407454","0.0-13.0-2.35","3","Low_HMMActual","","","","","","null","","","","Images/WhiteBeadChoiceCorrect.png","","null"
"image-button-response","167","408233","0.0-13.0-0.36","3","Low_HMMActual","","","","","","777.960000000312","","","","Images/NewTrialWC.png","","2"
"image-button-response","168","408537","0.0-13.0-1.36","3","Low_HMMActual","","","","","","null","","","","Images/WhiteBeadChoice.png","","null"
"image-button-response","169","409038","0.0-13.0-2.36","3","Low_HMMActual","","","","","","null","","","","Images/WhiteBeadChoiceCorrect.png","","null"
"image-button-response","170","410690","0.0-13.0-0.37","3","Low_HMMActual","","","","","","1649.980000000156","","","","Images/NewTrialWC.png","","2"
"image-button-response","171","410991","0.0-13.0-1.37","3","Low_HMMActual","","","","","","null","","","","Images/WhiteBeadChoice.png","","null"
"image-button-response","172","411493","0.0-13.0-2.37","3","Low_HMMActual","","","","","","null","","","","Images/WhiteBeadChoiceCorrect.png","","null"
"image-button-response","173","412267","0.0-13.0-0.38","3","Low_HMMActual","","","","","","771.8450000002049","","","","Images/NewTrialWC.png","","2"
"image-button-response","174","412570","0.0-13.0-1.38","3","Low_HMMActual","","","","","","null","","","","Images/WhiteBeadChoice.png","","null"
"image-button-response","175","413072","0.0-13.0-2.38","3","Low_HMMActual","","","","","","null","","","","Images/WhiteBeadChoiceWrong.png","","null"
"image-button-response","176","413753","0.0-13.0-0.39","3","Low_HMMActual","","","","","","680.0849999999627","","","","Images/NewTrialBC.png","","2"
"image-button-response","177","414055","0.0-13.0-1.39","3","Low_HMMActual","","","","","","null","","","","Images/WhiteBeadChoice.png","","null"
"image-button-response","178","414557","0.0-13.0-2.39","3","Low_HMMActual","","","","","","null","","","","Images/WhiteBeadChoiceCorrect.png","","null"
"image-button-response","179","415147","0.0-13.0-0.40","3","Low_HMMActual","","","","","","587.7599999994854","","","","Images/NewTrialWC.png","","0"
"image-button-response","180","415449","0.0-13.0-1.40","3","Low_HMMActual","","","","","","null","","","","Images/BlackBeadChoice.png","","null"
"image-button-response","181","415951","0.0-13.0-2.40","3","Low_HMMActual","","","","","","null","","","","Images/BlackBeadChoiceWrong.png","","null"
"image-button-response","182","417290","0.0-13.0-0.41","3","Low_HMMActual","","","","","","1336.500000000291","","","","Images/NewTrialWC.png","","0"
"image-button-response","183","417604","0.0-13.0-1.41","3","Low_HMMActual","","","","","","null","","","","Images/BlackBeadChoice.png","","null"
"image-button-response","184","418107","0.0-13.0-2.41","3","Low_HMMActual","","","","","","null","","","","Images/BlackBeadChoiceWrong.png","","null"
"image-button-response","185","418338","0.0-13.0-0.42","3","Low_HMMActual","","","","","","229.61500000022352","","","","Images/NewTrialWC.png","","2"
"image-button-response","186","418639","0.0-13.0-1.42","3","Low_HMMActual","","","","","","null","","","","Images/WhiteBeadChoice.png","","null"
"image-button-response","187","419140","0.0-13.0-2.42","3","Low_HMMActual","","","","","","null","","","","Images/WhiteBeadChoiceWrong.png","","null"
"image-button-response","188","419818","0.0-13.0-0.43","3","Low_HMMActual","","","","","","676.8800000000047","","","","Images/NewTrialBC.png","","1"
"image-button-response","189","420123","0.0-13.0-1.43","3","Low_HMMActual","","","","","","null","","","","Images/BlackBeadChoice.png","","null"
"image-button-response","190","420625","0.0-13.0-2.43","3","Low_HMMActual","","","","","","null","","","","Images/BlackBeadChoiceCorrect.png","","null"
"image-button-response","191","421794","0.0-13.0-0.44","3","Low_HMMActual","","","","","","1167.1450000003679","","","","Images/NewTrialBC.png","","0"
"image-button-response","192","422096","0.0-13.0-1.44","3","Low_HMMActual","","","","","","null","","","","Images/BlackBeadChoice.png","","null"
"image-button-response","193","422599","0.0-13.0-2.44","3","Low_HMMActual","","","","","","null","","","","Images/BlackBeadChoiceCorrect.png","","null"
"image-button-response","194","424034","0.0-13.0-0.45","3","Low_HMMActual","","","","","","1432.555000000284","","","","Images/NewTrialBC.png","","3"
"image-button-response","195","424339","0.0-13.0-1.45","3","Low_HMMActual","","","","","","null","","","","Images/WhiteBeadChoice.png","","null"
"image-button-response","196","424844","0.0-13.0-2.45","3","Low_HMMActual","","","","","","null","","","","Images/WhiteBeadChoiceCorrect.png","","null"
"image-button-response","197","425563","0.0-13.0-0.46","3","Low_HMMActual","","","","","","718.144999999844","","","","Images/NewTrialWC.png","","2"
"image-button-response","198","425865","0.0-13.0-1.46","3","Low_HMMActual","","","","","","null","","","","Images/WhiteBeadChoice.png","","null"
"image-button-response","199","426368","0.0-13.0-2.46","3","Low_HMMActual","","","","","","null","","","","Images/WhiteBeadChoiceWrong.png","","null"
"image-button-response","200","427707","0.0-13.0-0.47","3","Low_HMMActual","","","","","","1338.0250000000233","","","","Images/NewTrialBC.png","","2"
"image-button-response","201","428011","0.0-13.0-1.47","3","Low_HMMActual","","","","","","null","","","","Images/WhiteBeadChoice.png","","null"
"image-button-response","202","428514","0.0-13.0-2.47","3","Low_HMMActual","","","","","","null","","","","Images/WhiteBeadChoiceCorrect.png","","null"
"image-button-response","203","429179","0.0-13.0-0.48","3","Low_HMMActual","","","","","","663.410000000149","","","","Images/NewTrialWC.png","","2"
"image-button-response","204","429496","0.0-13.0-1.48","3","Low_HMMActual","","","","","","null","","","","Images/WhiteBeadChoice.png","","null"
"image-button-response","205","429999","0.0-13.0-2.48","3","Low_HMMActual","","","","","","null","","","","Images/WhiteBeadChoiceWrong.png","","null"
"image-button-response","206","430797","0.0-13.0-0.49","3","Low_HMMActual","","","","","","796.8549999996321","","","","Images/NewTrialBC.png","","0"
"image-button-response","207","431114","0.0-13.0-1.49","3","Low_HMMActual","","","","","","null","","","","Images/BlackBeadChoice.png","","null"
"image-button-response","208","431621","0.0-13.0-2.49","3","Low_HMMActual","","","","","","null","","","","Images/BlackBeadChoiceCorrect.png","","null"
"image-button-response","209","432331","0.0-13.0-0.50","3","Low_HMMActual","","","","","","708.5900000002002","","","","Images/NewTrialBC.png","","0"
"image-button-response","210","432648","0.0-13.0-1.50","3","Low_HMMActual","","","","","","null","","","","Images/BlackBeadChoice.png","","null"
"image-button-response","211","433155","0.0-13.0-2.50","3","Low_HMMActual","","","","","","null","","","","Images/BlackBeadChoiceCorrect.png","","null"
"image-button-response","212","435684","0.0-13.0-0.51","3","Low_HMMActual","","","","","","2527.099999999278","","","","Images/NewTrialBC.png","","3"
"image-button-response","213","435990","0.0-13.0-1.51","3","Low_HMMActual","","","","","","null","","","","Images/WhiteBeadChoice.png","","null"
"image-button-response","214","436494","0.0-13.0-2.51","3","Low_HMMActual","","","","","","null","","","","Images/WhiteBeadChoiceWrong.png","","null"
"image-button-response","215","437572","0.0-13.0-0.52","3","Low_HMMActual","","","","","","1076.0149999996647","","","","Images/NewTrialBC.png","","2"
"image-button-response","216","437885","0.0-13.0-1.52","3","Low_HMMActual","","","","","","null","","","","Images/WhiteBeadChoice.png","","null"
"image-button-response","217","438387","0.0-13.0-2.52","3","Low_HMMActual","","","","","","null","","","","Images/WhiteBeadChoiceWrong.png","","null"
"image-button-response","218","439492","0.0-13.0-0.53","3","Low_HMMActual","","","","","","1103.2100000001956","","","","Images/NewTrialBC.png","","2"
"image-button-response","219","439795","0.0-13.0-1.53","3","Low_HMMActual","","","","","","null","","","","Images/WhiteBeadChoice.png","","null"
"image-button-response","220","440310","0.0-13.0-2.53","3","Low_HMMActual","","","","","","null","","","","Images/WhiteBeadChoiceWrong.png","","null"
"image-button-response","221","440492","0.0-13.0-0.54","3","Low_HMMActual","","","","","","180.07499999931315","","","","Images/NewTrialBC.png","","2"
"image-button-response","222","440796","0.0-13.0-1.54","3","Low_HMMActual","","","","","","null","","","","Images/WhiteBeadChoice.png","","null"
"image-button-response","223","441304","0.0-13.0-2.54","3","Low_HMMActual","","","","","","null","","","","Images/WhiteBeadChoiceCorrect.png","","null"
"image-button-response","224","441572","0.0-13.0-0.55","3","Low_HMMActual","","","","","","259.26999999955297","","","","Images/NewTrialWC.png","","2"
"image-button-response","225","441883","0.0-13.0-1.55","3","Low_HMMActual","","","","","","null","","","","Images/WhiteBeadChoice.png","","null"
"image-button-response","226","442386","0.0-13.0-2.55","3","Low_HMMActual","","","","","","null","","","","Images/WhiteBeadChoiceWrong.png","","null"
"image-button-response","227","443061","0.0-13.0-0.56","3","Low_HMMActual","","","","","","674.315000000177","","","","Images/NewTrialBC.png","","1"
"image-button-response","228","443365","0.0-13.0-1.56","3","Low_HMMActual","","","","","","null","","","","Images/BlackBeadChoice.png","","null"
"image-button-response","229","443868","0.0-13.0-2.56","3","Low_HMMActual","","","","","","null","","","","Images/BlackBeadChoiceWrong.png","","null"
"image-button-response","230","445261","0.0-13.0-0.57","3","Low_HMMActual","","","","","","1391.2049999998417","","","","Images/NewTrialWC.png","","3"
"image-button-response","231","445563","0.0-13.0-1.57","3","Low_HMMActual","","","","","","null","","","","Images/WhiteBeadChoice.png","","null"
"image-button-response","232","446065","0.0-13.0-2.57","3","Low_HMMActual","","","","","","null","","","","Images/WhiteBeadChoiceCorrect.png","","null"
"image-button-response","233","446270","0.0-13.0-0.58","3","Low_HMMActual","","","","","","203.67499999975553","","","","Images/NewTrialWC.png","","2"
"image-button-response","234","446585","0.0-13.0-1.58","3","Low_HMMActual","","","","","","null","","","","Images/WhiteBeadChoice.png","","null"
"image-button-response","235","447095","0.0-13.0-2.58","3","Low_HMMActual","","","","","","null","","","","Images/WhiteBeadChoiceWrong.png","","null"
"image-button-response","236","447478","0.0-13.0-0.59","3","Low_HMMActual","","","","","","380.7550000001211","","","","Images/NewTrialBC.png","","1"
"image-button-response","237","447794","0.0-13.0-1.59","3","Low_HMMActual","","","","","","null","","","","Images/BlackBeadChoice.png","","null"
"image-button-response","238","448297","0.0-13.0-2.59","3","Low_HMMActual","","","","","","null","","","","Images/BlackBeadChoiceCorrect.png","","null"
"image-button-response","239","448430","0.0-13.0-0.60","3","Low_HMMActual","","","","","","131.7050000007148","","","","Images/NewTrialBC.png","","0"
"image-button-response","240","448733","0.0-13.0-1.60","3","Low_HMMActual","","","","","","null","","","","Images/BlackBeadChoice.png","","null"
"image-button-response","241","449235","0.0-13.0-2.60","3","Low_HMMActual","","","","","","null","","","","Images/BlackBeadChoiceWrong.png","","null"
"image-button-response","242","450111","0.0-13.0-0.61","3","Low_HMMActual","","","","","","873.9850000001607","","","","Images/NewTrialWC.png","","2"
"image-button-response","243","450413","0.0-13.0-1.61","3","Low_HMMActual","","","","","","null","","","","Images/WhiteBeadChoice.png","","null"
"image-button-response","244","450915","0.0-13.0-2.61","3","Low_HMMActual","","","","","","null","","","","Images/WhiteBeadChoiceCorrect.png","","null"
"image-button-response","245","451366","0.0-13.0-0.62","3","Low_HMMActual","","","","","","449.8450000000885","","","","Images/NewTrialWC.png","","2"
"image-button-response","246","451670","0.0-13.0-1.62","3","Low_HMMActual","","","","","","null","","","","Images/WhiteBeadChoice.png","","null"
"image-button-response","247","452172","0.0-13.0-2.62","3","Low_HMMActual","","","","","","null","","","","Images/WhiteBeadChoiceCorrect.png","","null"
"image-button-response","248","452678","0.0-13.0-0.63","3","Low_HMMActual","","","","","","504.59499999939","","","","Images/NewTrialWC.png","","2"
"image-button-response","249","452981","0.0-13.0-1.63","3","Low_HMMActual","","","","","","null","","","","Images/WhiteBeadChoice.png","","null"
"image-button-response","250","453484","0.0-13.0-2.63","3","Low_HMMActual","","","","","","null","","","","Images/WhiteBeadChoiceWrong.png","","null"
"image-button-response","251","453782","0.0-13.0-0.64","3","Low_HMMActual","","","","","","295.21999999997206","","","","Images/NewTrialBC.png","","1"
"image-button-response","252","454084","0.0-13.0-1.64","3","Low_HMMActual","","","","","","null","","","","Images/BlackBeadChoice.png","","null"
"image-button-response","253","454585","0.0-13.0-2.64","3","Low_HMMActual","","","","","","null","","","","Images/BlackBeadChoiceWrong.png","","null"
"image-button-response","254","454823","0.0-13.0-0.65","3","Low_HMMActual","","","","","","236.2149999999092","","","","Images/NewTrialWC.png","","2"
"image-button-response","255","455128","0.0-13.0-1.65","3","Low_HMMActual","","","","","","null","","","","Images/WhiteBeadChoice.png","","null"
"image-button-response","256","455630","0.0-13.0-2.65","3","Low_HMMActual","","","","","","null","","","","Images/WhiteBeadChoiceWrong.png","","null"
"image-button-response","257","455815","0.0-13.0-0.66","3","Low_HMMActual","","","","","","183.2150000000256","","","","Images/NewTrialBC.png","","1"
"image-button-response","258","456120","0.0-13.0-1.66","3","Low_HMMActual","","","","","","null","","","","Images/BlackBeadChoice.png","","null"
"image-button-response","259","456624","0.0-13.0-2.66","3","Low_HMMActual","","","","","","502.5550000000512","","","","Images/BlackBeadChoiceCorrect.png","","1"
"image-button-response","260","457615","0.0-13.0-0.67","3","Low_HMMActual","","","","","","989.7649999993737","","","","Images/NewTrialBC.png","","2"
"image-button-response","261","457918","0.0-13.0-1.67","3","Low_HMMActual","","","","","","null","","","","Images/WhiteBeadChoice.png","","null"
"image-button-response","262","458419","0.0-13.0-2.67","3","Low_HMMActual","","","","","","null","","","","Images/WhiteBeadChoiceCorrect.png","","null"
"image-button-response","263","459223","0.0-13.0-0.68","3","Low_HMMActual","","","","","","802.7050000000745","","","","Images/NewTrialWC.png","","2"
"image-button-response","264","459526","0.0-13.0-1.68","3","Low_HMMActual","","","","","","null","","","","Images/WhiteBeadChoice.png","","null"
"image-button-response","265","460028","0.0-13.0-2.68","3","Low_HMMActual","","","","","","null","","","","Images/WhiteBeadChoiceCorrect.png","","null"
"image-button-response","266","460474","0.0-13.0-0.69","3","Low_HMMActual","","","","","","443.6850000001723","","","","Images/NewTrialWC.png","","2"
"image-button-response","267","460779","0.0-13.0-1.69","3","Low_HMMActual","","","","","","null","","","","Images/WhiteBeadChoice.png","","null"
"image-button-response","268","461281","0.0-13.0-2.69","3","Low_HMMActual","","","","","","null","","","","Images/WhiteBeadChoiceCorrect.png","","null"
"image-button-response","269","462471","0.0-13.0-0.70","3","Low_HMMActual","","","","","","1188.8450000006123","","","","Images/NewTrialWC.png","","0"
"image-button-response","270","462774","0.0-13.0-1.70","3","Low_HMMActual","","","","","","null","","","","Images/BlackBeadChoice.png","","null"
"image-button-response","271","463282","0.0-13.0-2.70","3","Low_HMMActual","","","","","","null","","","","Images/BlackBeadChoiceWrong.png","","null"
"image-button-response","272","464233","0.0-13.0-0.71","3","Low_HMMActual","","","","","","948.3499999996857","","","","Images/NewTrialWC.png","","2"
"image-button-response","273","464547","0.0-13.0-1.71","3","Low_HMMActual","","","","","","null","","","","Images/WhiteBeadChoice.png","","null"
"image-button-response","274","465050","0.0-13.0-2.71","3","Low_HMMActual","","","","","","null","","","","Images/WhiteBeadChoiceCorrect.png","","null"
"image-button-response","275","467056","0.0-13.0-0.72","3","Low_HMMActual","","","","","","2004.1799999999348","","","","Images/NewTrialWC.png","","0"
"image-button-response","276","467363","0.0-13.0-1.72","3","Low_HMMActual","","","","","","null","","","","Images/BlackBeadChoice.png","","null"
"image-button-response","277","467867","0.0-13.0-2.72","3","Low_HMMActual","","","","","","null","","","","Images/BlackBeadChoiceWrong.png","","null"
"image-button-response","278","468713","0.0-13.0-0.73","3","Low_HMMActual","","","","","","844.6100000001024","","","","Images/NewTrialWC.png","","0"
"image-button-response","279","469025","0.0-13.0-1.73","3","Low_HMMActual","","","","","","null","","","","Images/BlackBeadChoice.png","","null"
"image-button-response","280","469528","0.0-13.0-2.73","3","Low_HMMActual","","","","","","null","","","","Images/BlackBeadChoiceWrong.png","","null"
"image-button-response","281","470449","0.0-13.0-0.74","3","Low_HMMActual","","","","","","919.7149999999674","","","","Images/NewTrialWC.png","","1"
"image-button-response","282","470751","0.0-13.0-1.74","3","Low_HMMActual","","","","","","null","","","","Images/BlackBeadChoice.png","","null"
"image-button-response","283","471254","0.0-13.0-2.74","3","Low_HMMActual","","","","","","null","","","","Images/BlackBeadChoiceWrong.png","","null"
"image-button-response","284","471609","0.0-13.0-0.75","3","Low_HMMActual","","","","","","351.2449999998207","","","","Images/NewTrialWC.png","","2"
"image-button-response","285","471911","0.0-13.0-1.75","3","Low_HMMActual","","","","","","null","","","","Images/WhiteBeadChoice.png","","null"
"image-button-response","286","472414","0.0-13.0-2.75","3","Low_HMMActual","","","","","","null","","","","Images/WhiteBeadChoiceCorrect.png","","null"
"image-button-response","287","472945","0.0-13.0-0.76","3","Low_HMMActual","","","","","","522.3150000001187","","","","Images/NewTrialWC.png","","2"
"image-button-response","288","473259","0.0-13.0-1.76","3","Low_HMMActual","","","","","","null","","","","Images/WhiteBeadChoice.png","","null"
"image-button-response","289","473761","0.0-13.0-2.76","3","Low_HMMActual","","","","","","null","","","","Images/WhiteBeadChoiceCorrect.png","","null"
"image-button-response","290","475754","0.0-13.0-0.77","3","Low_HMMActual","","","","","","1991.5099999998347","","","","Images/NewTrialWC.png","","1"
"image-button-response","291","476055","0.0-13.0-1.77","3","Low_HMMActual","","","","","","null","","","","Images/BlackBeadChoice.png","","null"
"image-button-response","292","476567","0.0-13.0-2.77","3","Low_HMMActual","","","","","","null","","","","Images/BlackBeadChoiceWrong.png","","null"
"image-button-response","293","476834","0.0-13.0-0.78","3","Low_HMMActual","","","","","","263.9549999994342","","","","Images/NewTrialWC.png","","1"
"image-button-response","294","477138","0.0-13.0-1.78","3","Low_HMMActual","","","","","","null","","","","Images/BlackBeadChoice.png","","null"
"image-button-response","295","477641","0.0-13.0-2.78","3","Low_HMMActual","","","","","","null","","","","Images/BlackBeadChoiceWrong.png","","null"
"image-button-response","296","478201","0.0-13.0-0.79","3","Low_HMMActual","","","","","","558","","","","Images/NewTrialWC.png","","3"
"image-button-response","297","478504","0.0-13.0-1.79","3","Low_HMMActual","","","","","","null","","","","Images/WhiteBeadChoice.png","","null"
"image-button-response","298","479006","0.0-13.0-2.79","3","Low_HMMActual","","","","","","null","","","","Images/WhiteBeadChoiceWrong.png","","null"
"image-button-response","299","479458","0.0-13.0-0.80","3","Low_HMMActual","","","","","","450.2300000003888","","","","Images/NewTrialBC.png","","0"
"image-button-response","300","479761","0.0-13.0-1.80","3","Low_HMMActual","","","","","","null","","","","Images/BlackBeadChoice.png","","null"
"image-button-response","301","480264","0.0-13.0-2.80","3","Low_HMMActual","","","","","","null","","","","Images/BlackBeadChoiceWrong.png","","null"
"image-button-response","302","480970","0.0-13.0-0.81","3","Low_HMMActual","","","","","","703.9400000003516","","","","Images/NewTrialWC.png","","3"
"image-button-response","303","481280","0.0-13.0-1.81","3","Low_HMMActual","","","","","","null","","","","Images/WhiteBeadChoice.png","","null"
"image-button-response","304","481788","0.0-13.0-2.81","3","Low_HMMActual","","","","","","null","","","","Images/WhiteBeadChoiceCorrect.png","","null"
"image-button-response","305","482307","0.0-13.0-0.82","3","Low_HMMActual","","","","","","517.2249999996275","","","","Images/NewTrialWC.png","","2"
"image-button-response","306","482612","0.0-13.0-1.82","3","Low_HMMActual","","","","","","null","","","","Images/WhiteBeadChoice.png","","null"
"image-button-response","307","483130","0.0-13.0-2.82","3","Low_HMMActual","","","","","","null","","","","Images/WhiteBeadChoiceCorrect.png","","null"
"image-button-response","308","483355","0.0-13.0-0.83","3","Low_HMMActual","","","","","","223.28999999992084","","","","Images/NewTrialWC.png","","2"
"image-button-response","309","483672","0.0-13.0-1.83","3","Low_HMMActual","","","","","","null","","","","Images/WhiteBeadChoice.png","","null"
"image-button-response","310","484175","0.0-13.0-2.83","3","Low_HMMActual","","","","","","null","","","","Images/WhiteBeadChoiceWrong.png","","null"
"image-button-response","311","484643","0.0-13.0-0.84","3","Low_HMMActual","","","","","","465.22999999980675","","","","Images/NewTrialBC.png","","1"
"image-button-response","312","484945","0.0-13.0-1.84","3","Low_HMMActual","","","","","","null","","","","Images/BlackBeadChoice.png","","null"
"image-button-response","313","485458","0.0-13.0-2.84","3","Low_HMMActual","","","","","","null","","","","Images/BlackBeadChoiceWrong.png","","null"
"image-button-response","314","487163","0.0-13.0-0.85","3","Low_HMMActual","","","","","","1703.3899999996647","","","","Images/NewTrialWC.png","","2"
"image-button-response","315","487464","0.0-13.0-1.85","3","Low_HMMActual","","","","","","null","","","","Images/WhiteBeadChoice.png","","null"
"image-button-response","316","487967","0.0-13.0-2.85","3","Low_HMMActual","","","","","","null","","","","Images/WhiteBeadChoiceWrong.png","","null"
"image-button-response","317","488475","0.0-13.0-0.86","3","Low_HMMActual","","","","","","507.03000000061","","","","Images/NewTrialBC.png","","2"
"image-button-response","318","488777","0.0-13.0-1.86","3","Low_HMMActual","","","","","","null","","","","Images/WhiteBeadChoice.png","","null"
"image-button-response","319","489279","0.0-13.0-2.86","3","Low_HMMActual","","","","","","null","","","","Images/WhiteBeadChoiceWrong.png","","null"
"image-button-response","320","489659","0.0-13.0-0.87","3","Low_HMMActual","","","","","","378.784999999858","","","","Images/NewTrialBC.png","","0"
"image-button-response","321","489962","0.0-13.0-1.87","3","Low_HMMActual","","","","","","null","","","","Images/BlackBeadChoice.png","","null"
"image-button-response","322","490468","0.0-13.0-2.87","3","Low_HMMActual","","","","","","null","","","","Images/BlackBeadChoiceWrong.png","","null"
"image-button-response","323","492852","0.0-13.0-0.88","3","Low_HMMActual","","","","","","2382.4949999998207","","","","Images/NewTrialWC.png","","3"
"image-button-response","324","493158","0.0-13.0-1.88","3","Low_HMMActual","","","","","","null","","","","Images/WhiteBeadChoice.png","","null"
"image-button-response","325","493663","0.0-13.0-2.88","3","Low_HMMActual","","","","","","null","","","","Images/WhiteBeadChoiceCorrect.png","","null"
"image-button-response","326","493796","0.0-13.0-0.89","3","Low_HMMActual","","","","","","131.62999999983003","","","","Images/NewTrialWC.png","","3"
"image-button-response","327","494107","0.0-13.0-1.89","3","Low_HMMActual","","","","","","null","","","","Images/WhiteBeadChoice.png","","null"
"image-button-response","328","494610","0.0-13.0-2.89","3","Low_HMMActual","","","","","","null","","","","Images/WhiteBeadChoiceCorrect.png","","null"
"image-button-response","329","495580","0.0-13.0-0.90","3","Low_HMMActual","","","","","","968.6549999996787","","","","Images/NewTrialWC.png","","2"
"image-button-response","330","495883","0.0-13.0-1.90","3","Low_HMMActual","","","","","","null","","","","Images/WhiteBeadChoice.png","","null"
"image-button-response","331","496385","0.0-13.0-2.90","3","Low_HMMActual","","","","","","null","","","","Images/WhiteBeadChoiceCorrect.png","","null"
"image-button-response","332","496637","0.0-13.0-0.91","3","Low_HMMActual","","","","","","250.78500000020722","","","","Images/NewTrialWC.png","","2"
"image-button-response","333","496938","0.0-13.0-1.91","3","Low_HMMActual","","","","","","null","","","","Images/WhiteBeadChoice.png","","null"
"image-button-response","334","497448","0.0-13.0-2.91","3","Low_HMMActual","","","","","","416.19499999977415","","","","Images/WhiteBeadChoiceCorrect.png","","2"
"image-button-response","335","498277","0.0-13.0-0.92","3","Low_HMMActual","","","","","","824.0150000001304","","","","Images/NewTrialWC.png","","1"
"image-button-response","336","498592","0.0-13.0-1.92","3","Low_HMMActual","","","","","","null","","","","Images/BlackBeadChoice.png","","null"
"image-button-response","337","499093","0.0-13.0-2.92","3","Low_HMMActual","","","","","","null","","","","Images/BlackBeadChoiceWrong.png","","null"
"image-button-response","338","499574","0.0-13.0-0.93","3","Low_HMMActual","","","","","","478.47000000003027","","","","Images/NewTrialWC.png","","2"
"image-button-response","339","499876","0.0-13.0-1.93","3","Low_HMMActual","","","","","","null","","","","Images/WhiteBeadChoice.png","","null"
"image-button-response","340","500378","0.0-13.0-2.93","3","Low_HMMActual","","","","","","null","","","","Images/WhiteBeadChoiceWrong.png","","null"
"image-button-response","341","501413","0.0-13.0-0.94","3","Low_HMMActual","","","","","","1033.7749999998487","","","","Images/NewTrialBC.png","","0"
"image-button-response","342","501716","0.0-13.0-1.94","3","Low_HMMActual","","","","","","null","","","","Images/BlackBeadChoice.png","","null"
"image-button-response","343","502219","0.0-13.0-2.94","3","Low_HMMActual","","","","","","null","","","","Images/BlackBeadChoiceWrong.png","","null"
"image-button-response","344","503133","0.0-13.0-0.95","3","Low_HMMActual","","","","","","911.7050000004238","","","","Images/NewTrialWC.png","","3"
"image-button-response","345","503435","0.0-13.0-1.95","3","Low_HMMActual","","","","","","null","","","","Images/WhiteBeadChoice.png","","null"
"image-button-response","346","503940","0.0-13.0-2.95","3","Low_HMMActual","","","","","","null","","","","Images/WhiteBeadChoiceCorrect.png","","null"
"image-button-response","347","504238","0.0-13.0-0.96","3","Low_HMMActual","","","","","","296.670000000624","","","","Images/NewTrialWC.png","","3"
"image-button-response","348","504541","0.0-13.0-1.96","3","Low_HMMActual","","","","","","null","","","","Images/WhiteBeadChoice.png","","null"
"image-button-response","349","505049","0.0-13.0-2.96","3","Low_HMMActual","","","","","","null","","","","Images/WhiteBeadChoiceCorrect.png","","null"
"image-button-response","350","505245","0.0-13.0-0.97","3","Low_HMMActual","","","","","","193.7100000004284","","","","Images/NewTrialWC.png","","2"
"image-button-response","351","505549","0.0-13.0-1.97","3","Low_HMMActual","","","","","","null","","","","Images/WhiteBeadChoice.png","","null"
"image-button-response","352","506057","0.0-13.0-2.97","3","Low_HMMActual","","","","","","null","","","","Images/WhiteBeadChoiceWrong.png","","null"
"image-button-response","353","506430","0.0-13.0-0.98","3","Low_HMMActual","","","","","","371.3550000002724","","","","Images/NewTrialBC.png","","0"
"image-button-response","354","506738","0.0-13.0-1.98","3","Low_HMMActual","","","","","","null","","","","Images/BlackBeadChoice.png","","null"
"image-button-response","355","507241","0.0-13.0-2.98","3","Low_HMMActual","","","","","","null","","","","Images/BlackBeadChoiceWrong.png","","null"
"image-button-response","356","507622","0.0-13.0-0.99","3","Low_HMMActual","","","","","","378.1900000003516","","","","Images/NewTrialWC.png","","2"
"image-button-response","357","507927","0.0-13.0-1.99","3","Low_HMMActual","","","","","","null","","","","Images/WhiteBeadChoice.png","","null"
"image-button-response","358","508430","0.0-13.0-2.99","3","Low_HMMActual","","","","","","null","","","","Images/WhiteBeadChoiceCorrect.png","","null"
"image-button-response","359","508694","0.0-13.0-0.100","3","Low_HMMActual","","","","","","262.3700000003446","","","","Images/NewTrialWC.png","","2"
"image-button-response","360","508996","0.0-13.0-1.100","3","Low_HMMActual","","","","","","null","","","","Images/WhiteBeadChoice.png","","null"
"image-button-response","361","509499","0.0-13.0-2.100","3","Low_HMMActual","","","","","","null","","","","Images/WhiteBeadChoiceCorrect.png","","null"
"image-button-response","362","510207","0.0-13.0-0.101","3","Low_HMMActual","","","","","","705.9300000000512","","","","Images/NewTrialWC.png","","2"
"image-button-response","363","510509","0.0-13.0-1.101","3","Low_HMMActual","","","","","","null","","","","Images/WhiteBeadChoice.png","","null"
"image-button-response","364","511012","0.0-13.0-2.101","3","Low_HMMActual","","","","","","null","","","","Images/WhiteBeadChoiceCorrect.png","","null"
"image-button-response","365","511374","0.0-13.0-0.102","3","Low_HMMActual","","","","","","360.1250000001746","","","","Images/NewTrialWC.png","","1"
"image-button-response","366","511690","0.0-13.0-1.102","3","Low_HMMActual","","","","","","null","","","","Images/BlackBeadChoice.png","","null"
"image-button-response","367","512191","0.0-13.0-2.102","3","Low_HMMActual","","","","","","null","","","","Images/BlackBeadChoiceWrong.png","","null"
"image-button-response","368","512527","0.0-13.0-0.103","3","Low_HMMActual","","","","","","334.6549999996787","","","","Images/NewTrialWC.png","","2"
"image-button-response","369","512829","0.0-13.0-1.103","3","Low_HMMActual","","","","","","null","","","","Images/WhiteBeadChoice.png","","null"
"image-button-response","370","513334","0.0-13.0-2.103","3","Low_HMMActual","","","","","","null","","","","Images/WhiteBeadChoiceCorrect.png","","null"
"image-button-response","371","513702","0.0-13.0-0.104","3","Low_HMMActual","","","","","","365.65000000060536","","","","Images/NewTrialWC.png","","1"
"image-button-response","372","514016","0.0-13.0-1.104","3","Low_HMMActual","","","","","","null","","","","Images/BlackBeadChoice.png","","null"
"image-button-response","373","514524","0.0-13.0-2.104","3","Low_HMMActual","","","","","","null","","","","Images/BlackBeadChoiceWrong.png","","null"
"image-button-response","374","515759","0.0-13.0-0.105","3","Low_HMMActual","","","","","","1233.124999999709","","","","Images/NewTrialWC.png","","3"
"image-button-response","375","516061","0.0-13.0-1.105","3","Low_HMMActual","","","","","","null","","","","Images/WhiteBeadChoice.png","","null"
"image-button-response","376","516563","0.0-13.0-2.105","3","Low_HMMActual","","","","","","null","","","","Images/WhiteBeadChoiceWrong.png","","null"
"image-button-response","377","517247","0.0-13.0-0.106","3","Low_HMMActual","","","","","","682.2100000008359","","","","Images/NewTrialBC.png","","1"
"image-button-response","378","517564","0.0-13.0-1.106","3","Low_HMMActual","","","","","","null","","","","Images/BlackBeadChoice.png","","null"
"image-button-response","379","518066","0.0-13.0-2.106","3","Low_HMMActual","","","","","","null","","","","Images/BlackBeadChoiceWrong.png","","null"
"image-button-response","380","519408","0.0-13.0-0.107","3","Low_HMMActual","","","","","","1338.3499999999767","","","","Images/NewTrialWC.png","","2"
"image-button-response","381","519710","0.0-13.0-1.107","3","Low_HMMActual","","","","","","null","","","","Images/WhiteBeadChoice.png","","null"
"image-button-response","382","520212","0.0-13.0-2.107","3","Low_HMMActual","","","","","","null","","","","Images/WhiteBeadChoiceCorrect.png","","null"
"image-button-response","383","520791","0.0-13.0-0.108","3","Low_HMMActual","","","","","","577.3449999997392","","","","Images/NewTrialWC.png","","2"
"image-button-response","384","521094","0.0-13.0-1.108","3","Low_HMMActual","","","","","","null","","","","Images/WhiteBeadChoice.png","","null"
"image-button-response","385","521595","0.0-13.0-2.108","3","Low_HMMActual","","","","","","null","","","","Images/WhiteBeadChoiceWrong.png","","null"
"image-button-response","386","522048","0.0-13.0-0.109","3","Low_HMMActual","","","","","","451.32500000006985","","","","Images/NewTrialBC.png","","0"
"image-button-response","387","522354","0.0-13.0-1.109","3","Low_HMMActual","","","","","","null","","","","Images/BlackBeadChoice.png","","null"
"image-button-response","388","522857","0.0-13.0-2.109","3","Low_HMMActual","","","","","","null","","","","Images/BlackBeadChoiceWrong.png","","null"
"image-button-response","389","523128","0.0-13.0-0.110","3","Low_HMMActual","","","","","","269.6150000001071","","","","Images/NewTrialWC.png","","2"
"image-button-response","390","523430","0.0-13.0-1.110","3","Low_HMMActual","","","","","","null","","","","Images/WhiteBeadChoice.png","","null"
"image-button-response","391","523932","0.0-13.0-2.110","3","Low_HMMActual","","","","","","null","","","","Images/WhiteBeadChoiceCorrect.png","","null"
"image-button-response","392","524185","0.0-13.0-0.111","3","Low_HMMActual","","","","","","250.8649999999907","","","","Images/NewTrialWC.png","","2"
"image-button-response","393","524488","0.0-13.0-1.111","3","Low_HMMActual","","","","","","null","","","","Images/WhiteBeadChoice.png","","null"
"image-button-response","394","524990","0.0-13.0-2.111","3","Low_HMMActual","","","","","","null","","","","Images/WhiteBeadChoiceCorrect.png","","null"
"image-button-response","395","525329","0.0-13.0-0.112","3","Low_HMMActual","","","","","","336.0450000000419","","","","Images/NewTrialWC.png","","2"
"image-button-response","396","525634","0.0-13.0-1.112","3","Low_HMMActual","","","","","","null","","","","Images/WhiteBeadChoice.png","","null"
"image-button-response","397","526136","0.0-13.0-2.112","3","Low_HMMActual","","","","","","null","","","","Images/WhiteBeadChoiceCorrect.png","","null"
"image-button-response","398","526538","0.0-13.0-0.113","3","Low_HMMActual","","","","","","399.7049999998417","","","","Images/NewTrialWC.png","","2"
"image-button-response","399","526841","0.0-13.0-1.113","3","Low_HMMActual","","","","","","null","","","","Images/WhiteBeadChoice.png","","null"
"image-button-response","400","527344","0.0-13.0-2.113","3","Low_HMMActual","","","","","","null","","","","Images/WhiteBeadChoiceCorrect.png","","null"
"image-button-response","401","528065","0.0-13.0-0.114","3","Low_HMMActual","","","","","","719.1199999997625","","","","Images/NewTrialWC.png","","0"
"image-button-response","402","528381","0.0-13.0-1.114","3","Low_HMMActual","","","","","","null","","","","Images/BlackBeadChoice.png","","null"
"image-button-response","403","528884","0.0-13.0-2.114","3","Low_HMMActual","","","","","","null","","","","Images/BlackBeadChoiceCorrect.png","","null"
"image-button-response","404","529425","0.0-13.0-0.115","3","Low_HMMActual","","","","","","538.7999999993481","","","","Images/NewTrialBC.png","","0"
"image-button-response","405","529727","0.0-13.0-1.115","3","Low_HMMActual","","","","","","null","","","","Images/BlackBeadChoice.png","","null"
"image-button-response","406","530229","0.0-13.0-2.115","3","Low_HMMActual","","","","","","null","","","","Images/BlackBeadChoiceCorrect.png","","null"
"image-button-response","407","531051","0.0-13.0-0.116","3","Low_HMMActual","","","","","","811.5999999999767","","","","Images/NewTrialBC.png","","1"
"image-button-response","408","531358","0.0-13.0-1.116","3","Low_HMMActual","","","","","","null","","","","Images/BlackBeadChoice.png","","null"
"image-button-response","409","531861","0.0-13.0-2.116","3","Low_HMMActual","","","","","","null","","","","Images/BlackBeadChoiceCorrect.png","","null"
"image-button-response","410","532345","0.0-13.0-0.117","3","Low_HMMActual","","","","","","482.379999999539","","","","Images/NewTrialBC.png","","3"
"image-button-response","411","532647","0.0-13.0-1.117","3","Low_HMMActual","","","","","","null","","","","Images/WhiteBeadChoice.png","","null"
"image-button-response","412","533149","0.0-13.0-2.117","3","Low_HMMActual","","","","","","null","","","","Images/WhiteBeadChoiceWrong.png","","null"
"image-button-response","413","533513","0.0-13.0-0.118","3","Low_HMMActual","","","","","","360.59499999927357","","","","Images/NewTrialBC.png","","1"
"image-button-response","414","533815","0.0-13.0-1.118","3","Low_HMMActual","","","","","","null","","","","Images/BlackBeadChoice.png","","null"
"image-button-response","415","534318","0.0-13.0-2.118","3","Low_HMMActual","","","","","","null","","","","Images/BlackBeadChoiceCorrect.png","","null"
"image-button-response","416","535081","0.0-13.0-0.119","3","Low_HMMActual","","","","","","761.5150000001304","","","","Images/NewTrialBC.png","","2"
"image-button-response","417","535392","0.0-13.0-1.119","3","Low_HMMActual","","","","","","null","","","","Images/WhiteBeadChoice.png","","null"
"image-button-response","418","535894","0.0-13.0-2.119","3","Low_HMMActual","","","","","","null","","","","Images/WhiteBeadChoiceCorrect.png","","null"
"image-button-response","419","536355","0.0-13.0-0.120","3","Low_HMMActual","","","","","","459.21999999973923","","","","Images/NewTrialWC.png","","2"
"image-button-response","420","536670","0.0-13.0-1.120","3","Low_HMMActual","","","","","","null","","","","Images/WhiteBeadChoice.png","","null"
"image-button-response","421","537173","0.0-13.0-2.120","3","Low_HMMActual","","","","","","null","","","","Images/WhiteBeadChoiceWrong.png","","null"
"image-button-response","422","537691","0.0-13.0-0.121","3","Low_HMMActual","","","","","","515.9349999993574","","","","Images/NewTrialBC.png","","0"
"image-button-response","423","538000","0.0-13.0-1.121","3","Low_HMMActual","","","","","","null","","","","Images/BlackBeadChoice.png","","null"
"image-button-response","424","538503","0.0-13.0-2.121","3","Low_HMMActual","","","","","","497.01500000001397","","","","Images/BlackBeadChoiceCorrect.png","","0"
"image-button-response","425","539650","0.0-13.0-0.122","3","Low_HMMActual","","","","","","1144.4250000003958","","","","Images/NewTrialBC.png","","0"
"image-button-response","426","539960","0.0-13.0-1.122","3","Low_HMMActual","","","","","","null","","","","Images/BlackBeadChoice.png","","null"
"image-button-response","427","540468","0.0-13.0-2.122","3","Low_HMMActual","","","","","","null","","","","Images/BlackBeadChoiceCorrect.png","","null"
"image-button-response","428","540779","0.0-13.0-0.123","3","Low_HMMActual","","","","","","307.8599999998696","","","","Images/NewTrialBC.png","","0"
"image-button-response","429","541081","0.0-13.0-1.123","3","Low_HMMActual","","","","","","null","","","","Images/BlackBeadChoice.png","","null"
"image-button-response","430","541585","0.0-13.0-2.123","3","Low_HMMActual","","","","","","null","","","","Images/BlackBeadChoiceCorrect.png","","null"
"image-button-response","431","542547","0.0-13.0-0.124","3","Low_HMMActual","","","","","","960.9499999997206","","","","Images/NewTrialBC.png","","3"
"image-button-response","432","542850","0.0-13.0-1.124","3","Low_HMMActual","","","","","","null","","","","Images/WhiteBeadChoice.png","","null"
"image-button-response","433","543351","0.0-13.0-2.124","3","Low_HMMActual","","","","","","null","","","","Images/WhiteBeadChoiceCorrect.png","","null"
"image-button-response","434","543490","0.0-13.0-0.125","3","Low_HMMActual","","","","","","137.68999999947846","","","","Images/NewTrialWC.png","","2"
"image-button-response","435","543797","0.0-13.0-1.125","3","Low_HMMActual","","","","","","null","","","","Images/WhiteBeadChoice.png","","null"
"image-button-response","436","544305","0.0-13.0-2.125","3","Low_HMMActual","","","","","","null","","","","Images/WhiteBeadChoiceWrong.png","","null"
"image-button-response","437","544755","0.0-13.0-0.126","3","Low_HMMActual","","","","","","447.64500000013504","","","","Images/NewTrialBC.png","","0"
"image-button-response","438","545057","0.0-13.0-1.126","3","Low_HMMActual","","","","","","null","","","","Images/BlackBeadChoice.png","","null"
"image-button-response","439","545573","0.0-13.0-2.126","3","Low_HMMActual","","","","","","465.16999999945983","","","","Images/BlackBeadChoiceCorrect.png","","0"
"image-button-response","440","546075","0.0-13.0-0.127","3","Low_HMMActual","","","","","","500.35999999998603","","","","Images/NewTrialBC.png","","0"
"image-button-response","441","546382","0.0-13.0-1.127","3","Low_HMMActual","","","","","","null","","","","Images/BlackBeadChoice.png","","null"
"image-button-response","442","546888","0.0-13.0-2.127","3","Low_HMMActual","","","","","","null","","","","Images/BlackBeadChoiceCorrect.png","","null"
"image-button-response","443","547075","0.0-13.0-0.128","3","Low_HMMActual","","","","","","185.02000000083353","","","","Images/NewTrialBC.png","","0"
"image-button-response","444","547380","0.0-13.0-1.128","3","Low_HMMActual","","","","","","null","","","","Images/BlackBeadChoice.png","","null"
"image-button-response","445","547882","0.0-13.0-2.128","3","Low_HMMActual","","","","","","381.5449999993434","","","","Images/BlackBeadChoiceCorrect.png","","0"
"image-button-response","446","548476","0.0-13.0-0.129","3","Low_HMMActual","","","","","","591.9199999998091","","","","Images/NewTrialBC.png","","0"
"image-button-response","447","548779","0.0-13.0-1.129","3","Low_HMMActual","","","","","","null","","","","Images/BlackBeadChoice.png","","null"
"image-button-response","448","549290","0.0-13.0-2.129","3","Low_HMMActual","","","","","","null","","","","Images/BlackBeadChoiceCorrect.png","","null"
"image-button-response","449","549636","0.0-13.0-0.130","3","Low_HMMActual","","","","","","335.01999999955297","","","","Images/NewTrialBC.png","","0"
"image-button-response","450","549938","0.0-13.0-1.130","3","Low_HMMActual","","","","","","null","","","","Images/BlackBeadChoice.png","","null"
"image-button-response","451","550440","0.0-13.0-2.130","3","Low_HMMActual","","","","","","489.3149999997113","","","","Images/BlackBeadChoiceCorrect.png","","0"
"image-button-response","452","550996","0.0-13.0-0.131","3","Low_HMMActual","","","","","","554.5850000007777","","","","Images/NewTrialBC.png","","0"
"image-button-response","453","551305","0.0-13.0-1.131","3","Low_HMMActual","","","","","","null","","","","Images/BlackBeadChoice.png","","null"
"image-button-response","454","551811","0.0-13.0-2.131","3","Low_HMMActual","","","","","","null","","","","Images/BlackBeadChoiceCorrect.png","","null"
"image-button-response","455","552180","0.0-13.0-0.132","3","Low_HMMActual","","","","","","366.7150000000838","","","","Images/NewTrialBC.png","","0"
"image-button-response","456","552490","0.0-13.0-1.132","3","Low_HMMActual","","","","","","null","","","","Images/BlackBeadChoice.png","","null"
"image-button-response","457","552996","0.0-13.0-2.132","3","Low_HMMActual","","","","","","null","","","","Images/BlackBeadChoiceCorrect.png","","null"
"image-button-response","458","553394","0.0-13.0-0.133","3","Low_HMMActual","","","","","","396.74999999976717","","","","Images/NewTrialBC.png","","0"
"image-button-response","459","553697","0.0-13.0-1.133","3","Low_HMMActual","","","","","","null","","","","Images/BlackBeadChoice.png","","null"
"image-button-response","460","554200","0.0-13.0-2.133","3","Low_HMMActual","","","","","","null","","","","Images/BlackBeadChoiceCorrect.png","","null"
"image-button-response","461","554660","0.0-13.0-0.134","3","Low_HMMActual","","","","","","457.4799999999814","","","","Images/NewTrialBC.png","","0"
"image-button-response","462","554976","0.0-13.0-1.134","3","Low_HMMActual","","","","","","null","","","","Images/BlackBeadChoice.png","","null"
"image-button-response","463","555480","0.0-13.0-2.134","3","Low_HMMActual","","","","","","null","","","","Images/BlackBeadChoiceWrong.png","","null"
"image-button-response","464","556509","0.0-13.0-0.135","3","Low_HMMActual","","","","","","1026.5149999995483","","","","Images/NewTrialWC.png","","0"
"image-button-response","465","556811","0.0-13.0-1.135","3","Low_HMMActual","","","","","","null","","","","Images/BlackBeadChoice.png","","null"
"image-button-response","466","557317","0.0-13.0-2.135","3","Low_HMMActual","","","","","","null","","","","Images/BlackBeadChoiceCorrect.png","","null"
"image-button-response","467","557571","0.0-13.0-0.136","3","Low_HMMActual","","","","","","245.67000000027474","","","","Images/NewTrialBC.png","","0"
"image-button-response","468","557873","0.0-13.0-1.136","3","Low_HMMActual","","","","","","null","","","","Images/BlackBeadChoice.png","","null"
"image-button-response","469","558378","0.0-13.0-2.136","3","Low_HMMActual","","","","","","null","","","","Images/BlackBeadChoiceCorrect.png","","null"
"image-button-response","470","558509","0.0-13.0-0.137","3","Low_HMMActual","","","","","","129.00500000070315","","","","Images/NewTrialBC.png","","0"
"image-button-response","471","558822","0.0-13.0-1.137","3","Low_HMMActual","","","","","","null","","","","Images/BlackBeadChoice.png","","null"
"image-button-response","472","559339","0.0-13.0-2.137","3","Low_HMMActual","","","","","","null","","","","Images/BlackBeadChoiceWrong.png","","null"
"image-button-response","473","560493","0.0-13.0-0.138","3","Low_HMMActual","","","","","","1153.3500000005588","","","","Images/NewTrialWC.png","","3"
"image-button-response","474","560797","0.0-13.0-1.138","3","Low_HMMActual","","","","","","null","","","","Images/WhiteBeadChoice.png","","null"
"image-button-response","475","561299","0.0-13.0-2.138","3","Low_HMMActual","","","","","","null","","","","Images/WhiteBeadChoiceCorrect.png","","null"
"image-button-response","476","561517","0.0-13.0-0.139","3","Low_HMMActual","","","","","","216.9100000000326","","","","Images/NewTrialWC.png","","3"
"image-button-response","477","561827","0.0-13.0-1.139","3","Low_HMMActual","","","","","","null","","","","Images/WhiteBeadChoice.png","","null"
"image-button-response","478","562329","0.0-13.0-2.139","3","Low_HMMActual","","","","","","null","","","","Images/WhiteBeadChoiceWrong.png","","null"
"image-button-response","479","563084","0.0-13.0-0.140","3","Low_HMMActual","","","","","","752.7099999997299","","","","Images/NewTrialBC.png","","0"
"image-button-response","480","563385","0.0-13.0-1.140","3","Low_HMMActual","","","","","","null","","","","Images/BlackBeadChoice.png","","null"
"image-button-response","481","563887","0.0-13.0-2.140","3","Low_HMMActual","","","","","","null","","","","Images/BlackBeadChoiceWrong.png","","null"
"image-button-response","482","564620","0.0-13.0-0.141","3","Low_HMMActual","","","","","","730.5549999991199","","","","Images/NewTrialWC.png","","0"
"image-button-response","483","564925","0.0-13.0-1.141","3","Low_HMMActual","","","","","","null","","","","Images/BlackBeadChoice.png","","null"
"image-button-response","484","565427","0.0-13.0-2.141","3","Low_HMMActual","","","","","","null","","","","Images/BlackBeadChoiceCorrect.png","","null"
"image-button-response","485","565516","0.0-13.0-0.142","3","Low_HMMActual","","","","","","87.10499999951571","","","","Images/NewTrialBC.png","","0"
"image-button-response","486","565823","0.0-13.0-1.142","3","Low_HMMActual","","","","","","null","","","","Images/BlackBeadChoice.png","","null"
"image-button-response","487","566327","0.0-13.0-2.142","3","Low_HMMActual","","","","","","null","","","","Images/BlackBeadChoiceCorrect.png","","null"
"image-button-response","488","566460","0.0-13.0-0.143","3","Low_HMMActual","","","","","","131.61500000022352","","","","Images/NewTrialBC.png","","0"
"image-button-response","489","566769","0.0-13.0-1.143","3","Low_HMMActual","","","","","","null","","","","Images/BlackBeadChoice.png","","null"
"image-button-response","490","567274","0.0-13.0-2.143","3","Low_HMMActual","","","","","","441.1550000003772","","","","Images/BlackBeadChoiceCorrect.png","","0"
"image-button-response","491","568284","0.0-13.0-0.144","3","Low_HMMActual","","","","","","1008.7450000001118","","","","Images/NewTrialBC.png","","0"
"image-button-response","492","568601","0.0-13.0-1.144","3","Low_HMMActual","","","","","","null","","","","Images/BlackBeadChoice.png","","null"
"image-button-response","493","569104","0.0-13.0-2.144","3","Low_HMMActual","","","","","","null","","","","Images/BlackBeadChoiceCorrect.png","","null"
"image-button-response","494","569301","0.0-13.0-0.145","3","Low_HMMActual","","","","","","195.38000000012107","","","","Images/NewTrialBC.png","","0"
"image-button-response","495","569611","0.0-13.0-1.145","3","Low_HMMActual","","","","","","null","","","","Images/BlackBeadChoice.png","","null"
"image-button-response","496","570112","0.0-13.0-2.145","3","Low_HMMActual","","","","","","null","","","","Images/BlackBeadChoiceWrong.png","","null"
"image-button-response","497","570924","0.0-13.0-0.146","3","Low_HMMActual","","","","","","810.359999999404","","","","Images/NewTrialWC.png","","0"
"image-button-response","498","571226","0.0-13.0-1.146","3","Low_HMMActual","","","","","","null","","","","Images/BlackBeadChoice.png","","null"
"image-button-response","499","571728","0.0-13.0-2.146","3","Low_HMMActual","","","","","","null","","","","Images/BlackBeadChoiceCorrect.png","","null"
"image-button-response","500","571933","0.0-13.0-0.147","3","Low_HMMActual","","","","","","194.6950000001816","","","","Images/NewTrialBC.png","","0"
"image-button-response","501","572249","0.0-13.0-1.147","3","Low_HMMActual","","","","","","null","","","","Images/BlackBeadChoice.png","","null"
"image-button-response","502","572751","0.0-13.0-2.147","3","Low_HMMActual","","","","","","null","","","","Images/BlackBeadChoiceWrong.png","","null"
"image-button-response","503","573405","0.0-13.0-0.148","3","Low_HMMActual","","","","","","652.8550000002142","","","","Images/NewTrialWC.png","","2"
"image-button-response","504","573708","0.0-13.0-1.148","3","Low_HMMActual","","","","","","null","","","","Images/WhiteBeadChoice.png","","null"
"image-button-response","505","574211","0.0-13.0-2.148","3","Low_HMMActual","","","","","","null","","","","Images/WhiteBeadChoiceWrong.png","","null"
"image-button-response","506","574949","0.0-13.0-0.149","3","Low_HMMActual","","","","","","736.6499999997905","","","","Images/NewTrialBC.png","","0"
"image-button-response","507","575251","0.0-13.0-1.149","3","Low_HMMActual","","","","","","null","","","","Images/BlackBeadChoice.png","","null"
"image-button-response","508","575757","0.0-13.0-2.149","3","Low_HMMActual","","","","","","417.25000000034925","","","","Images/BlackBeadChoiceCorrect.png","","0"
"image-button-response","509","576269","0.0-13.0-0.150","3","Low_HMMActual","","","","","","503.8100000001723","","","","Images/NewTrialBC.png","","0"
"image-button-response","510","576574","0.0-13.0-1.150","3","Low_HMMActual","","","","","","null","","","","Images/BlackBeadChoice.png","","null"
"image-button-response","511","577077","0.0-13.0-2.150","3","Low_HMMActual","","","","","","null","","","","Images/BlackBeadChoiceCorrect.png","","null"
"image-button-response","512","577381","0.0-13.0-0.151","3","Low_HMMActual","","","","","","302.81999999983236","","","","Images/NewTrialBC.png","","0"
"image-button-response","513","577683","0.0-13.0-1.151","3","Low_HMMActual","","","","","","null","","","","Images/BlackBeadChoice.png","","null"
"image-button-response","514","578186","0.0-13.0-2.151","3","Low_HMMActual","","","","","","null","","","","Images/BlackBeadChoiceCorrect.png","","null"
"image-button-response","515","578390","0.0-13.0-0.152","3","Low_HMMActual","","","","","","199.3950000004843","","","","Images/NewTrialBC.png","","3"
"image-button-response","516","578704","0.0-13.0-1.152","3","Low_HMMActual","","","","","","null","","","","Images/WhiteBeadChoice.png","","null"
"image-button-response","517","579205","0.0-13.0-2.152","3","Low_HMMActual","","","","","","null","","","","Images/WhiteBeadChoiceCorrect.png","","null"
"image-button-response","518","579982","0.0-13.0-0.153","3","Low_HMMActual","","","","","","775.1699999999255","","","","Images/NewTrialWC.png","","2"
"image-button-response","519","580286","0.0-13.0-1.153","3","Low_HMMActual","","","","","","null","","","","Images/WhiteBeadChoice.png","","null"
"image-button-response","520","580788","0.0-13.0-2.153","3","Low_HMMActual","","","","","","null","","","","Images/WhiteBeadChoiceWrong.png","","null"
"image-button-response","521","583230","0.0-13.0-0.154","3","Low_HMMActual","","","","","","2439.5500000000466","","","","Images/NewTrialBC.png","","1"
"image-button-response","522","583546","0.0-13.0-1.154","3","Low_HMMActual","","","","","","null","","","","Images/BlackBeadChoice.png","","null"
"image-button-response","523","584048","0.0-13.0-2.154","3","Low_HMMActual","","","","","","null","","","","Images/BlackBeadChoiceCorrect.png","","null"
"image-button-response","524","584174","0.0-13.0-0.155","3","Low_HMMActual","","","","","","124.64000000001397","","","","Images/NewTrialBC.png","","0"
"image-button-response","525","584480","0.0-13.0-1.155","3","Low_HMMActual","","","","","","null","","","","Images/BlackBeadChoice.png","","null"
"image-button-response","526","584982","0.0-13.0-2.155","3","Low_HMMActual","","","","","","427.9999999998836","","","","Images/BlackBeadChoiceCorrect.png","","0"
"image-button-response","527","585718","0.0-13.0-0.156","3","Low_HMMActual","","","","","","732.8950000000186","","","","Images/NewTrialBC.png","","0"
"image-button-response","528","586020","0.0-13.0-1.156","3","Low_HMMActual","","","","","","null","","","","Images/BlackBeadChoice.png","","null"
"image-button-response","529","586522","0.0-13.0-2.156","3","Low_HMMActual","","","","","","null","","","","Images/BlackBeadChoiceWrong.png","","null"
"image-button-response","530","587262","0.0-13.0-0.157","3","Low_HMMActual","","","","","","738.449999999837","","","","Images/NewTrialWC.png","","3"
"image-button-response","531","587567","0.0-13.0-1.157","3","Low_HMMActual","","","","","","null","","","","Images/WhiteBeadChoice.png","","null"
"image-button-response","532","588068","0.0-13.0-2.157","3","Low_HMMActual","","","","","","null","","","","Images/WhiteBeadChoiceCorrect.png","","null"
"image-button-response","533","589032","0.0-13.0-0.158","3","Low_HMMActual","","","","","","961.9249999995809","","","","Images/NewTrialWC.png","","2"
"image-button-response","534","589351","0.0-13.0-1.158","3","Low_HMMActual","","","","","","null","","","","Images/WhiteBeadChoice.png","","null"
"image-button-response","535","589856","0.0-13.0-2.158","3","Low_HMMActual","","","","","","470.02499999967404","","","","Images/WhiteBeadChoiceCorrect.png","","2"
"image-button-response","536","590342","0.0-13.0-0.159","3","Low_HMMActual","","","","","","477.39000000001397","","","","Images/NewTrialWC.png","","2"
"image-button-response","537","590648","0.0-13.0-1.159","3","Low_HMMActual","","","","","","null","","","","Images/WhiteBeadChoice.png","","null"
"image-button-response","538","591151","0.0-13.0-2.159","3","Low_HMMActual","","","","","","null","","","","Images/WhiteBeadChoiceWrong.png","","null"
"image-button-response","539","591999","0.0-13.0-0.160","3","Low_HMMActual","","","","","","846.9399999994785","","","","Images/NewTrialBC.png","","1"
"image-button-response","540","592301","0.0-13.0-1.160","3","Low_HMMActual","","","","","","null","","","","Images/BlackBeadChoice.png","","null"
"image-button-response","541","592810","0.0-13.0-2.160","3","Low_HMMActual","","","","","","null","","","","Images/BlackBeadChoiceCorrect.png","","null"
"image-button-response","542","604193","0.0-13.0-0.161","3","Low_HMMActual","","","","","","11379.845000000321","","","","Images/NewTrialBC.png","","0"
"image-button-response","543","604504","0.0-13.0-1.161","3","Low_HMMActual","","","","","","null","","","","Images/BlackBeadChoice.png","","null"
"image-button-response","544","605008","0.0-13.0-2.161","3","Low_HMMActual","","","","","","null","","","","Images/BlackBeadChoiceCorrect.png","","null"
"image-button-response","545","605153","0.0-13.0-0.162","3","Low_HMMActual","","","","","","143.2350000004517","","","","Images/NewTrialBC.png","","0"
"image-button-response","546","605464","0.0-13.0-1.162","3","Low_HMMActual","","","","","","null","","","","Images/BlackBeadChoice.png","","null"
"image-button-response","547","605969","0.0-13.0-2.162","3","Low_HMMActual","","","","","","null","","","","Images/BlackBeadChoiceCorrect.png","","null"
"image-button-response","548","607538","0.0-13.0-0.163","3","Low_HMMActual","","","","","","1567.2100000001956","","","","Images/NewTrialBC.png","","3"
"image-button-response","549","607841","0.0-13.0-1.163","3","Low_HMMActual","","","","","","null","","","","Images/WhiteBeadChoice.png","","null"
"image-button-response","550","608348","0.0-13.0-2.163","3","Low_HMMActual","","","","","","null","","","","Images/WhiteBeadChoiceCorrect.png","","null"
"image-button-response","551","608697","0.0-13.0-0.164","3","Low_HMMActual","","","","","","348.2850000000326","","","","Images/NewTrialWC.png","","2"
"image-button-response","552","609013","0.0-13.0-1.164","3","Low_HMMActual","","","","","","null","","","","Images/WhiteBeadChoice.png","","null"
"image-button-response","553","609515","0.0-13.0-2.164","3","Low_HMMActual","","","","","","null","","","","Images/WhiteBeadChoiceWrong.png","","null"
"image-button-response","554","609947","0.0-13.0-0.165","3","Low_HMMActual","","","","","","429.77499999967404","","","","Images/NewTrialBC.png","","1"
"image-button-response","555","610264","0.0-13.0-1.165","3","Low_HMMActual","","","","","","null","","","","Images/BlackBeadChoice.png","","null"
"image-button-response","556","610766","0.0-13.0-2.165","3","Low_HMMActual","","","","","","null","","","","Images/BlackBeadChoiceCorrect.png","","null"
"image-button-response","557","611034","0.0-13.0-0.166","3","Low_HMMActual","","","","","","265.73999999987427","","","","Images/NewTrialBC.png","","0"
"image-button-response","558","611336","0.0-13.0-1.166","3","Low_HMMActual","","","","","","null","","","","Images/BlackBeadChoice.png","","null"
"image-button-response","559","611839","0.0-13.0-2.166","3","Low_HMMActual","","","","","","null","","","","Images/BlackBeadChoiceCorrect.png","","null"
"image-button-response","560","611938","0.0-13.0-0.167","3","Low_HMMActual","","","","","","96.86499999952503","","","","Images/NewTrialBC.png","","0"
"image-button-response","561","612244","0.0-13.0-1.167","3","Low_HMMActual","","","","","","null","","","","Images/BlackBeadChoice.png","","null"
"image-button-response","562","612745","0.0-13.0-2.167","3","Low_HMMActual","","","","","","null","","","","Images/BlackBeadChoiceCorrect.png","","null"
"image-button-response","563","614282","0.0-13.0-0.168","3","Low_HMMActual","","","","","","1534.4500000000698","","","","Images/NewTrialBC.png","","3"
"image-button-response","564","614583","0.0-13.0-1.168","3","Low_HMMActual","","","","","","null","","","","Images/WhiteBeadChoice.png","","null"
"image-button-response","565","615085","0.0-13.0-2.168","3","Low_HMMActual","","","","","","null","","","","Images/WhiteBeadChoiceWrong.png","","null"
"image-button-response","566","615739","0.0-13.0-0.169","3","Low_HMMActual","","","","","","651.8349999996135","","","","Images/NewTrialBC.png","","0"
"image-button-response","567","616057","0.0-13.0-1.169","3","Low_HMMActual","","","","","","null","","","","Images/BlackBeadChoice.png","","null"
"image-button-response","568","616572","0.0-13.0-2.169","3","Low_HMMActual","","","","","","null","","","","Images/BlackBeadChoiceCorrect.png","","null"
"image-button-response","569","617331","0.0-13.0-0.170","3","Low_HMMActual","","","","","","757.3699999994133","","","","Images/NewTrialBC.png","","0"
"image-button-response","570","617646","0.0-13.0-1.170","3","Low_HMMActual","","","","","","null","","","","Images/BlackBeadChoice.png","","null"
"image-button-response","571","618148","0.0-13.0-2.170","3","Low_HMMActual","","","","","","null","","","","Images/BlackBeadChoiceWrong.png","","null"
"image-button-response","572","619259","0.0-13.0-0.171","3","Low_HMMActual","","","","","","1109.8599999995204","","","","Images/NewTrialWC.png","","0"
"image-button-response","573","619576","0.0-13.0-1.171","3","Low_HMMActual","","","","","","null","","","","Images/BlackBeadChoice.png","","null"
"image-button-response","574","620082","0.0-13.0-2.171","3","Low_HMMActual","","","","","","null","","","","Images/BlackBeadChoiceCorrect.png","","null"
"image-button-response","575","620955","0.0-13.0-0.172","3","Low_HMMActual","","","","","","871.4399999998277","","","","Images/NewTrialBC.png","","0"
"image-button-response","576","621261","0.0-13.0-1.172","3","Low_HMMActual","","","","","","null","","","","Images/BlackBeadChoice.png","","null"
"image-button-response","577","621764","0.0-13.0-2.172","3","Low_HMMActual","","","","","","null","","","","Images/BlackBeadChoiceCorrect.png","","null"
"image-button-response","578","622011","0.0-13.0-0.173","3","Low_HMMActual","","","","","","245.8100000002887","","","","Images/NewTrialBC.png","","0"
"image-button-response","579","622314","0.0-13.0-1.173","3","Low_HMMActual","","","","","","null","","","","Images/BlackBeadChoice.png","","null"
"image-button-response","580","622816","0.0-13.0-2.173","3","Low_HMMActual","","","","","","null","","","","Images/BlackBeadChoiceWrong.png","","null"
"image-button-response","581","623108","0.0-13.0-0.174","3","Low_HMMActual","","","","","","290.07999999972526","","","","Images/NewTrialWC.png","","3"
"image-button-response","582","623412","0.0-13.0-1.174","3","Low_HMMActual","","","","","","null","","","","Images/WhiteBeadChoice.png","","null"
"image-button-response","583","623916","0.0-13.0-2.174","3","Low_HMMActual","","","","","","null","","","","Images/WhiteBeadChoiceWrong.png","","null"
"image-button-response","584","624163","0.0-13.0-0.175","3","Low_HMMActual","","","","","","245.73499999952037","","","","Images/NewTrialBC.png","","0"
"image-button-response","585","624465","0.0-13.0-1.175","3","Low_HMMActual","","","","","","null","","","","Images/BlackBeadChoice.png","","null"
"image-button-response","586","624968","0.0-13.0-2.175","3","Low_HMMActual","","","","","","null","","","","Images/BlackBeadChoiceWrong.png","","null"
"image-button-response","587","625140","0.0-13.0-0.176","3","Low_HMMActual","","","","","","169.8200000000652","","","","Images/NewTrialWC.png","","3"
"image-button-response","588","625451","0.0-13.0-1.176","3","Low_HMMActual","","","","","","null","","","","Images/WhiteBeadChoice.png","","null"
"image-button-response","589","625958","0.0-13.0-2.176","3","Low_HMMActual","","","","","","null","","","","Images/WhiteBeadChoiceWrong.png","","null"
"image-button-response","590","626212","0.0-13.0-0.177","3","Low_HMMActual","","","","","","251.4250000003958","","","","Images/NewTrialBC.png","","3"
"image-button-response","591","626527","0.0-13.0-1.177","3","Low_HMMActual","","","","","","null","","","","Images/WhiteBeadChoice.png","","null"
"image-button-response","592","627032","0.0-13.0-2.177","3","Low_HMMActual","","","","","","null","","","","Images/WhiteBeadChoiceWrong.png","","null"
"image-button-response","593","628148","0.0-13.0-0.178","3","Low_HMMActual","","","","","","1114.255000000354","","","","Images/NewTrialBC.png","","2"
"image-button-response","594","628456","0.0-13.0-1.178","3","Low_HMMActual","","","","","","null","","","","Images/WhiteBeadChoice.png","","null"
"image-button-response","595","628961","0.0-13.0-2.178","3","Low_HMMActual","","","","","","null","","","","Images/WhiteBeadChoiceCorrect.png","","null"
"image-button-response","596","629124","0.0-13.0-0.179","3","Low_HMMActual","","","","","","160.5","","","","Images/NewTrialWC.png","","2"
"image-button-response","597","629435","0.0-13.0-1.179","3","Low_HMMActual","","","","","","null","","","","Images/WhiteBeadChoice.png","","null"
"image-button-response","598","629937","0.0-13.0-2.179","3","Low_HMMActual","","","","","","null","","","","Images/WhiteBeadChoiceWrong.png","","null"
"image-button-response","599","630821","0.0-13.0-0.180","3","Low_HMMActual","","","","","","882.079999999376","","","","Images/NewTrialBC.png","","1"
"image-button-response","600","631129","0.0-13.0-1.180","3","Low_HMMActual","","","","","","null","","","","Images/BlackBeadChoice.png","","null"
"image-button-response","601","631630","0.0-13.0-2.180","3","Low_HMMActual","","","","","","null","","","","Images/BlackBeadChoiceWrong.png","","null"
"image-button-response","602","643931","0.0-13.0-0.181","3","Low_HMMActual","","","","","","12297.625000000116","","","","Images/NewTrialWC.png","","0"
"image-button-response","603","644232","0.0-13.0-1.181","3","Low_HMMActual","","","","","","null","","","","Images/BlackBeadChoice.png","","null"
"image-button-response","604","644735","0.0-13.0-2.181","3","Low_HMMActual","","","","","","null","","","","Images/BlackBeadChoiceWrong.png","","null"
"image-button-response","605","645434","0.0-13.0-0.182","3","Low_HMMActual","","","","","","697.7550000001211","","","","Images/NewTrialWC.png","","2"
"image-button-response","606","645736","0.0-13.0-1.182","3","Low_HMMActual","","","","","","null","","","","Images/WhiteBeadChoice.png","","null"
"image-button-response","607","646243","0.0-13.0-2.182","3","Low_HMMActual","","","","","","null","","","","Images/WhiteBeadChoiceCorrect.png","","null"
"image-button-response","608","646843","0.0-13.0-0.183","3","Low_HMMActual","","","","","","596.7300000002142","","","","Images/NewTrialWC.png","","2"
"image-button-response","609","647159","0.0-13.0-1.183","3","Low_HMMActual","","","","","","null","","","","Images/WhiteBeadChoice.png","","null"
"image-button-response","610","647664","0.0-13.0-2.183","3","Low_HMMActual","","","","","","464.27500000037253","","","","Images/WhiteBeadChoiceCorrect.png","","2"
"image-button-response","611","648258","0.0-13.0-0.184","3","Low_HMMActual","","","","","","592.0249999999069","","","","Images/NewTrialWC.png","","2"
"image-button-response","612","648561","0.0-13.0-1.184","3","Low_HMMActual","","","","","","null","","","","Images/WhiteBeadChoice.png","","null"
"image-button-response","613","649063","0.0-13.0-2.184","3","Low_HMMActual","","","","","","null","","","","Images/WhiteBeadChoiceCorrect.png","","null"
"image-button-response","614","649754","0.0-13.0-0.185","3","Low_HMMActual","","","","","","688.5600000005215","","","","Images/NewTrialWC.png","","1"
"image-button-response","615","650070","0.0-13.0-1.185","3","Low_HMMActual","","","","","","null","","","","Images/BlackBeadChoice.png","","null"
"image-button-response","616","650579","0.0-13.0-2.185","3","Low_HMMActual","","","","","","null","","","","Images/BlackBeadChoiceCorrect.png","","null"
"image-button-response","617","653140","0.0-13.0-0.186","3","Low_HMMActual","","","","","","2558.5850000006612","","","","Images/NewTrialBC.png","","1"
"image-button-response","618","653456","0.0-13.0-1.186","3","Low_HMMActual","","","","","","null","","","","Images/BlackBeadChoice.png","","null"
"image-button-response","619","653966","0.0-13.0-2.186","3","Low_HMMActual","","","","","","null","","","","Images/BlackBeadChoiceWrong.png","","null"
"image-button-response","620","655068","0.0-13.0-0.187","3","Low_HMMActual","","","","","","1099.164999999688","","","","Images/NewTrialWC.png","","0"
"image-button-response","621","655369","0.0-13.0-1.187","3","Low_HMMActual","","","","","","null","","","","Images/BlackBeadChoice.png","","null"
"image-button-response","622","655881","0.0-13.0-2.187","3","Low_HMMActual","","","","","","null","","","","Images/BlackBeadChoiceCorrect.png","","null"
"image-button-response","623","656147","0.0-13.0-0.188","3","Low_HMMActual","","","","","","264.0700000001816","","","","Images/NewTrialBC.png","","0"
"image-button-response","624","656452","0.0-13.0-1.188","3","Low_HMMActual","","","","","","null","","","","Images/BlackBeadChoice.png","","null"
"image-button-response","625","656955","0.0-13.0-2.188","3","Low_HMMActual","","","","","","null","","","","Images/BlackBeadChoiceWrong.png","","null"
"image-button-response","626","657564","0.0-13.0-0.189","3","Low_HMMActual","","","","","","605.9599999998463","","","","Images/NewTrialWC.png","","2"
"image-button-response","627","657875","0.0-13.0-1.189","3","Low_HMMActual","","","","","","null","","","","Images/WhiteBeadChoice.png","","null"
"image-button-response","628","658380","0.0-13.0-2.189","3","Low_HMMActual","","","","","","null","","","","Images/WhiteBeadChoiceCorrect.png","","null"
"image-button-response","629","658988","0.0-13.0-0.190","3","Low_HMMActual","","","","","","604.78000000061","","","","Images/NewTrialWC.png","","2"
"image-button-response","630","659300","0.0-13.0-1.190","3","Low_HMMActual","","","","","","null","","","","Images/WhiteBeadChoice.png","","null"
"image-button-response","631","659803","0.0-13.0-2.190","3","Low_HMMActual","","","","","","486.7599999997765","","","","Images/WhiteBeadChoiceCorrect.png","","2"
"image-button-response","632","660332","0.0-13.0-0.191","3","Low_HMMActual","","","","","","527.395000000135","","","","Images/NewTrialWC.png","","2"
"image-button-response","633","660640","0.0-13.0-1.191","3","Low_HMMActual","","","","","","null","","","","Images/WhiteBeadChoice.png","","null"
"image-button-response","634","661146","0.0-13.0-2.191","3","Low_HMMActual","","","","","","null","","","","Images/WhiteBeadChoiceCorrect.png","","null"
"image-button-response","635","684712","0.0-13.0-0.192","3","Low_HMMActual","","","","","","23563.01499999978","","","","Images/NewTrialWC.png","","2"
"image-button-response","636","685014","0.0-13.0-1.192","3","Low_HMMActual","","","","","","null","","","","Images/WhiteBeadChoice.png","","null"
"image-button-response","637","685517","0.0-13.0-2.192","3","Low_HMMActual","","","","","","448.19000000006054","","","","Images/WhiteBeadChoiceCorrect.png","","2"
"image-button-response","638","686440","0.0-13.0-0.193","3","Low_HMMActual","","","","","","920.9000000000233","","","","Images/NewTrialWC.png","","2"
"image-button-response","639","686756","0.0-13.0-1.193","3","Low_HMMActual","","","","","","null","","","","Images/WhiteBeadChoice.png","","null"
"image-button-response","640","687271","0.0-13.0-2.193","3","Low_HMMActual","","","","","","null","","","","Images/WhiteBeadChoiceCorrect.png","","null"
"image-button-response","641","687793","0.0-13.0-0.194","3","Low_HMMActual","","","","","","518.6300000004703","","","","Images/NewTrialWC.png","","2"
"image-button-response","642","688095","0.0-13.0-1.194","3","Low_HMMActual","","","","","","null","","","","Images/WhiteBeadChoice.png","","null"
"image-button-response","643","688596","0.0-13.0-2.194","3","Low_HMMActual","","","","","","null","","","","Images/WhiteBeadChoiceWrong.png","","null"
"image-button-response","644","689083","0.0-13.0-0.195","3","Low_HMMActual","","","","","","476.4100000002654","","","","Images/NewTrialBC.png","","0"
"image-button-response","645","689385","0.0-13.0-1.195","3","Low_HMMActual","","","","","","null","","","","Images/BlackBeadChoice.png","","null"
"image-button-response","646","689898","0.0-13.0-2.195","3","Low_HMMActual","","","","","","null","","","","Images/BlackBeadChoiceCorrect.png","","null"
"image-button-response","647","690593","0.0-13.0-0.196","3","Low_HMMActual","","","","","","692.5599999995902","","","","Images/NewTrialBC.png","","0"
"image-button-response","648","690908","0.0-13.0-1.196","3","Low_HMMActual","","","","","","null","","","","Images/BlackBeadChoice.png","","null"
"image-button-response","649","691411","0.0-13.0-2.196","3","Low_HMMActual","","","","","","null","","","","Images/BlackBeadChoiceWrong.png","","null"
"image-button-response","650","692097","0.0-13.0-0.197","3","Low_HMMActual","","","","","","683.9700000000885","","","","Images/NewTrialWC.png","","3"
"image-button-response","651","692398","0.0-13.0-1.197","3","Low_HMMActual","","","","","","null","","","","Images/WhiteBeadChoice.png","","null"
"image-button-response","652","692899","0.0-13.0-2.197","3","Low_HMMActual","","","","","","null","","","","Images/WhiteBeadChoiceCorrect.png","","null"
"image-button-response","653","693761","0.0-13.0-0.198","3","Low_HMMActual","","","","","","858.8750000008149","","","","Images/NewTrialWC.png","","2"
"image-button-response","654","694067","0.0-13.0-1.198","3","Low_HMMActual","","","","","","null","","","","Images/WhiteBeadChoice.png","","null"
"image-button-response","655","694570","0.0-13.0-2.198","3","Low_HMMActual","","","","","","null","","","","Images/WhiteBeadChoiceCorrect.png","","null"
"image-button-response","656","694761","0.0-13.0-0.199","3","Low_HMMActual","","","","","","189.55000000004657","","","","Images/NewTrialWC.png","","2"
"image-button-response","657","695079","0.0-13.0-1.199","3","Low_HMMActual","","","","","","null","","","","Images/WhiteBeadChoice.png","","null"
"image-button-response","658","695582","0.0-13.0-2.199","3","Low_HMMActual","","","","","","470.87999999988824","","","","Images/WhiteBeadChoiceCorrect.png","","2"
"image-button-response","659","696168","0.0-13.0-0.200","3","Low_HMMActual","","","","","","584.6499999997905","","","","Images/NewTrialWC.png","","2"
"image-button-response","660","696471","0.0-13.0-1.200","3","Low_HMMActual","","","","","","null","","","","Images/WhiteBeadChoice.png","","null"
"image-button-response","661","696980","0.0-13.0-2.200","3","Low_HMMActual","","","","","","null","","","","Images/WhiteBeadChoiceCorrect.png","","null"
"image-button-response","662","697386","0.0-13.0-0.201","3","Low_HMMActual","","","","","","404.0150000001304","","","","Images/NewTrialWC.png","","2"
"image-button-response","663","697688","0.0-13.0-1.201","3","Low_HMMActual","","","","","","null","","","","Images/WhiteBeadChoice.png","","null"
"image-button-response","664","698193","0.0-13.0-2.201","3","Low_HMMActual","","","","","","null","","","","Images/WhiteBeadChoiceCorrect.png","","null"
"image-button-response","665","698482","0.0-13.0-0.202","3","Low_HMMActual","","","","","","287.8049999999348","","","","Images/NewTrialWC.png","","0"
