"trial_type","trial_index","time_elapsed","internal_node_id","Script_Picker","Block_Type","success","timeout","failed_images","failed_audio","failed_video","rt","url","responses","question_order","stimulus","key_press","response"
"pavlovia","0","9","0.0-0.0","1","Low_HMMActual","","","","","","","","","","","",""
"preload","1","13","0.0-1.0","1","Low_HMMActual","true","false","[]","[]","[]","","","","","","",""
"external-html","2","21352","0.0-2.0-0.0","1","Low_HMMActual","","","","","","21077","consent.html","","","","",""
"survey-multi-choice","3","28167","0.0-2.0-1.0","1","Low_HMMActual","","","","","","6811","","{""Q0"":""Male"",""Q1"":""Hispanic or Latino""}","[0,1]","","",""
"survey-text","4","30315","0.0-2.0-2.0","1","Low_HMMActual","","","","","","2142","","{""Q0"":""31""}","","","",""
"survey-text","5","39688","0.0-2.0-3.0","1","Low_HMMActual","","","","","","9263","","{""Q0"":""5eb197240abd5e2a87a67cbc""}","","","",""
"image-keyboard-response","6","61384","0.0-3.0-0.0","1","Low_HMMActual","","","","","","21589","","","","tutorial/tutorial1.png"," ",""
"image-keyboard-response","7","70016","0.0-3.0-0.1","1","Low_HMMActual","","","","","","8630","","","","tutorial/tutorial2.png"," ",""
"image-keyboard-response","8","74921","0.0-3.0-0.2","1","Low_HMMActual","","","","","","4903","","","","tutorial/tutorial3.png"," ",""
"image-keyboard-response","9","78337","0.0-3.0-0.3","1","Low_HMMActual","","","","","","3412","","","","tutorial/tutorial4.png"," ",""
"image-keyboard-response","10","82808","0.0-3.0-0.4","1","Low_HMMActual","","","","","","4467","","","","tutorial/tutorial5.png"," ",""
"image-keyboard-response","11","96336","0.0-3.0-0.5","1","Low_HMMActual","","","","","","13524","","","","tutorial/tutorial6.png"," ",""
"image-keyboard-response","12","104200","0.0-3.0-0.6","1","Low_HMMActual","","","","","","7863","","","","tutorial/tutorial7.png"," ",""
"image-keyboard-response","13","138241","0.0-3.0-0.7","1","Low_HMMActual","","","","","","34039","","","","tutorial/tutorial8.png"," ",""
"image-keyboard-response","14","150024","0.0-3.0-0.8","1","Low_HMMActual","","","","","","11781","","","","tutorial/tutorial9.png"," ",""
"image-keyboard-response","15","157472","0.0-3.0-0.9","1","Low_HMMActual","","","","","","7445","","","","tutorial/tutorial10.png"," ",""
"image-keyboard-response","16","170209","0.0-3.0-0.10","1","Low_HMMActual","","","","","","12734","","","","tutorial/tutorial11.png"," ",""
"image-keyboard-response","17","176160","0.0-3.0-0.11","1","Low_HMMActual","","","","","","5949","","","","tutorial/tutorial12.png"," ",""
"image-keyboard-response","18","190808","0.0-3.0-0.12","1","Low_HMMActual","","","","","","14647","","","","tutorial/tutorial13.png"," ",""
"image-keyboard-response","19","205431","0.0-3.0-0.13","1","Low_HMMActual","","","","","","14622","","","","tutorial/tutorial14.png"," ",""
"image-keyboard-response","20","209935","0.0-3.0-0.14","1","Low_HMMActual","","","","","","4502","","","","tutorial/tutorial15.png"," ",""
"image-keyboard-response","21","216911","0.0-4.0","1","Low_HMMActual","","","","","","6974","","","","tutorial/tutorial16.png","arrowup",""
"image-keyboard-response","22","228648","0.0-5.0","1","Low_HMMActual","","","","","","10512","","","","tutorial/tutorial17.png","arrowright",""
"image-keyboard-response","23","234135","0.0-6.0","1","Low_HMMActual","","","","","","4493","","","","tutorial/tutorial18.png","arrowleft",""
"image-keyboard-response","24","241671","0.0-7.0","1","Low_HMMActual","","","","","","6700","","","","tutorial/tutorial19.png"," ",""
"html-keyboard-response","25","254992","0.0-8.0","2","Low_HMMActual","","","","","","13314","","","","<div class=""container"" style=""height:800px;width:800px;display:flex;flex-direction:column;justify-content:center;align-items:center;text-align:center;font-weight:normal;font-family:Arial;font-size:20px""><p>Loading episode&hellip;</p><div>"," ",""
"image-button-response","26","269303","0.0-9.0-0.0","2","Low_HMMActual","","","","","","14306","","","","Images/NoChoice.png","","0"
"image-button-response","27","269607","0.0-9.0-1.0","2","Low_HMMActual","","","","","","null","","","","Images/BlackBeadChoice.png","","null"
"image-button-response","28","270127","0.0-9.0-2.0","2","Low_HMMActual","","","","","","null","","","","Images/BlackBeadChoiceWrong.png","","null"
"image-button-response","29","279607","0.0-9.0-0.1","2","Low_HMMActual","","","","","","9478","","","","Images/NewTrialWC.png","","1"
"image-button-response","30","279917","0.0-9.0-1.1","2","Low_HMMActual","","","","","","null","","","","Images/BlackBeadChoice.png","","null"
"image-button-response","31","280419","0.0-9.0-2.1","2","Low_HMMActual","","","","","","null","","","","Images/BlackBeadChoiceWrong.png","","null"
"image-button-response","32","283759","0.0-9.0-0.2","2","Low_HMMActual","","","","","","3337","","","","Images/NewTrialWC.png","","2"
"image-button-response","33","284076","0.0-9.0-1.2","2","Low_HMMActual","","","","","","null","","","","Images/WhiteBeadChoice.png","","null"
"image-button-response","34","284597","0.0-9.0-2.2","2","Low_HMMActual","","","","","","null","","","","Images/WhiteBeadChoiceCorrect.png","","null"
"image-button-response","35","287455","0.0-9.0-0.3","2","Low_HMMActual","","","","","","2857","","","","Images/NewTrialWC.png","","2"
"image-button-response","36","287757","0.0-9.0-1.3","2","Low_HMMActual","","","","","","null","","","","Images/WhiteBeadChoice.png","","null"
"image-button-response","37","288277","0.0-9.0-2.3","2","Low_HMMActual","","","","","","null","","","","Images/WhiteBeadChoiceWrong.png","","null"
"image-button-response","38","292695","0.0-9.0-0.4","2","Low_HMMActual","","","","","","4416","","","","Images/NewTrialBC.png","","2"
"image-button-response","39","292997","0.0-9.0-1.4","2","Low_HMMActual","","","","","","null","","","","Images/WhiteBeadChoice.png","","null"
"image-button-response","40","293516","0.0-9.0-2.4","2","Low_HMMActual","","","","","","null","","","","Images/WhiteBeadChoiceCorrect.png","","null"
"image-button-response","41","295031","0.0-9.0-0.5","2","Low_HMMActual","","","","","","1513","","","","Images/NewTrialWC.png","","2"
"image-button-response","42","295337","0.0-9.0-1.5","2","Low_HMMActual","","","","","","null","","","","Images/WhiteBeadChoice.png","","null"
"image-button-response","43","295857","0.0-9.0-2.5","2","Low_HMMActual","","","","","","null","","","","Images/WhiteBeadChoiceCorrect.png","","null"
"image-button-response","44","297335","0.0-9.0-0.6","2","Low_HMMActual","","","","","","1477","","","","Images/NewTrialWC.png","","2"
"image-button-response","45","297637","0.0-9.0-1.6","2","Low_HMMActual","","","","","","null","","","","Images/WhiteBeadChoice.png","","null"
"image-button-response","46","298157","0.0-9.0-2.6","2","Low_HMMActual","","","","","","null","","","","Images/WhiteBeadChoiceWrong.png","","null"
"image-button-response","47","301158","0.0-9.0-0.7","2","Low_HMMActual","","","","","","3000","","","","Images/NewTrialBC.png","","2"
"image-button-response","48","301477","0.0-9.0-1.7","2","Low_HMMActual","","","","","","null","","","","Images/WhiteBeadChoice.png","","null"
"image-button-response","49","301997","0.0-9.0-2.7","2","Low_HMMActual","","","","","","null","","","","Images/WhiteBeadChoiceCorrect.png","","null"
"image-button-response","50","304382","0.0-9.0-0.8","2","Low_HMMActual","","","","","","2383","","","","Images/NewTrialWC.png","","2"
"image-button-response","51","304697","0.0-9.0-1.8","2","Low_HMMActual","","","","","","null","","","","Images/WhiteBeadChoice.png","","null"
"image-button-response","52","305217","0.0-9.0-2.8","2","Low_HMMActual","","","","","","null","","","","Images/WhiteBeadChoiceWrong.png","","null"
"image-button-response","53","307351","0.0-9.0-0.9","2","Low_HMMActual","","","","","","2131","","","","Images/NewTrialBC.png","","2"
"image-button-response","54","307657","0.0-9.0-1.9","2","Low_HMMActual","","","","","","null","","","","Images/WhiteBeadChoice.png","","null"
"image-button-response","55","308177","0.0-9.0-2.9","2","Low_HMMActual","","","","","","null","","","","Images/WhiteBeadChoiceCorrect.png","","null"
"html-keyboard-response","56","313135","0.0-10.0","2","Low_HMMActual","","","","","","4957","","","",""," ",""
"image-keyboard-response","57","319703","0.0-11.0","2","Low_HMMActual","","","","","","6566","","","","tutorial/tutorial20.png"," ",""
"html-keyboard-response","58","327503","0.0-12.0","3","Low_HMMActual","","","","","","7797","","","","<div class=""container"" style=""height:800px;width:800px;display:flex;flex-direction:column;justify-content:center;align-items:center;text-align:center;font-weight:normal;font-family:Arial;font-size:20px""><p>Loading episode&hellip;</p><div>"," ",""
"image-button-response","59","331767","0.0-13.0-0.0","3","Low_HMMActual","","","","","","4262","","","","Images/NoChoice.png","","1"
"image-button-response","60","332087","0.0-13.0-1.0","3","Low_HMMActual","","","","","","null","","","","Images/BlackBeadChoice.png","","null"
"image-button-response","61","332608","0.0-13.0-2.0","3","Low_HMMActual","","","","","","null","","","","Images/BlackBeadChoiceWrong.png","","null"
"image-button-response","62","334351","0.0-13.0-0.1","3","Low_HMMActual","","","","","","1739","","","","Images/NewTrialWC.png","","2"
"image-button-response","63","334668","0.0-13.0-1.1","3","Low_HMMActual","","","","","","null","","","","Images/WhiteBeadChoice.png","","null"
"image-button-response","64","335187","0.0-13.0-2.1","3","Low_HMMActual","","","","","","null","","","","Images/WhiteBeadChoiceCorrect.png","","null"
"image-button-response","65","336287","0.0-13.0-0.2","3","Low_HMMActual","","","","","","1097","","","","Images/NewTrialWC.png","","2"
"image-button-response","66","336597","0.0-13.0-1.2","3","Low_HMMActual","","","","","","null","","","","Images/WhiteBeadChoice.png","","null"
"image-button-response","67","337118","0.0-13.0-2.2","3","Low_HMMActual","","","","","","null","","","","Images/WhiteBeadChoiceCorrect.png","","null"
"image-button-response","68","338495","0.0-13.0-0.3","3","Low_HMMActual","","","","","","1374","","","","Images/NewTrialWC.png","","2"
"image-button-response","69","338797","0.0-13.0-1.3","3","Low_HMMActual","","","","","","null","","","","Images/WhiteBeadChoice.png","","null"
"image-button-response","70","339317","0.0-13.0-2.3","3","Low_HMMActual","","","","","","null","","","","Images/WhiteBeadChoiceCorrect.png","","null"
"image-button-response","71","340623","0.0-13.0-0.4","3","Low_HMMActual","","","","","","1303","","","","Images/NewTrialWC.png","","2"
"image-button-response","72","340933","0.0-13.0-1.4","3","Low_HMMActual","","","","","","null","","","","Images/WhiteBeadChoice.png","","null"
"image-button-response","73","341457","0.0-13.0-2.4","3","Low_HMMActual","","","","","","null","","","","Images/WhiteBeadChoiceWrong.png","","null"
"image-button-response","74","343679","0.0-13.0-0.5","3","Low_HMMActual","","","","","","2220","","","","Images/NewTrialBC.png","","2"
"image-button-response","75","343997","0.0-13.0-1.5","3","Low_HMMActual","","","","","","null","","","","Images/WhiteBeadChoice.png","","null"
"image-button-response","76","344517","0.0-13.0-2.5","3","Low_HMMActual","","","","","","null","","","","Images/WhiteBeadChoiceCorrect.png","","null"
"image-button-response","77","345591","0.0-13.0-0.6","3","Low_HMMActual","","","","","","1071","","","","Images/NewTrialWC.png","","2"
"image-button-response","78","345897","0.0-13.0-1.6","3","Low_HMMActual","","","","","","null","","","","Images/WhiteBeadChoice.png","","null"
"image-button-response","79","346417","0.0-13.0-2.6","3","Low_HMMActual","","","","","","null","","","","Images/WhiteBeadChoiceCorrect.png","","null"
"image-button-response","80","347566","0.0-13.0-0.7","3","Low_HMMActual","","","","","","1148","","","","Images/NewTrialWC.png","","2"
"image-button-response","81","347888","0.0-13.0-1.7","3","Low_HMMActual","","","","","","null","","","","Images/WhiteBeadChoice.png","","null"
"image-button-response","82","348397","0.0-13.0-2.7","3","Low_HMMActual","","","","","","null","","","","Images/WhiteBeadChoiceCorrect.png","","null"
"image-button-response","83","349959","0.0-13.0-0.8","3","Low_HMMActual","","","","","","1557","","","","Images/NewTrialWC.png","","1"
"image-button-response","84","350263","0.0-13.0-1.8","3","Low_HMMActual","","","","","","null","","","","Images/BlackBeadChoice.png","","null"
"image-button-response","85","350777","0.0-13.0-2.8","3","Low_HMMActual","","","","","","null","","","","Images/BlackBeadChoiceCorrect.png","","null"
"image-button-response","86","352487","0.0-13.0-0.9","3","Low_HMMActual","","","","","","1707","","","","Images/NewTrialBC.png","","2"
"image-button-response","87","352796","0.0-13.0-1.9","3","Low_HMMActual","","","","","","null","","","","Images/WhiteBeadChoice.png","","null"
"image-button-response","88","353317","0.0-13.0-2.9","3","Low_HMMActual","","","","","","null","","","","Images/WhiteBeadChoiceWrong.png","","null"
"image-button-response","89","354975","0.0-13.0-0.10","3","Low_HMMActual","","","","","","1655","","","","Images/NewTrialBC.png","","3"
"image-button-response","90","355278","0.0-13.0-1.10","3","Low_HMMActual","","","","","","null","","","","Images/WhiteBeadChoice.png","","null"
"image-button-response","91","355795","0.0-13.0-2.10","3","Low_HMMActual","","","","","","null","","","","Images/WhiteBeadChoiceWrong.png","","null"
"image-button-response","92","356711","0.0-13.0-0.11","3","Low_HMMActual","","","","","","914","","","","Images/NewTrialBC.png","","0"
"image-button-response","93","357017","0.0-13.0-1.11","3","Low_HMMActual","","","","","","null","","","","Images/BlackBeadChoice.png","","null"
"image-button-response","94","357537","0.0-13.0-2.11","3","Low_HMMActual","","","","","","null","","","","Images/BlackBeadChoiceWrong.png","","null"
"image-button-response","95","358343","0.0-13.0-0.12","3","Low_HMMActual","","","","","","805","","","","Images/NewTrialWC.png","","0"
"image-button-response","96","358657","0.0-13.0-1.12","3","Low_HMMActual","","","","","","null","","","","Images/BlackBeadChoice.png","","null"
"image-button-response","97","359177","0.0-13.0-2.12","3","Low_HMMActual","","","","","","null","","","","Images/BlackBeadChoiceWrong.png","","null"
"image-button-response","98","362679","0.0-13.0-0.13","3","Low_HMMActual","","","","","","3500","","","","Images/NewTrialWC.png","","2"
"image-button-response","99","362997","0.0-13.0-1.13","3","Low_HMMActual","","","","","","null","","","","Images/WhiteBeadChoice.png","","null"
"image-button-response","100","363518","0.0-13.0-2.13","3","Low_HMMActual","","","","","","null","","","","Images/WhiteBeadChoiceWrong.png","","null"
"image-button-response","101","365783","0.0-13.0-0.14","3","Low_HMMActual","","","","","","2263","","","","Images/NewTrialBC.png","","0"
"image-button-response","102","366098","0.0-13.0-1.14","3","Low_HMMActual","","","","","","null","","","","Images/BlackBeadChoice.png","","null"
"image-button-response","103","366617","0.0-13.0-2.14","3","Low_HMMActual","","","","","","null","","","","Images/BlackBeadChoiceWrong.png","","null"
"image-button-response","104","367535","0.0-13.0-0.15","3","Low_HMMActual","","","","","","916","","","","Images/NewTrialWC.png","","0"
"image-button-response","105","367837","0.0-13.0-1.15","3","Low_HMMActual","","","","","","null","","","","Images/BlackBeadChoice.png","","null"
"image-button-response","106","368356","0.0-13.0-2.15","3","Low_HMMActual","","","","","","null","","","","Images/BlackBeadChoiceCorrect.png","","null"
"image-button-response","107","369383","0.0-13.0-0.16","3","Low_HMMActual","","","","","","1026","","","","Images/NewTrialBC.png","","0"
"image-button-response","108","369697","0.0-13.0-1.16","3","Low_HMMActual","","","","","","null","","","","Images/BlackBeadChoice.png","","null"
"image-button-response","109","370217","0.0-13.0-2.16","3","Low_HMMActual","","","","","","null","","","","Images/BlackBeadChoiceWrong.png","","null"
"image-button-response","110","372470","0.0-13.0-0.17","3","Low_HMMActual","","","","","","2251","","","","Images/NewTrialWC.png","","1"
"image-button-response","111","372777","0.0-13.0-1.17","3","Low_HMMActual","","","","","","null","","","","Images/BlackBeadChoice.png","","null"
"image-button-response","112","373298","0.0-13.0-2.17","3","Low_HMMActual","","","","","","null","","","","Images/BlackBeadChoiceWrong.png","","null"
"image-button-response","113","374351","0.0-13.0-0.18","3","Low_HMMActual","","","","","","1052","","","","Images/NewTrialWC.png","","2"
"image-button-response","114","374657","0.0-13.0-1.18","3","Low_HMMActual","","","","","","null","","","","Images/WhiteBeadChoice.png","","null"
"image-button-response","115","375177","0.0-13.0-2.18","3","Low_HMMActual","","","","","","null","","","","Images/WhiteBeadChoiceCorrect.png","","null"
"image-button-response","116","376367","0.0-13.0-0.19","3","Low_HMMActual","","","","","","1187","","","","Images/NewTrialWC.png","","2"
"image-button-response","117","376677","0.0-13.0-1.19","3","Low_HMMActual","","","","","","null","","","","Images/WhiteBeadChoice.png","","null"
"image-button-response","118","377197","0.0-13.0-2.19","3","Low_HMMActual","","","","","","null","","","","Images/WhiteBeadChoiceWrong.png","","null"
"image-button-response","119","379303","0.0-13.0-0.20","3","Low_HMMActual","","","","","","2103","","","","Images/NewTrialBC.png","","2"
"image-button-response","120","379618","0.0-13.0-1.20","3","Low_HMMActual","","","","","","null","","","","Images/WhiteBeadChoice.png","","null"
"image-button-response","121","380137","0.0-13.0-2.20","3","Low_HMMActual","","","","","","null","","","","Images/WhiteBeadChoiceCorrect.png","","null"
"image-button-response","122","381590","0.0-13.0-0.21","3","Low_HMMActual","","","","","","1451","","","","Images/NewTrialWC.png","","2"
"image-button-response","123","381897","0.0-13.0-1.21","3","Low_HMMActual","","","","","","null","","","","Images/WhiteBeadChoice.png","","null"
"image-button-response","124","382417","0.0-13.0-2.21","3","Low_HMMActual","","","","","","null","","","","Images/WhiteBeadChoiceCorrect.png","","null"
"image-button-response","125","383471","0.0-13.0-0.22","3","Low_HMMActual","","","","","","1050","","","","Images/NewTrialWC.png","","2"
"image-button-response","126","383777","0.0-13.0-1.22","3","Low_HMMActual","","","","","","null","","","","Images/WhiteBeadChoice.png","","null"
"image-button-response","127","384297","0.0-13.0-2.22","3","Low_HMMActual","","","","","","null","","","","Images/WhiteBeadChoiceCorrect.png","","null"
"image-button-response","128","385183","0.0-13.0-0.23","3","Low_HMMActual","","","","","","884","","","","Images/NewTrialWC.png","","2"
"image-button-response","129","385493","0.0-13.0-1.23","3","Low_HMMActual","","","","","","null","","","","Images/WhiteBeadChoice.png","","null"
"image-button-response","130","386017","0.0-13.0-2.23","3","Low_HMMActual","","","","","","null","","","","Images/WhiteBeadChoiceCorrect.png","","null"
"image-button-response","131","386727","0.0-13.0-0.24","3","Low_HMMActual","","","","","","708","","","","Images/NewTrialWC.png","","2"
"image-button-response","132","387037","0.0-13.0-1.24","3","Low_HMMActual","","","","","","null","","","","Images/WhiteBeadChoice.png","","null"
"image-button-response","133","387557","0.0-13.0-2.24","3","Low_HMMActual","","","","","","null","","","","Images/WhiteBeadChoiceCorrect.png","","null"
"image-button-response","134","388518","0.0-13.0-0.25","3","Low_HMMActual","","","","","","959","","","","Images/NewTrialWC.png","","2"
"image-button-response","135","388837","0.0-13.0-1.25","3","Low_HMMActual","","","","","","null","","","","Images/WhiteBeadChoice.png","","null"
"image-button-response","136","389357","0.0-13.0-2.25","3","Low_HMMActual","","","","","","null","","","","Images/WhiteBeadChoiceCorrect.png","","null"
"image-button-response","137","390343","0.0-13.0-0.26","3","Low_HMMActual","","","","","","985","","","","Images/NewTrialWC.png","","2"
"image-button-response","138","390658","0.0-13.0-1.26","3","Low_HMMActual","","","","","","null","","","","Images/WhiteBeadChoice.png","","null"
"image-button-response","139","391177","0.0-13.0-2.26","3","Low_HMMActual","","","","","","null","","","","Images/WhiteBeadChoiceWrong.png","","null"
"image-button-response","140","392535","0.0-13.0-0.27","3","Low_HMMActual","","","","","","1356","","","","Images/NewTrialBC.png","","2"
"image-button-response","141","392847","0.0-13.0-1.27","3","Low_HMMActual","","","","","","null","","","","Images/WhiteBeadChoice.png","","null"
"image-button-response","142","393367","0.0-13.0-2.27","3","Low_HMMActual","","","","","","null","","","","Images/WhiteBeadChoiceCorrect.png","","null"
"image-button-response","143","394055","0.0-13.0-0.28","3","Low_HMMActual","","","","","","684","","","","Images/NewTrialWC.png","","2"
"image-button-response","144","394368","0.0-13.0-1.28","3","Low_HMMActual","","","","","","null","","","","Images/WhiteBeadChoice.png","","null"
"image-button-response","145","394887","0.0-13.0-2.28","3","Low_HMMActual","","","","","","null","","","","Images/WhiteBeadChoiceWrong.png","","null"
"image-button-response","146","396071","0.0-13.0-0.29","3","Low_HMMActual","","","","","","1182","","","","Images/NewTrialBC.png","","2"
"image-button-response","147","396387","0.0-13.0-1.29","3","Low_HMMActual","","","","","","null","","","","Images/WhiteBeadChoice.png","","null"
"image-button-response","148","396908","0.0-13.0-2.29","3","Low_HMMActual","","","","","","null","","","","Images/WhiteBeadChoiceCorrect.png","","null"
"image-button-response","149","398063","0.0-13.0-0.30","3","Low_HMMActual","","","","","","1152","","","","Images/NewTrialWC.png","","2"
"image-button-response","150","398367","0.0-13.0-1.30","3","Low_HMMActual","","","","","","null","","","","Images/WhiteBeadChoice.png","","null"
"image-button-response","151","398887","0.0-13.0-2.30","3","Low_HMMActual","","","","","","null","","","","Images/WhiteBeadChoiceCorrect.png","","null"
"image-button-response","152","401775","0.0-13.0-0.31","3","Low_HMMActual","","","","","","2885","","","","Images/NewTrialWC.png","","1"
"image-button-response","153","402078","0.0-13.0-1.31","3","Low_HMMActual","","","","","","null","","","","Images/BlackBeadChoice.png","","null"
"image-button-response","154","402587","0.0-13.0-2.31","3","Low_HMMActual","","","","","","null","","","","Images/BlackBeadChoiceCorrect.png","","null"
"image-button-response","155","403695","0.0-13.0-0.32","3","Low_HMMActual","","","","","","1105","","","","Images/NewTrialBC.png","","2"
"image-button-response","156","404007","0.0-13.0-1.32","3","Low_HMMActual","","","","","","null","","","","Images/WhiteBeadChoice.png","","null"
"image-button-response","157","404527","0.0-13.0-2.32","3","Low_HMMActual","","","","","","null","","","","Images/WhiteBeadChoiceCorrect.png","","null"
"image-button-response","158","405830","0.0-13.0-0.33","3","Low_HMMActual","","","","","","1301","","","","Images/NewTrialWC.png","","2"
"image-button-response","159","406147","0.0-13.0-1.33","3","Low_HMMActual","","","","","","null","","","","Images/WhiteBeadChoice.png","","null"
"image-button-response","160","406667","0.0-13.0-2.33","3","Low_HMMActual","","","","","","null","","","","Images/WhiteBeadChoiceCorrect.png","","null"
"image-button-response","161","407638","0.0-13.0-0.34","3","Low_HMMActual","","","","","","971","","","","Images/NewTrialWC.png","","2"
"image-button-response","162","407948","0.0-13.0-1.34","3","Low_HMMActual","","","","","","null","","","","Images/WhiteBeadChoice.png","","null"
"image-button-response","163","408467","0.0-13.0-2.34","3","Low_HMMActual","","","","","","null","","","","Images/WhiteBeadChoiceWrong.png","","null"
"image-button-response","164","409343","0.0-13.0-0.35","3","Low_HMMActual","","","","","","875","","","","Images/NewTrialBC.png","","2"
"image-button-response","165","409648","0.0-13.0-1.35","3","Low_HMMActual","","","","","","null","","","","Images/WhiteBeadChoice.png","","null"
"image-button-response","166","410157","0.0-13.0-2.35","3","Low_HMMActual","","","","","","null","","","","Images/WhiteBeadChoiceCorrect.png","","null"
"image-button-response","167","411983","0.0-13.0-0.36","3","Low_HMMActual","","","","","","1825","","","","Images/NewTrialWC.png","","2"
"image-button-response","168","412297","0.0-13.0-1.36","3","Low_HMMActual","","","","","","null","","","","Images/WhiteBeadChoice.png","","null"
"image-button-response","169","412817","0.0-13.0-2.36","3","Low_HMMActual","","","","","","null","","","","Images/WhiteBeadChoiceCorrect.png","","null"
"image-button-response","170","414463","0.0-13.0-0.37","3","Low_HMMActual","","","","","","1644","","","","Images/NewTrialWC.png","","0"
"image-button-response","171","414767","0.0-13.0-1.37","3","Low_HMMActual","","","","","","null","","","","Images/BlackBeadChoice.png","","null"
"image-button-response","172","415288","0.0-13.0-2.37","3","Low_HMMActual","","","","","","null","","","","Images/BlackBeadChoiceWrong.png","","null"
"image-button-response","173","416878","0.0-13.0-0.38","3","Low_HMMActual","","","","","","1586","","","","Images/NewTrialWC.png","","1"
"image-button-response","174","417187","0.0-13.0-1.38","3","Low_HMMActual","","","","","","null","","","","Images/BlackBeadChoice.png","","null"
"image-button-response","175","417690","0.0-13.0-2.38","3","Low_HMMActual","","","","","","null","","","","Images/BlackBeadChoiceCorrect.png","","null"
"image-button-response","176","418767","0.0-13.0-0.39","3","Low_HMMActual","","","","","","1077","","","","Images/NewTrialBC.png","","2"
"image-button-response","177","419088","0.0-13.0-1.39","3","Low_HMMActual","","","","","","null","","","","Images/WhiteBeadChoice.png","","null"
"image-button-response","178","419607","0.0-13.0-2.39","3","Low_HMMActual","","","","","","null","","","","Images/WhiteBeadChoiceCorrect.png","","null"
"image-button-response","179","420567","0.0-13.0-0.40","3","Low_HMMActual","","","","","","955","","","","Images/NewTrialWC.png","","2"
"image-button-response","180","420878","0.0-13.0-1.40","3","Low_HMMActual","","","","","","null","","","","Images/WhiteBeadChoice.png","","null"
"image-button-response","181","421387","0.0-13.0-2.40","3","Low_HMMActual","","","","","","null","","","","Images/WhiteBeadChoiceCorrect.png","","null"
"image-button-response","182","422335","0.0-13.0-0.41","3","Low_HMMActual","","","","","","946","","","","Images/NewTrialWC.png","","2"
"image-button-response","183","422647","0.0-13.0-1.41","3","Low_HMMActual","","","","","","null","","","","Images/WhiteBeadChoice.png","","null"
"image-button-response","184","423167","0.0-13.0-2.41","3","Low_HMMActual","","","","","","null","","","","Images/WhiteBeadChoiceCorrect.png","","null"
"image-button-response","185","424855","0.0-13.0-0.42","3","Low_HMMActual","","","","","","1687","","","","Images/NewTrialWC.png","","0"
"image-button-response","186","425167","0.0-13.0-1.42","3","Low_HMMActual","","","","","","null","","","","Images/BlackBeadChoice.png","","null"
"image-button-response","187","425670","0.0-13.0-2.42","3","Low_HMMActual","","","","","","null","","","","Images/BlackBeadChoiceCorrect.png","","null"
"image-button-response","188","426438","0.0-13.0-0.43","3","Low_HMMActual","","","","","","766","","","","Images/NewTrialBC.png","","2"
"image-button-response","189","426747","0.0-13.0-1.43","3","Low_HMMActual","","","","","","null","","","","Images/WhiteBeadChoice.png","","null"
"image-button-response","190","427267","0.0-13.0-2.43","3","Low_HMMActual","","","","","","null","","","","Images/WhiteBeadChoiceWrong.png","","null"
"image-button-response","191","429455","0.0-13.0-0.44","3","Low_HMMActual","","","","","","2186","","","","Images/NewTrialBC.png","","1"
"image-button-response","192","429767","0.0-13.0-1.44","3","Low_HMMActual","","","","","","null","","","","Images/BlackBeadChoice.png","","null"
"image-button-response","193","430287","0.0-13.0-2.44","3","Low_HMMActual","","","","","","null","","","","Images/BlackBeadChoiceCorrect.png","","null"
"image-button-response","194","430958","0.0-13.0-0.45","3","Low_HMMActual","","","","","","665","","","","Images/NewTrialBC.png","","0"
"image-button-response","195","431267","0.0-13.0-1.45","3","Low_HMMActual","","","","","","null","","","","Images/BlackBeadChoice.png","","null"
"image-button-response","196","431787","0.0-13.0-2.45","3","Low_HMMActual","","","","","","null","","","","Images/BlackBeadChoiceWrong.png","","null"
"image-button-response","197","433175","0.0-13.0-0.46","3","Low_HMMActual","","","","","","1385","","","","Images/NewTrialWC.png","","0"
"image-button-response","198","433487","0.0-13.0-1.46","3","Low_HMMActual","","","","","","null","","","","Images/BlackBeadChoice.png","","null"
"image-button-response","199","434007","0.0-13.0-2.46","3","Low_HMMActual","","","","","","null","","","","Images/BlackBeadChoiceCorrect.png","","null"
"image-button-response","200","435262","0.0-13.0-0.47","3","Low_HMMActual","","","","","","1252","","","","Images/NewTrialBC.png","","0"
"image-button-response","201","435567","0.0-13.0-1.47","3","Low_HMMActual","","","","","","null","","","","Images/BlackBeadChoice.png","","null"
"image-button-response","202","436087","0.0-13.0-2.47","3","Low_HMMActual","","","","","","null","","","","Images/BlackBeadChoiceWrong.png","","null"
"image-button-response","203","438975","0.0-13.0-0.48","3","Low_HMMActual","","","","","","2886","","","","Images/NewTrialWC.png","","0"
"image-button-response","204","439277","0.0-13.0-1.48","3","Low_HMMActual","","","","","","null","","","","Images/BlackBeadChoice.png","","null"
"image-button-response","205","439797","0.0-13.0-2.48","3","Low_HMMActual","","","","","","null","","","","Images/BlackBeadChoiceCorrect.png","","null"
"image-button-response","206","440911","0.0-13.0-0.49","3","Low_HMMActual","","","","","","1112","","","","Images/NewTrialBC.png","","0"
"image-button-response","207","441217","0.0-13.0-1.49","3","Low_HMMActual","","","","","","null","","","","Images/BlackBeadChoice.png","","null"
"image-button-response","208","441737","0.0-13.0-2.49","3","Low_HMMActual","","","","","","null","","","","Images/BlackBeadChoiceCorrect.png","","null"
"image-button-response","209","442495","0.0-13.0-0.50","3","Low_HMMActual","","","","","","756","","","","Images/NewTrialBC.png","","0"
"image-button-response","210","442817","0.0-13.0-1.50","3","Low_HMMActual","","","","","","null","","","","Images/BlackBeadChoice.png","","null"
"image-button-response","211","443337","0.0-13.0-2.50","3","Low_HMMActual","","","","","","null","","","","Images/BlackBeadChoiceCorrect.png","","null"
"image-button-response","212","445303","0.0-13.0-0.51","3","Low_HMMActual","","","","","","1962","","","","Images/NewTrialBC.png","","2"
"image-button-response","213","445617","0.0-13.0-1.51","3","Low_HMMActual","","","","","","null","","","","Images/WhiteBeadChoice.png","","null"
"image-button-response","214","446131","0.0-13.0-2.51","3","Low_HMMActual","","","","","","null","","","","Images/WhiteBeadChoiceWrong.png","","null"
"image-button-response","215","447663","0.0-13.0-0.52","3","Low_HMMActual","","","","","","1530","","","","Images/NewTrialBC.png","","3"
"image-button-response","216","447973","0.0-13.0-1.52","3","Low_HMMActual","","","","","","null","","","","Images/WhiteBeadChoice.png","","null"
"image-button-response","217","448479","0.0-13.0-2.52","3","Low_HMMActual","","","","","","null","","","","Images/WhiteBeadChoiceWrong.png","","null"
"image-button-response","218","449847","0.0-13.0-0.53","3","Low_HMMActual","","","","","","1365","","","","Images/NewTrialBC.png","","3"
"image-button-response","219","450157","0.0-13.0-1.53","3","Low_HMMActual","","","","","","null","","","","Images/WhiteBeadChoice.png","","null"
"image-button-response","220","450662","0.0-13.0-2.53","3","Low_HMMActual","","","","","","null","","","","Images/WhiteBeadChoiceWrong.png","","null"
"image-button-response","221","451078","0.0-13.0-0.54","3","Low_HMMActual","","","","","","415","","","","Images/NewTrialBC.png","","0"
"image-button-response","222","451387","0.0-13.0-1.54","3","Low_HMMActual","","","","","","null","","","","Images/BlackBeadChoice.png","","null"
"image-button-response","223","451902","0.0-13.0-2.54","3","Low_HMMActual","","","","","","null","","","","Images/BlackBeadChoiceWrong.png","","null"
"image-button-response","224","452343","0.0-13.0-0.55","3","Low_HMMActual","","","","","","440","","","","Images/NewTrialWC.png","","0"
"image-button-response","225","452647","0.0-13.0-1.55","3","Low_HMMActual","","","","","","null","","","","Images/BlackBeadChoice.png","","null"
"image-button-response","226","453168","0.0-13.0-2.55","3","Low_HMMActual","","","","","","null","","","","Images/BlackBeadChoiceCorrect.png","","null"
"image-button-response","227","453607","0.0-13.0-0.56","3","Low_HMMActual","","","","","","437","","","","Images/NewTrialBC.png","","0"
"image-button-response","228","453927","0.0-13.0-1.56","3","Low_HMMActual","","","","","","null","","","","Images/BlackBeadChoice.png","","null"
"image-button-response","229","454437","0.0-13.0-2.56","3","Low_HMMActual","","","","","","null","","","","Images/BlackBeadChoiceWrong.png","","null"
"image-button-response","230","461031","0.0-13.0-0.57","3","Low_HMMActual","","","","","","6590","","","","Images/NewTrialWC.png","","0"
"image-button-response","231","461337","0.0-13.0-1.57","3","Low_HMMActual","","","","","","null","","","","Images/BlackBeadChoice.png","","null"
"image-button-response","232","461858","0.0-13.0-2.57","3","Low_HMMActual","","","","","","null","","","","Images/BlackBeadChoiceWrong.png","","null"
"image-button-response","233","462887","0.0-13.0-0.58","3","Low_HMMActual","","","","","","1024","","","","Images/NewTrialWC.png","","2"
"image-button-response","234","463197","0.0-13.0-1.58","3","Low_HMMActual","","","","","","null","","","","Images/WhiteBeadChoice.png","","null"
"image-button-response","235","463708","0.0-13.0-2.58","3","Low_HMMActual","","","","","","null","","","","Images/WhiteBeadChoiceWrong.png","","null"
"image-button-response","236","464718","0.0-13.0-0.59","3","Low_HMMActual","","","","","","1009","","","","Images/NewTrialBC.png","","0"
"image-button-response","237","465028","0.0-13.0-1.59","3","Low_HMMActual","","","","","","null","","","","Images/BlackBeadChoice.png","","null"
"image-button-response","238","465547","0.0-13.0-2.59","3","Low_HMMActual","","","","","","null","","","","Images/BlackBeadChoiceCorrect.png","","null"
"image-button-response","239","466191","0.0-13.0-0.60","3","Low_HMMActual","","","","","","642","","","","Images/NewTrialBC.png","","0"
"image-button-response","240","466507","0.0-13.0-1.60","3","Low_HMMActual","","","","","","null","","","","Images/BlackBeadChoice.png","","null"
"image-button-response","241","467028","0.0-13.0-2.60","3","Low_HMMActual","","","","","","null","","","","Images/BlackBeadChoiceWrong.png","","null"
"image-button-response","242","470910","0.0-13.0-0.61","3","Low_HMMActual","","","","","","3882","","","","Images/NewTrialWC.png","","0"
"image-button-response","243","471227","0.0-13.0-1.61","3","Low_HMMActual","","","","","","null","","","","Images/BlackBeadChoice.png","","null"
"image-button-response","244","471747","0.0-13.0-2.61","3","Low_HMMActual","","","","","","null","","","","Images/BlackBeadChoiceWrong.png","","null"
"image-button-response","245","472918","0.0-13.0-0.62","3","Low_HMMActual","","","","","","1170","","","","Images/NewTrialWC.png","","1"
"image-button-response","246","473228","0.0-13.0-1.62","3","Low_HMMActual","","","","","","null","","","","Images/BlackBeadChoice.png","","null"
"image-button-response","247","473747","0.0-13.0-2.62","3","Low_HMMActual","","","","","","null","","","","Images/BlackBeadChoiceWrong.png","","null"
"image-button-response","248","474926","0.0-13.0-0.63","3","Low_HMMActual","","","","","","1179","","","","Images/NewTrialWC.png","","2"
"image-button-response","249","475247","0.0-13.0-1.63","3","Low_HMMActual","","","","","","null","","","","Images/WhiteBeadChoice.png","","null"
"image-button-response","250","475767","0.0-13.0-2.63","3","Low_HMMActual","","","","","","null","","","","Images/WhiteBeadChoiceWrong.png","","null"
"image-button-response","251","476359","0.0-13.0-0.64","3","Low_HMMActual","","","","","","589","","","","Images/NewTrialBC.png","","2"
"image-button-response","252","476667","0.0-13.0-1.64","3","Low_HMMActual","","","","","","null","","","","Images/WhiteBeadChoice.png","","null"
"image-button-response","253","477183","0.0-13.0-2.64","3","Low_HMMActual","","","","","","null","","","","Images/WhiteBeadChoiceCorrect.png","","null"
"image-button-response","254","478079","0.0-13.0-0.65","3","Low_HMMActual","","","","","","894","","","","Images/NewTrialWC.png","","2"
"image-button-response","255","478384","0.0-13.0-1.65","3","Low_HMMActual","","","","","","null","","","","Images/WhiteBeadChoice.png","","null"
"image-button-response","256","478907","0.0-13.0-2.65","3","Low_HMMActual","","","","","","null","","","","Images/WhiteBeadChoiceWrong.png","","null"
"image-button-response","257","489190","0.0-13.0-0.66","3","Low_HMMActual","","","","","","10281","","","","Images/NewTrialBC.png","","2"
"image-button-response","258","489507","0.0-13.0-1.66","3","Low_HMMActual","","","","","","null","","","","Images/WhiteBeadChoice.png","","null"
"image-button-response","259","490027","0.0-13.0-2.66","3","Low_HMMActual","","","","","","null","","","","Images/WhiteBeadChoiceWrong.png","","null"
"image-button-response","260","490815","0.0-13.0-0.67","3","Low_HMMActual","","","","","","787","","","","Images/NewTrialBC.png","","0"
"image-button-response","261","491127","0.0-13.0-1.67","3","Low_HMMActual","","","","","","null","","","","Images/BlackBeadChoice.png","","null"
"image-button-response","262","491648","0.0-13.0-2.67","3","Low_HMMActual","","","","","","null","","","","Images/BlackBeadChoiceWrong.png","","null"
"image-button-response","263","492343","0.0-13.0-0.68","3","Low_HMMActual","","","","","","691","","","","Images/NewTrialWC.png","","0"
"image-button-response","264","492648","0.0-13.0-1.68","3","Low_HMMActual","","","","","","null","","","","Images/BlackBeadChoice.png","","null"
"image-button-response","265","493167","0.0-13.0-2.68","3","Low_HMMActual","","","","","","null","","","","Images/BlackBeadChoiceWrong.png","","null"
"image-button-response","266","493935","0.0-13.0-0.69","3","Low_HMMActual","","","","","","765","","","","Images/NewTrialWC.png","","0"
"image-button-response","267","494247","0.0-13.0-1.69","3","Low_HMMActual","","","","","","null","","","","Images/BlackBeadChoice.png","","null"
"image-button-response","268","494764","0.0-13.0-2.69","3","Low_HMMActual","","","","","","null","","","","Images/BlackBeadChoiceWrong.png","","null"
"image-button-response","269","495799","0.0-13.0-0.70","3","Low_HMMActual","","","","","","1031","","","","Images/NewTrialWC.png","","2"
"image-button-response","270","496107","0.0-13.0-1.70","3","Low_HMMActual","","","","","","null","","","","Images/WhiteBeadChoice.png","","null"
"image-button-response","271","496626","0.0-13.0-2.70","3","Low_HMMActual","","","","","","null","","","","Images/WhiteBeadChoiceCorrect.png","","null"
"image-button-response","272","497063","0.0-13.0-0.71","3","Low_HMMActual","","","","","","432","","","","Images/NewTrialWC.png","","2"
"image-button-response","273","497367","0.0-13.0-1.71","3","Low_HMMActual","","","","","","null","","","","Images/WhiteBeadChoice.png","","null"
"image-button-response","274","497888","0.0-13.0-2.71","3","Low_HMMActual","","","","","","null","","","","Images/WhiteBeadChoiceCorrect.png","","null"
"image-button-response","275","498423","0.0-13.0-0.72","3","Low_HMMActual","","","","","","534","","","","Images/NewTrialWC.png","","2"
"image-button-response","276","498737","0.0-13.0-1.72","3","Low_HMMActual","","","","","","null","","","","Images/WhiteBeadChoice.png","","null"
"image-button-response","277","499258","0.0-13.0-2.72","3","Low_HMMActual","","","","","","null","","","","Images/WhiteBeadChoiceCorrect.png","","null"
"image-button-response","278","499935","0.0-13.0-0.73","3","Low_HMMActual","","","","","","676","","","","Images/NewTrialWC.png","","2"
"image-button-response","279","500237","0.0-13.0-1.73","3","Low_HMMActual","","","","","","null","","","","Images/WhiteBeadChoice.png","","null"
"image-button-response","280","500757","0.0-13.0-2.73","3","Low_HMMActual","","","","","","null","","","","Images/WhiteBeadChoiceCorrect.png","","null"
"image-button-response","281","501111","0.0-13.0-0.74","3","Low_HMMActual","","","","","","352","","","","Images/NewTrialWC.png","","2"
"image-button-response","282","501417","0.0-13.0-1.74","3","Low_HMMActual","","","","","","null","","","","Images/WhiteBeadChoice.png","","null"
"image-button-response","283","501938","0.0-13.0-2.74","3","Low_HMMActual","","","","","","null","","","","Images/WhiteBeadChoiceCorrect.png","","null"
"image-button-response","284","502335","0.0-13.0-0.75","3","Low_HMMActual","","","","","","391","","","","Images/NewTrialWC.png","","2"
"image-button-response","285","502656","0.0-13.0-1.75","3","Low_HMMActual","","","","","","null","","","","Images/WhiteBeadChoice.png","","null"
"image-button-response","286","503177","0.0-13.0-2.75","3","Low_HMMActual","","","","","","null","","","","Images/WhiteBeadChoiceCorrect.png","","null"
"image-button-response","287","503583","0.0-13.0-0.76","3","Low_HMMActual","","","","","","404","","","","Images/NewTrialWC.png","","2"
"image-button-response","288","503897","0.0-13.0-1.76","3","Low_HMMActual","","","","","","null","","","","Images/WhiteBeadChoice.png","","null"
"image-button-response","289","504417","0.0-13.0-2.76","3","Low_HMMActual","","","","","","null","","","","Images/WhiteBeadChoiceCorrect.png","","null"
"image-button-response","290","504806","0.0-13.0-0.77","3","Low_HMMActual","","","","","","387","","","","Images/NewTrialWC.png","","2"
"image-button-response","291","505117","0.0-13.0-1.77","3","Low_HMMActual","","","","","","null","","","","Images/WhiteBeadChoice.png","","null"
"image-button-response","292","505637","0.0-13.0-2.77","3","Low_HMMActual","","","","","","null","","","","Images/WhiteBeadChoiceCorrect.png","","null"
"image-button-response","293","505967","0.0-13.0-0.78","3","Low_HMMActual","","","","","","327","","","","Images/NewTrialWC.png","","2"
"image-button-response","294","506277","0.0-13.0-1.78","3","Low_HMMActual","","","","","","null","","","","Images/WhiteBeadChoice.png","","null"
"image-button-response","295","506797","0.0-13.0-2.78","3","Low_HMMActual","","","","","","null","","","","Images/WhiteBeadChoiceCorrect.png","","null"
"image-button-response","296","507159","0.0-13.0-0.79","3","Low_HMMActual","","","","","","359","","","","Images/NewTrialWC.png","","2"
"image-button-response","297","507477","0.0-13.0-1.79","3","Low_HMMActual","","","","","","null","","","","Images/WhiteBeadChoice.png","","null"
"image-button-response","298","507997","0.0-13.0-2.79","3","Low_HMMActual","","","","","","null","","","","Images/WhiteBeadChoiceWrong.png","","null"
"image-button-response","299","509823","0.0-13.0-0.80","3","Low_HMMActual","","","","","","1824","","","","Images/NewTrialBC.png","","1"
"image-button-response","300","510128","0.0-13.0-1.80","3","Low_HMMActual","","","","","","null","","","","Images/BlackBeadChoice.png","","null"
"image-button-response","301","510648","0.0-13.0-2.80","3","Low_HMMActual","","","","","","null","","","","Images/BlackBeadChoiceWrong.png","","null"
"image-button-response","302","511687","0.0-13.0-0.81","3","Low_HMMActual","","","","","","1038","","","","Images/NewTrialWC.png","","2"
"image-button-response","303","512007","0.0-13.0-1.81","3","Low_HMMActual","","","","","","null","","","","Images/WhiteBeadChoice.png","","null"
"image-button-response","304","512527","0.0-13.0-2.81","3","Low_HMMActual","","","","","","null","","","","Images/WhiteBeadChoiceCorrect.png","","null"
"image-button-response","305","513007","0.0-13.0-0.82","3","Low_HMMActual","","","","","","479","","","","Images/NewTrialWC.png","","2"
"image-button-response","306","513327","0.0-13.0-1.82","3","Low_HMMActual","","","","","","null","","","","Images/WhiteBeadChoice.png","","null"
"image-button-response","307","513848","0.0-13.0-2.82","3","Low_HMMActual","","","","","","null","","","","Images/WhiteBeadChoiceCorrect.png","","null"
"image-button-response","308","514287","0.0-13.0-0.83","3","Low_HMMActual","","","","","","437","","","","Images/NewTrialWC.png","","2"
"image-button-response","309","514606","0.0-13.0-1.83","3","Low_HMMActual","","","","","","null","","","","Images/WhiteBeadChoice.png","","null"
"image-button-response","310","515127","0.0-13.0-2.83","3","Low_HMMActual","","","","","","null","","","","Images/WhiteBeadChoiceWrong.png","","null"
"image-button-response","311","516886","0.0-13.0-0.84","3","Low_HMMActual","","","","","","1757","","","","Images/NewTrialBC.png","","2"
"image-button-response","312","517196","0.0-13.0-1.84","3","Low_HMMActual","","","","","","null","","","","Images/WhiteBeadChoice.png","","null"
"image-button-response","313","517716","0.0-13.0-2.84","3","Low_HMMActual","","","","","","null","","","","Images/WhiteBeadChoiceCorrect.png","","null"
"image-button-response","314","518142","0.0-13.0-0.85","3","Low_HMMActual","","","","","","424","","","","Images/NewTrialWC.png","","2"
"image-button-response","315","518457","0.0-13.0-1.85","3","Low_HMMActual","","","","","","null","","","","Images/WhiteBeadChoice.png","","null"
"image-button-response","316","518977","0.0-13.0-2.85","3","Low_HMMActual","","","","","","null","","","","Images/WhiteBeadChoiceWrong.png","","null"
"image-button-response","317","521599","0.0-13.0-0.86","3","Low_HMMActual","","","","","","2619","","","","Images/NewTrialBC.png","","2"
"image-button-response","318","521918","0.0-13.0-1.86","3","Low_HMMActual","","","","","","null","","","","Images/WhiteBeadChoice.png","","null"
"image-button-response","319","522437","0.0-13.0-2.86","3","Low_HMMActual","","","","","","null","","","","Images/WhiteBeadChoiceWrong.png","","null"
"image-button-response","320","523158","0.0-13.0-0.87","3","Low_HMMActual","","","","","","720","","","","Images/NewTrialBC.png","","1"
"image-button-response","321","523477","0.0-13.0-1.87","3","Low_HMMActual","","","","","","null","","","","Images/BlackBeadChoice.png","","null"
"image-button-response","322","523997","0.0-13.0-2.87","3","Low_HMMActual","","","","","","null","","","","Images/BlackBeadChoiceWrong.png","","null"
"image-button-response","323","525846","0.0-13.0-0.88","3","Low_HMMActual","","","","","","1847","","","","Images/NewTrialWC.png","","1"
"image-button-response","324","526168","0.0-13.0-1.88","3","Low_HMMActual","","","","","","null","","","","Images/BlackBeadChoice.png","","null"
"image-button-response","325","526687","0.0-13.0-2.88","3","Low_HMMActual","","","","","","null","","","","Images/BlackBeadChoiceWrong.png","","null"
"image-button-response","326","527367","0.0-13.0-0.89","3","Low_HMMActual","","","","","","676","","","","Images/NewTrialWC.png","","2"
"image-button-response","327","527688","0.0-13.0-1.89","3","Low_HMMActual","","","","","","null","","","","Images/WhiteBeadChoice.png","","null"
"image-button-response","328","528208","0.0-13.0-2.89","3","Low_HMMActual","","","","","","null","","","","Images/WhiteBeadChoiceCorrect.png","","null"
"image-button-response","329","528567","0.0-13.0-0.90","3","Low_HMMActual","","","","","","355","","","","Images/NewTrialWC.png","","2"
"image-button-response","330","528887","0.0-13.0-1.90","3","Low_HMMActual","","","","","","null","","","","Images/WhiteBeadChoice.png","","null"
"image-button-response","331","529407","0.0-13.0-2.90","3","Low_HMMActual","","","","","","null","","","","Images/WhiteBeadChoiceCorrect.png","","null"
"image-button-response","332","529919","0.0-13.0-0.91","3","Low_HMMActual","","","","","","510","","","","Images/NewTrialWC.png","","2"
"image-button-response","333","530227","0.0-13.0-1.91","3","Low_HMMActual","","","","","","null","","","","Images/WhiteBeadChoice.png","","null"
"image-button-response","334","530747","0.0-13.0-2.91","3","Low_HMMActual","","","","","","null","","","","Images/WhiteBeadChoiceCorrect.png","","null"
"image-button-response","335","531095","0.0-13.0-0.92","3","Low_HMMActual","","","","","","347","","","","Images/NewTrialWC.png","","2"
"image-button-response","336","531407","0.0-13.0-1.92","3","Low_HMMActual","","","","","","null","","","","Images/WhiteBeadChoice.png","","null"
"image-button-response","337","531927","0.0-13.0-2.92","3","Low_HMMActual","","","","","","null","","","","Images/WhiteBeadChoiceCorrect.png","","null"
"image-button-response","338","532151","0.0-13.0-0.93","3","Low_HMMActual","","","","","","223","","","","Images/NewTrialWC.png","","2"
"image-button-response","339","532464","0.0-13.0-1.93","3","Low_HMMActual","","","","","","null","","","","Images/WhiteBeadChoice.png","","null"
"image-button-response","340","532987","0.0-13.0-2.93","3","Low_HMMActual","","","","","","null","","","","Images/WhiteBeadChoiceWrong.png","","null"
"image-button-response","341","534070","0.0-13.0-0.94","3","Low_HMMActual","","","","","","1081","","","","Images/NewTrialBC.png","","3"
"image-button-response","342","534387","0.0-13.0-1.94","3","Low_HMMActual","","","","","","null","","","","Images/WhiteBeadChoice.png","","null"
"image-button-response","343","534899","0.0-13.0-2.94","3","Low_HMMActual","","","","","","null","","","","Images/WhiteBeadChoiceCorrect.png","","null"
"image-button-response","344","535319","0.0-13.0-0.95","3","Low_HMMActual","","","","","","418","","","","Images/NewTrialWC.png","","2"
"image-button-response","345","535627","0.0-13.0-1.95","3","Low_HMMActual","","","","","","null","","","","Images/WhiteBeadChoice.png","","null"
"image-button-response","346","536147","0.0-13.0-2.95","3","Low_HMMActual","","","","","","null","","","","Images/WhiteBeadChoiceCorrect.png","","null"
"image-button-response","347","536687","0.0-13.0-0.96","3","Low_HMMActual","","","","","","539","","","","Images/NewTrialWC.png","","2"
"image-button-response","348","537007","0.0-13.0-1.96","3","Low_HMMActual","","","","","","null","","","","Images/WhiteBeadChoice.png","","null"
"image-button-response","349","537527","0.0-13.0-2.96","3","Low_HMMActual","","","","","","null","","","","Images/WhiteBeadChoiceCorrect.png","","null"
"image-button-response","350","538048","0.0-13.0-0.97","3","Low_HMMActual","","","","","","518","","","","Images/NewTrialWC.png","","2"
"image-button-response","351","538367","0.0-13.0-1.97","3","Low_HMMActual","","","","","","null","","","","Images/WhiteBeadChoice.png","","null"
"image-button-response","352","538887","0.0-13.0-2.97","3","Low_HMMActual","","","","","","null","","","","Images/WhiteBeadChoiceWrong.png","","null"
"image-button-response","353","541663","0.0-13.0-0.98","3","Low_HMMActual","","","","","","2772","","","","Images/NewTrialBC.png","","2"
"image-button-response","354","541967","0.0-13.0-1.98","3","Low_HMMActual","","","","","","null","","","","Images/WhiteBeadChoice.png","","null"
"image-button-response","355","542487","0.0-13.0-2.98","3","Low_HMMActual","","","","","","null","","","","Images/WhiteBeadChoiceCorrect.png","","null"
"image-button-response","356","542903","0.0-13.0-0.99","3","Low_HMMActual","","","","","","411","","","","Images/NewTrialWC.png","","2"
"image-button-response","357","543206","0.0-13.0-1.99","3","Low_HMMActual","","","","","","null","","","","Images/WhiteBeadChoice.png","","null"
"image-button-response","358","543727","0.0-13.0-2.99","3","Low_HMMActual","","","","","","null","","","","Images/WhiteBeadChoiceCorrect.png","","null"
"image-button-response","359","544039","0.0-13.0-0.100","3","Low_HMMActual","","","","","","309","","","","Images/NewTrialWC.png","","2"
"image-button-response","360","544347","0.0-13.0-1.100","3","Low_HMMActual","","","","","","null","","","","Images/WhiteBeadChoice.png","","null"
"image-button-response","361","544867","0.0-13.0-2.100","3","Low_HMMActual","","","","","","null","","","","Images/WhiteBeadChoiceCorrect.png","","null"
"image-button-response","362","547958","0.0-13.0-0.101","3","Low_HMMActual","","","","","","3090","","","","Images/NewTrialWC.png","","1"
"image-button-response","363","548263","0.0-13.0-1.101","3","Low_HMMActual","","","","","","null","","","","Images/BlackBeadChoice.png","","null"
"image-button-response","364","548767","0.0-13.0-2.101","3","Low_HMMActual","","","","","","null","","","","Images/BlackBeadChoiceWrong.png","","null"
"image-button-response","365","550135","0.0-13.0-0.102","3","Low_HMMActual","","","","","","1366","","","","Images/NewTrialWC.png","","1"
"image-button-response","366","550445","0.0-13.0-1.102","3","Low_HMMActual","","","","","","null","","","","Images/BlackBeadChoice.png","","null"
"image-button-response","367","550947","0.0-13.0-2.102","3","Low_HMMActual","","","","","","null","","","","Images/BlackBeadChoiceWrong.png","","null"
"image-button-response","368","551367","0.0-13.0-0.103","3","Low_HMMActual","","","","","","418","","","","Images/NewTrialWC.png","","2"
"image-button-response","369","551687","0.0-13.0-1.103","3","Low_HMMActual","","","","","","null","","","","Images/WhiteBeadChoice.png","","null"
"image-button-response","370","552207","0.0-13.0-2.103","3","Low_HMMActual","","","","","","null","","","","Images/WhiteBeadChoiceCorrect.png","","null"
"image-button-response","371","552759","0.0-13.0-0.104","3","Low_HMMActual","","","","","","551","","","","Images/NewTrialWC.png","","2"
"image-button-response","372","553069","0.0-13.0-1.104","3","Low_HMMActual","","","","","","null","","","","Images/WhiteBeadChoice.png","","null"
"image-button-response","373","553587","0.0-13.0-2.104","3","Low_HMMActual","","","","","","null","","","","Images/WhiteBeadChoiceCorrect.png","","null"
"image-button-response","374","554351","0.0-13.0-0.105","3","Low_HMMActual","","","","","","758","","","","Images/NewTrialWC.png","","2"
"image-button-response","375","554667","0.0-13.0-1.105","3","Low_HMMActual","","","","","","null","","","","Images/WhiteBeadChoice.png","","null"
"image-button-response","376","555187","0.0-13.0-2.105","3","Low_HMMActual","","","","","","null","","","","Images/WhiteBeadChoiceWrong.png","","null"
"image-button-response","377","555719","0.0-13.0-0.106","3","Low_HMMActual","","","","","","529","","","","Images/NewTrialBC.png","","2"
"image-button-response","378","556027","0.0-13.0-1.106","3","Low_HMMActual","","","","","","null","","","","Images/WhiteBeadChoice.png","","null"
"image-button-response","379","556547","0.0-13.0-2.106","3","Low_HMMActual","","","","","","null","","","","Images/WhiteBeadChoiceCorrect.png","","null"
"image-button-response","380","556959","0.0-13.0-0.107","3","Low_HMMActual","","","","","","409","","","","Images/NewTrialWC.png","","2"
"image-button-response","381","557267","0.0-13.0-1.107","3","Low_HMMActual","","","","","","null","","","","Images/WhiteBeadChoice.png","","null"
"image-button-response","382","557788","0.0-13.0-2.107","3","Low_HMMActual","","","","","","null","","","","Images/WhiteBeadChoiceCorrect.png","","null"
"image-button-response","383","558222","0.0-13.0-0.108","3","Low_HMMActual","","","","","","433","","","","Images/NewTrialWC.png","","2"
"image-button-response","384","558527","0.0-13.0-1.108","3","Low_HMMActual","","","","","","null","","","","Images/WhiteBeadChoice.png","","null"
"image-button-response","385","559047","0.0-13.0-2.108","3","Low_HMMActual","","","","","","null","","","","Images/WhiteBeadChoiceWrong.png","","null"
"image-button-response","386","561055","0.0-13.0-0.109","3","Low_HMMActual","","","","","","2006","","","","Images/NewTrialBC.png","","3"
"image-button-response","387","561367","0.0-13.0-1.109","3","Low_HMMActual","","","","","","null","","","","Images/WhiteBeadChoice.png","","null"
"image-button-response","388","561875","0.0-13.0-2.109","3","Low_HMMActual","","","","","","null","","","","Images/WhiteBeadChoiceCorrect.png","","null"
"image-button-response","389","562167","0.0-13.0-0.110","3","Low_HMMActual","","","","","","287","","","","Images/NewTrialWC.png","","2"
"image-button-response","390","562487","0.0-13.0-1.110","3","Low_HMMActual","","","","","","null","","","","Images/WhiteBeadChoice.png","","null"
"image-button-response","391","563007","0.0-13.0-2.110","3","Low_HMMActual","","","","","","null","","","","Images/WhiteBeadChoiceCorrect.png","","null"
"image-button-response","392","563390","0.0-13.0-0.111","3","Low_HMMActual","","","","","","381","","","","Images/NewTrialWC.png","","2"
"image-button-response","393","563708","0.0-13.0-1.111","3","Low_HMMActual","","","","","","null","","","","Images/WhiteBeadChoice.png","","null"
"image-button-response","394","564227","0.0-13.0-2.111","3","Low_HMMActual","","","","","","null","","","","Images/WhiteBeadChoiceCorrect.png","","null"
"image-button-response","395","564807","0.0-13.0-0.112","3","Low_HMMActual","","","","","","577","","","","Images/NewTrialWC.png","","2"
"image-button-response","396","565127","0.0-13.0-1.112","3","Low_HMMActual","","","","","","null","","","","Images/WhiteBeadChoice.png","","null"
"image-button-response","397","565639","0.0-13.0-2.112","3","Low_HMMActual","","","","","","null","","","","Images/WhiteBeadChoiceCorrect.png","","null"
"image-button-response","398","566479","0.0-13.0-0.113","3","Low_HMMActual","","","","","","837","","","","Images/NewTrialWC.png","","1"
"image-button-response","399","566787","0.0-13.0-1.113","3","Low_HMMActual","","","","","","null","","","","Images/BlackBeadChoice.png","","null"
"image-button-response","400","567307","0.0-13.0-2.113","3","Low_HMMActual","","","","","","null","","","","Images/BlackBeadChoiceWrong.png","","null"
"image-button-response","401","568439","0.0-13.0-0.114","3","Low_HMMActual","","","","","","1130","","","","Images/NewTrialWC.png","","1"
"image-button-response","402","568747","0.0-13.0-1.114","3","Low_HMMActual","","","","","","null","","","","Images/BlackBeadChoice.png","","null"
"image-button-response","403","569255","0.0-13.0-2.114","3","Low_HMMActual","","","","","","null","","","","Images/BlackBeadChoiceCorrect.png","","null"
"image-button-response","404","569775","0.0-13.0-0.115","3","Low_HMMActual","","","","","","520","","","","Images/NewTrialBC.png","","2"
"image-button-response","405","570087","0.0-13.0-1.115","3","Low_HMMActual","","","","","","null","","","","Images/WhiteBeadChoice.png","","null"
"image-button-response","406","570608","0.0-13.0-2.115","3","Low_HMMActual","","","","","","null","","","","Images/WhiteBeadChoiceWrong.png","","null"
"image-button-response","407","572583","0.0-13.0-0.116","3","Low_HMMActual","","","","","","1970","","","","Images/NewTrialBC.png","","3"
"image-button-response","408","572887","0.0-13.0-1.116","3","Low_HMMActual","","","","","","null","","","","Images/WhiteBeadChoice.png","","null"
"image-button-response","409","573403","0.0-13.0-2.116","3","Low_HMMActual","","","","","","null","","","","Images/WhiteBeadChoiceWrong.png","","null"
"image-button-response","410","574150","0.0-13.0-0.117","3","Low_HMMActual","","","","","","744","","","","Images/NewTrialBC.png","","0"
"image-button-response","411","574467","0.0-13.0-1.117","3","Low_HMMActual","","","","","","null","","","","Images/BlackBeadChoice.png","","null"
"image-button-response","412","574987","0.0-13.0-2.117","3","Low_HMMActual","","","","","","null","","","","Images/BlackBeadChoiceCorrect.png","","null"
"image-button-response","413","575415","0.0-13.0-0.118","3","Low_HMMActual","","","","","","426","","","","Images/NewTrialBC.png","","0"
"image-button-response","414","575727","0.0-13.0-1.118","3","Low_HMMActual","","","","","","null","","","","Images/BlackBeadChoice.png","","null"
"image-button-response","415","576247","0.0-13.0-2.118","3","Low_HMMActual","","","","","","null","","","","Images/BlackBeadChoiceCorrect.png","","null"
"image-button-response","416","576719","0.0-13.0-0.119","3","Low_HMMActual","","","","","","469","","","","Images/NewTrialBC.png","","0"
"image-button-response","417","577037","0.0-13.0-1.119","3","Low_HMMActual","","","","","","null","","","","Images/BlackBeadChoice.png","","null"
"image-button-response","418","577557","0.0-13.0-2.119","3","Low_HMMActual","","","","","","null","","","","Images/BlackBeadChoiceWrong.png","","null"
"image-button-response","419","579031","0.0-13.0-0.120","3","Low_HMMActual","","","","","","1471","","","","Images/NewTrialWC.png","","1"
"image-button-response","420","579337","0.0-13.0-1.120","3","Low_HMMActual","","","","","","null","","","","Images/BlackBeadChoice.png","","null"
"image-button-response","421","579851","0.0-13.0-2.120","3","Low_HMMActual","","","","","","null","","","","Images/BlackBeadChoiceCorrect.png","","null"
"image-button-response","422","580335","0.0-13.0-0.121","3","Low_HMMActual","","","","","","482","","","","Images/NewTrialBC.png","","0"
"image-button-response","423","580647","0.0-13.0-1.121","3","Low_HMMActual","","","","","","null","","","","Images/BlackBeadChoice.png","","null"
"image-button-response","424","581168","0.0-13.0-2.121","3","Low_HMMActual","","","","","","null","","","","Images/BlackBeadChoiceCorrect.png","","null"
"image-button-response","425","581375","0.0-13.0-0.122","3","Low_HMMActual","","","","","","206","","","","Images/NewTrialBC.png","","0"
"image-button-response","426","581687","0.0-13.0-1.122","3","Low_HMMActual","","","","","","null","","","","Images/BlackBeadChoice.png","","null"
"image-button-response","427","582207","0.0-13.0-2.122","3","Low_HMMActual","","","","","","null","","","","Images/BlackBeadChoiceCorrect.png","","null"
"image-button-response","428","582359","0.0-13.0-0.123","3","Low_HMMActual","","","","","","150","","","","Images/NewTrialBC.png","","0"
"image-button-response","429","582667","0.0-13.0-1.123","3","Low_HMMActual","","","","","","null","","","","Images/BlackBeadChoice.png","","null"
"image-button-response","430","583187","0.0-13.0-2.123","3","Low_HMMActual","","","","","","494","","","","Images/BlackBeadChoiceCorrect.png","","0"
"image-button-response","431","584615","0.0-13.0-0.124","3","Low_HMMActual","","","","","","1425","","","","Images/NewTrialBC.png","","0"
"image-button-response","432","584927","0.0-13.0-1.124","3","Low_HMMActual","","","","","","null","","","","Images/BlackBeadChoice.png","","null"
"image-button-response","433","585433","0.0-13.0-2.124","3","Low_HMMActual","","","","","","null","","","","Images/BlackBeadChoiceWrong.png","","null"
"image-button-response","434","587071","0.0-13.0-0.125","3","Low_HMMActual","","","","","","1634","","","","Images/NewTrialWC.png","","0"
"image-button-response","435","587386","0.0-13.0-1.125","3","Low_HMMActual","","","","","","null","","","","Images/BlackBeadChoice.png","","null"
"image-button-response","436","587907","0.0-13.0-2.125","3","Low_HMMActual","","","","","","null","","","","Images/BlackBeadChoiceCorrect.png","","null"
"image-button-response","437","588263","0.0-13.0-0.126","3","Low_HMMActual","","","","","","352","","","","Images/NewTrialBC.png","","0"
"image-button-response","438","588568","0.0-13.0-1.126","3","Low_HMMActual","","","","","","null","","","","Images/BlackBeadChoice.png","","null"
"image-button-response","439","589087","0.0-13.0-2.126","3","Low_HMMActual","","","","","","null","","","","Images/BlackBeadChoiceCorrect.png","","null"
"image-button-response","440","589367","0.0-13.0-0.127","3","Low_HMMActual","","","","","","276","","","","Images/NewTrialBC.png","","0"
"image-button-response","441","589687","0.0-13.0-1.127","3","Low_HMMActual","","","","","","null","","","","Images/BlackBeadChoice.png","","null"
"image-button-response","442","590198","0.0-13.0-2.127","3","Low_HMMActual","","","","","","null","","","","Images/BlackBeadChoiceCorrect.png","","null"
"image-button-response","443","590855","0.0-13.0-0.128","3","Low_HMMActual","","","","","","656","","","","Images/NewTrialBC.png","","3"
"image-button-response","444","591165","0.0-13.0-1.128","3","Low_HMMActual","","","","","","null","","","","Images/WhiteBeadChoice.png","","null"
"image-button-response","445","591677","0.0-13.0-2.128","3","Low_HMMActual","","","","","","null","","","","Images/WhiteBeadChoiceWrong.png","","null"
"image-button-response","446","592838","0.0-13.0-0.129","3","Low_HMMActual","","","","","","1159","","","","Images/NewTrialBC.png","","3"
"image-button-response","447","593147","0.0-13.0-1.129","3","Low_HMMActual","","","","","","null","","","","Images/WhiteBeadChoice.png","","null"
"image-button-response","448","593657","0.0-13.0-2.129","3","Low_HMMActual","","","","","","null","","","","Images/WhiteBeadChoiceWrong.png","","null"
"image-button-response","449","593903","0.0-13.0-0.130","3","Low_HMMActual","","","","","","242","","","","Images/NewTrialBC.png","","0"
"image-button-response","450","594217","0.0-13.0-1.130","3","Low_HMMActual","","","","","","null","","","","Images/BlackBeadChoice.png","","null"
"image-button-response","451","594730","0.0-13.0-2.130","3","Low_HMMActual","","","","","","null","","","","Images/BlackBeadChoiceCorrect.png","","null"
"image-button-response","452","596023","0.0-13.0-0.131","3","Low_HMMActual","","","","","","1291","","","","Images/NewTrialBC.png","","0"
"image-button-response","453","596337","0.0-13.0-1.131","3","Low_HMMActual","","","","","","null","","","","Images/BlackBeadChoice.png","","null"
"image-button-response","454","596845","0.0-13.0-2.131","3","Low_HMMActual","","","","","","null","","","","Images/BlackBeadChoiceCorrect.png","","null"
"image-button-response","455","597607","0.0-13.0-0.132","3","Low_HMMActual","","","","","","759","","","","Images/NewTrialBC.png","","3"
"image-button-response","456","597912","0.0-13.0-1.132","3","Low_HMMActual","","","","","","null","","","","Images/WhiteBeadChoice.png","","null"
"image-button-response","457","598417","0.0-13.0-2.132","3","Low_HMMActual","","","","","","null","","","","Images/WhiteBeadChoiceWrong.png","","null"
"image-button-response","458","598886","0.0-13.0-0.133","3","Low_HMMActual","","","","","","468","","","","Images/NewTrialBC.png","","0"
"image-button-response","459","599197","0.0-13.0-1.133","3","Low_HMMActual","","","","","","null","","","","Images/BlackBeadChoice.png","","null"
"image-button-response","460","599717","0.0-13.0-2.133","3","Low_HMMActual","","","","","","null","","","","Images/BlackBeadChoiceCorrect.png","","null"
"image-button-response","461","600222","0.0-13.0-0.134","3","Low_HMMActual","","","","","","504","","","","Images/NewTrialBC.png","","0"
"image-button-response","462","600537","0.0-13.0-1.134","3","Low_HMMActual","","","","","","null","","","","Images/BlackBeadChoice.png","","null"
"image-button-response","463","601053","0.0-13.0-2.134","3","Low_HMMActual","","","","","","null","","","","Images/BlackBeadChoiceWrong.png","","null"
"image-button-response","464","602398","0.0-13.0-0.135","3","Low_HMMActual","","","","","","1345","","","","Images/NewTrialWC.png","","0"
"image-button-response","465","602717","0.0-13.0-1.135","3","Low_HMMActual","","","","","","null","","","","Images/BlackBeadChoice.png","","null"
"image-button-response","466","603228","0.0-13.0-2.135","3","Low_HMMActual","","","","","","null","","","","Images/BlackBeadChoiceCorrect.png","","null"
"image-button-response","467","603583","0.0-13.0-0.136","3","Low_HMMActual","","","","","","350","","","","Images/NewTrialBC.png","","0"
"image-button-response","468","603887","0.0-13.0-1.136","3","Low_HMMActual","","","","","","null","","","","Images/BlackBeadChoice.png","","null"
"image-button-response","469","604406","0.0-13.0-2.136","3","Low_HMMActual","","","","","","null","","","","Images/BlackBeadChoiceCorrect.png","","null"
"image-button-response","470","604887","0.0-13.0-0.137","3","Low_HMMActual","","","","","","476","","","","Images/NewTrialBC.png","","0"
"image-button-response","471","605207","0.0-13.0-1.137","3","Low_HMMActual","","","","","","null","","","","Images/BlackBeadChoice.png","","null"
"image-button-response","472","605727","0.0-13.0-2.137","3","Low_HMMActual","","","","","","null","","","","Images/BlackBeadChoiceWrong.png","","null"
"image-button-response","473","607087","0.0-13.0-0.138","3","Low_HMMActual","","","","","","1357","","","","Images/NewTrialWC.png","","0"
"image-button-response","474","607407","0.0-13.0-1.138","3","Low_HMMActual","","","","","","null","","","","Images/BlackBeadChoice.png","","null"
"image-button-response","475","607927","0.0-13.0-2.138","3","Low_HMMActual","","","","","","null","","","","Images/BlackBeadChoiceWrong.png","","null"
"image-button-response","476","609015","0.0-13.0-0.139","3","Low_HMMActual","","","","","","1085","","","","Images/NewTrialWC.png","","3"
"image-button-response","477","609327","0.0-13.0-1.139","3","Low_HMMActual","","","","","","null","","","","Images/WhiteBeadChoice.png","","null"
"image-button-response","478","609842","0.0-13.0-2.139","3","Low_HMMActual","","","","","","null","","","","Images/WhiteBeadChoiceWrong.png","","null"
"image-button-response","479","611631","0.0-13.0-0.140","3","Low_HMMActual","","","","","","1787","","","","Images/NewTrialBC.png","","3"
"image-button-response","480","611941","0.0-13.0-1.140","3","Low_HMMActual","","","","","","null","","","","Images/WhiteBeadChoice.png","","null"
"image-button-response","481","612446","0.0-13.0-2.140","3","Low_HMMActual","","","","","","null","","","","Images/WhiteBeadChoiceCorrect.png","","null"
"image-button-response","482","613766","0.0-13.0-0.141","3","Low_HMMActual","","","","","","1317","","","","Images/NewTrialWC.png","","0"
"image-button-response","483","614087","0.0-13.0-1.141","3","Low_HMMActual","","","","","","null","","","","Images/BlackBeadChoice.png","","null"
"image-button-response","484","614607","0.0-13.0-2.141","3","Low_HMMActual","","","","","","null","","","","Images/BlackBeadChoiceCorrect.png","","null"
"image-button-response","485","614998","0.0-13.0-0.142","3","Low_HMMActual","","","","","","389","","","","Images/NewTrialBC.png","","0"
"image-button-response","486","615306","0.0-13.0-1.142","3","Low_HMMActual","","","","","","null","","","","Images/BlackBeadChoice.png","","null"
"image-button-response","487","615827","0.0-13.0-2.142","3","Low_HMMActual","","","","","","null","","","","Images/BlackBeadChoiceCorrect.png","","null"
"image-button-response","488","616239","0.0-13.0-0.143","3","Low_HMMActual","","","","","","407","","","","Images/NewTrialBC.png","","0"
"image-button-response","489","616547","0.0-13.0-1.143","3","Low_HMMActual","","","","","","null","","","","Images/BlackBeadChoice.png","","null"
"image-button-response","490","617068","0.0-13.0-2.143","3","Low_HMMActual","","","","","","null","","","","Images/BlackBeadChoiceCorrect.png","","null"
"image-button-response","491","617510","0.0-13.0-0.144","3","Low_HMMActual","","","","","","441","","","","Images/NewTrialBC.png","","0"
"image-button-response","492","617827","0.0-13.0-1.144","3","Low_HMMActual","","","","","","null","","","","Images/BlackBeadChoice.png","","null"
"image-button-response","493","618347","0.0-13.0-2.144","3","Low_HMMActual","","","","","","null","","","","Images/BlackBeadChoiceCorrect.png","","null"
"image-button-response","494","618687","0.0-13.0-0.145","3","Low_HMMActual","","","","","","338","","","","Images/NewTrialBC.png","","0"
"image-button-response","495","619007","0.0-13.0-1.145","3","Low_HMMActual","","","","","","null","","","","Images/BlackBeadChoice.png","","null"
"image-button-response","496","619527","0.0-13.0-2.145","3","Low_HMMActual","","","","","","null","","","","Images/BlackBeadChoiceWrong.png","","null"
"image-button-response","497","621807","0.0-13.0-0.146","3","Low_HMMActual","","","","","","2277","","","","Images/NewTrialWC.png","","1"
"image-button-response","498","622117","0.0-13.0-1.146","3","Low_HMMActual","","","","","","null","","","","Images/BlackBeadChoice.png","","null"
"image-button-response","499","622620","0.0-13.0-2.146","3","Low_HMMActual","","","","","","null","","","","Images/BlackBeadChoiceCorrect.png","","null"
"image-button-response","500","623230","0.0-13.0-0.147","3","Low_HMMActual","","","","","","609","","","","Images/NewTrialBC.png","","0"
"image-button-response","501","623537","0.0-13.0-1.147","3","Low_HMMActual","","","","","","null","","","","Images/BlackBeadChoice.png","","null"
"image-button-response","502","624057","0.0-13.0-2.147","3","Low_HMMActual","","","","","","null","","","","Images/BlackBeadChoiceWrong.png","","null"
"image-button-response","503","624847","0.0-13.0-0.148","3","Low_HMMActual","","","","","","788","","","","Images/NewTrialWC.png","","0"
"image-button-response","504","625157","0.0-13.0-1.148","3","Low_HMMActual","","","","","","null","","","","Images/BlackBeadChoice.png","","null"
"image-button-response","505","625677","0.0-13.0-2.148","3","Low_HMMActual","","","","","","null","","","","Images/BlackBeadChoiceCorrect.png","","null"
"image-button-response","506","626895","0.0-13.0-0.149","3","Low_HMMActual","","","","","","1217","","","","Images/NewTrialBC.png","","0"
"image-button-response","507","627198","0.0-13.0-1.149","3","Low_HMMActual","","","","","","null","","","","Images/BlackBeadChoice.png","","null"
"image-button-response","508","627717","0.0-13.0-2.149","3","Low_HMMActual","","","","","","null","","","","Images/BlackBeadChoiceCorrect.png","","null"
"image-button-response","509","628071","0.0-13.0-0.150","3","Low_HMMActual","","","","","","352","","","","Images/NewTrialBC.png","","0"
"image-button-response","510","628377","0.0-13.0-1.150","3","Low_HMMActual","","","","","","null","","","","Images/BlackBeadChoice.png","","null"
"image-button-response","511","628897","0.0-13.0-2.150","3","Low_HMMActual","","","","","","null","","","","Images/BlackBeadChoiceCorrect.png","","null"
"image-button-response","512","629702","0.0-13.0-0.151","3","Low_HMMActual","","","","","","804","","","","Images/NewTrialBC.png","","0"
"image-button-response","513","630017","0.0-13.0-1.151","3","Low_HMMActual","","","","","","null","","","","Images/BlackBeadChoice.png","","null"
"image-button-response","514","630537","0.0-13.0-2.151","3","Low_HMMActual","","","","","","null","","","","Images/BlackBeadChoiceCorrect.png","","null"
"image-button-response","515","631118","0.0-13.0-0.152","3","Low_HMMActual","","","","","","581","","","","Images/NewTrialBC.png","","0"
"image-button-response","516","631427","0.0-13.0-1.152","3","Low_HMMActual","","","","","","null","","","","Images/BlackBeadChoice.png","","null"
"image-button-response","517","631947","0.0-13.0-2.152","3","Low_HMMActual","","","","","","null","","","","Images/BlackBeadChoiceWrong.png","","null"
"image-button-response","518","634287","0.0-13.0-0.153","3","Low_HMMActual","","","","","","2338","","","","Images/NewTrialWC.png","","1"
"image-button-response","519","634606","0.0-13.0-1.153","3","Low_HMMActual","","","","","","null","","","","Images/BlackBeadChoice.png","","null"
"image-button-response","520","635116","0.0-13.0-2.153","3","Low_HMMActual","","","","","","null","","","","Images/BlackBeadChoiceCorrect.png","","null"
"image-button-response","521","635743","0.0-13.0-0.154","3","Low_HMMActual","","","","","","624","","","","Images/NewTrialBC.png","","0"
"image-button-response","522","636047","0.0-13.0-1.154","3","Low_HMMActual","","","","","","null","","","","Images/BlackBeadChoice.png","","null"
"image-button-response","523","636566","0.0-13.0-2.154","3","Low_HMMActual","","","","","","null","","","","Images/BlackBeadChoiceCorrect.png","","null"
"image-button-response","524","636886","0.0-13.0-0.155","3","Low_HMMActual","","","","","","319","","","","Images/NewTrialBC.png","","0"
"image-button-response","525","637208","0.0-13.0-1.155","3","Low_HMMActual","","","","","","null","","","","Images/BlackBeadChoice.png","","null"
"image-button-response","526","637727","0.0-13.0-2.155","3","Low_HMMActual","","","","","","null","","","","Images/BlackBeadChoiceCorrect.png","","null"
"image-button-response","527","638127","0.0-13.0-0.156","3","Low_HMMActual","","","","","","398","","","","Images/NewTrialBC.png","","0"
"image-button-response","528","638432","0.0-13.0-1.156","3","Low_HMMActual","","","","","","null","","","","Images/BlackBeadChoice.png","","null"
"image-button-response","529","638937","0.0-13.0-2.156","3","Low_HMMActual","","","","","","null","","","","Images/BlackBeadChoiceWrong.png","","null"
"image-button-response","530","641495","0.0-13.0-0.157","3","Low_HMMActual","","","","","","2556","","","","Images/NewTrialWC.png","","0"
"image-button-response","531","641797","0.0-13.0-1.157","3","Low_HMMActual","","","","","","null","","","","Images/BlackBeadChoice.png","","null"
"image-button-response","532","642318","0.0-13.0-2.157","3","Low_HMMActual","","","","","","null","","","","Images/BlackBeadChoiceWrong.png","","null"
"image-button-response","533","643726","0.0-13.0-0.158","3","Low_HMMActual","","","","","","1407","","","","Images/NewTrialWC.png","","1"
"image-button-response","534","644037","0.0-13.0-1.158","3","Low_HMMActual","","","","","","null","","","","Images/BlackBeadChoice.png","","null"
"image-button-response","535","644546","0.0-13.0-2.158","3","Low_HMMActual","","","","","","null","","","","Images/BlackBeadChoiceWrong.png","","null"
"image-button-response","536","644950","0.0-13.0-0.159","3","Low_HMMActual","","","","","","404","","","","Images/NewTrialWC.png","","2"
"image-button-response","537","645256","0.0-13.0-1.159","3","Low_HMMActual","","","","","","null","","","","Images/WhiteBeadChoice.png","","null"
"image-button-response","538","645762","0.0-13.0-2.159","3","Low_HMMActual","","","","","","null","","","","Images/WhiteBeadChoiceWrong.png","","null"
"image-button-response","539","646350","0.0-13.0-0.160","3","Low_HMMActual","","","","","","586","","","","Images/NewTrialBC.png","","2"
"image-button-response","540","646657","0.0-13.0-1.160","3","Low_HMMActual","","","","","","null","","","","Images/WhiteBeadChoice.png","","null"
"image-button-response","541","647177","0.0-13.0-2.160","3","Low_HMMActual","","","","","","null","","","","Images/WhiteBeadChoiceWrong.png","","null"
"image-button-response","542","648118","0.0-13.0-0.161","3","Low_HMMActual","","","","","","941","","","","Images/NewTrialBC.png","","2"
"image-button-response","543","648438","0.0-13.0-1.161","3","Low_HMMActual","","","","","","null","","","","Images/WhiteBeadChoice.png","","null"
"image-button-response","544","648957","0.0-13.0-2.161","3","Low_HMMActual","","","","","","null","","","","Images/WhiteBeadChoiceWrong.png","","null"
"image-button-response","545","649503","0.0-13.0-0.162","3","Low_HMMActual","","","","","","541","","","","Images/NewTrialBC.png","","0"
"image-button-response","546","649816","0.0-13.0-1.162","3","Low_HMMActual","","","","","","null","","","","Images/BlackBeadChoice.png","","null"
"image-button-response","547","650338","0.0-13.0-2.162","3","Low_HMMActual","","","","","","null","","","","Images/BlackBeadChoiceCorrect.png","","null"
"image-button-response","548","650727","0.0-13.0-0.163","3","Low_HMMActual","","","","","","386","","","","Images/NewTrialBC.png","","0"
"image-button-response","549","651037","0.0-13.0-1.163","3","Low_HMMActual","","","","","","null","","","","Images/BlackBeadChoice.png","","null"
"image-button-response","550","651557","0.0-13.0-2.163","3","Low_HMMActual","","","","","","null","","","","Images/BlackBeadChoiceWrong.png","","null"
"image-button-response","551","653270","0.0-13.0-0.164","3","Low_HMMActual","","","","","","1710","","","","Images/NewTrialWC.png","","0"
"image-button-response","552","653577","0.0-13.0-1.164","3","Low_HMMActual","","","","","","null","","","","Images/BlackBeadChoice.png","","null"
"image-button-response","553","654097","0.0-13.0-2.164","3","Low_HMMActual","","","","","","null","","","","Images/BlackBeadChoiceCorrect.png","","null"
"image-button-response","554","654455","0.0-13.0-0.165","3","Low_HMMActual","","","","","","356","","","","Images/NewTrialBC.png","","0"
"image-button-response","555","654777","0.0-13.0-1.165","3","Low_HMMActual","","","","","","null","","","","Images/BlackBeadChoice.png","","null"
"image-button-response","556","655297","0.0-13.0-2.165","3","Low_HMMActual","","","","","","null","","","","Images/BlackBeadChoiceCorrect.png","","null"
"image-button-response","557","655679","0.0-13.0-0.166","3","Low_HMMActual","","","","","","378","","","","Images/NewTrialBC.png","","0"
"image-button-response","558","655997","0.0-13.0-1.166","3","Low_HMMActual","","","","","","null","","","","Images/BlackBeadChoice.png","","null"
"image-button-response","559","656516","0.0-13.0-2.166","3","Low_HMMActual","","","","","","null","","","","Images/BlackBeadChoiceCorrect.png","","null"
"image-button-response","560","657679","0.0-13.0-0.167","3","Low_HMMActual","","","","","","1159","","","","Images/NewTrialBC.png","","0"
"image-button-response","561","657997","0.0-13.0-1.167","3","Low_HMMActual","","","","","","null","","","","Images/BlackBeadChoice.png","","null"
"image-button-response","562","658509","0.0-13.0-2.167","3","Low_HMMActual","","","","","","null","","","","Images/BlackBeadChoiceCorrect.png","","null"
"image-button-response","563","659542","0.0-13.0-0.168","3","Low_HMMActual","","","","","","1031","","","","Images/NewTrialBC.png","","3"
"image-button-response","564","659847","0.0-13.0-1.168","3","Low_HMMActual","","","","","","null","","","","Images/WhiteBeadChoice.png","","null"
"image-button-response","565","660358","0.0-13.0-2.168","3","Low_HMMActual","","","","","","null","","","","Images/WhiteBeadChoiceWrong.png","","null"
"image-button-response","566","661295","0.0-13.0-0.169","3","Low_HMMActual","","","","","","935","","","","Images/NewTrialBC.png","","3"
"image-button-response","567","661607","0.0-13.0-1.169","3","Low_HMMActual","","","","","","null","","","","Images/WhiteBeadChoice.png","","null"
"image-button-response","568","662124","0.0-13.0-2.169","3","Low_HMMActual","","","","","","null","","","","Images/WhiteBeadChoiceWrong.png","","null"
"image-button-response","569","662462","0.0-13.0-0.170","3","Low_HMMActual","","","","","","336","","","","Images/NewTrialBC.png","","0"
"image-button-response","570","662767","0.0-13.0-1.170","3","Low_HMMActual","","","","","","null","","","","Images/BlackBeadChoice.png","","null"
"image-button-response","571","663287","0.0-13.0-2.170","3","Low_HMMActual","","","","","","null","","","","Images/BlackBeadChoiceWrong.png","","null"
"image-button-response","572","668927","0.0-13.0-0.171","3","Low_HMMActual","","","","","","5638","","","","Images/NewTrialWC.png","","3"
"image-button-response","573","669247","0.0-13.0-1.171","3","Low_HMMActual","","","","","","null","","","","Images/WhiteBeadChoice.png","","null"
"image-button-response","574","669754","0.0-13.0-2.171","3","Low_HMMActual","","","","","","null","","","","Images/WhiteBeadChoiceWrong.png","","null"
"image-button-response","575","670295","0.0-13.0-0.172","3","Low_HMMActual","","","","","","539","","","","Images/NewTrialBC.png","","0"
"image-button-response","576","670607","0.0-13.0-1.172","3","Low_HMMActual","","","","","","null","","","","Images/BlackBeadChoice.png","","null"
"image-button-response","577","671127","0.0-13.0-2.172","3","Low_HMMActual","","","","","","null","","","","Images/BlackBeadChoiceCorrect.png","","null"
"image-button-response","578","671398","0.0-13.0-0.173","3","Low_HMMActual","","","","","","270","","","","Images/NewTrialBC.png","","0"
"image-button-response","579","671711","0.0-13.0-1.173","3","Low_HMMActual","","","","","","null","","","","Images/BlackBeadChoice.png","","null"
"image-button-response","580","672230","0.0-13.0-2.173","3","Low_HMMActual","","","","","","null","","","","Images/BlackBeadChoiceWrong.png","","null"
"image-button-response","581","673591","0.0-13.0-0.174","3","Low_HMMActual","","","","","","1356","","","","Images/NewTrialWC.png","","0"
"image-button-response","582","673901","0.0-13.0-1.174","3","Low_HMMActual","","","","","","null","","","","Images/BlackBeadChoice.png","","null"
"image-button-response","583","674419","0.0-13.0-2.174","3","Low_HMMActual","","","","","","null","","","","Images/BlackBeadChoiceCorrect.png","","null"
"image-button-response","584","675086","0.0-13.0-0.175","3","Low_HMMActual","","","","","","666","","","","Images/NewTrialBC.png","","0"
"image-button-response","585","675400","0.0-13.0-1.175","3","Low_HMMActual","","","","","","null","","","","Images/BlackBeadChoice.png","","null"
"image-button-response","586","675921","0.0-13.0-2.175","3","Low_HMMActual","","","","","","null","","","","Images/BlackBeadChoiceWrong.png","","null"
"image-button-response","587","684751","0.0-13.0-0.176","3","Low_HMMActual","","","","","","8826","","","","Images/NewTrialWC.png","","3"
"image-button-response","588","685070","0.0-13.0-1.176","3","Low_HMMActual","","","","","","null","","","","Images/WhiteBeadChoice.png","","null"
"image-button-response","589","685583","0.0-13.0-2.176","3","Low_HMMActual","","","","","","null","","","","Images/WhiteBeadChoiceWrong.png","","null"
"image-button-response","590","686631","0.0-13.0-0.177","3","Low_HMMActual","","","","","","1047","","","","Images/NewTrialBC.png","","0"
"image-button-response","591","686950","0.0-13.0-1.177","3","Low_HMMActual","","","","","","null","","","","Images/BlackBeadChoice.png","","null"
"image-button-response","592","687470","0.0-13.0-2.177","3","Low_HMMActual","","","","","","null","","","","Images/BlackBeadChoiceCorrect.png","","null"
"image-button-response","593","687727","0.0-13.0-0.178","3","Low_HMMActual","","","","","","254","","","","Images/NewTrialBC.png","","0"
"image-button-response","594","688030","0.0-13.0-1.178","3","Low_HMMActual","","","","","","null","","","","Images/BlackBeadChoice.png","","null"
"image-button-response","595","688550","0.0-13.0-2.178","3","Low_HMMActual","","","","","","null","","","","Images/BlackBeadChoiceWrong.png","","null"
"image-button-response","596","689927","0.0-13.0-0.179","3","Low_HMMActual","","","","","","1375","","","","Images/NewTrialWC.png","","1"
"image-button-response","597","690230","0.0-13.0-1.179","3","Low_HMMActual","","","","","","null","","","","Images/BlackBeadChoice.png","","null"
"image-button-response","598","690748","0.0-13.0-2.179","3","Low_HMMActual","","","","","","null","","","","Images/BlackBeadChoiceCorrect.png","","null"
"image-button-response","599","691406","0.0-13.0-0.180","3","Low_HMMActual","","","","","","658","","","","Images/NewTrialBC.png","","0"
"image-button-response","600","691711","0.0-13.0-1.180","3","Low_HMMActual","","","","","","null","","","","Images/BlackBeadChoice.png","","null"
"image-button-response","601","692230","0.0-13.0-2.180","3","Low_HMMActual","","","","","","null","","","","Images/BlackBeadChoiceWrong.png","","null"
"image-button-response","602","693303","0.0-13.0-0.181","3","Low_HMMActual","","","","","","1067","","","","Images/NewTrialWC.png","","1"
"image-button-response","603","693609","0.0-13.0-1.181","3","Low_HMMActual","","","","","","null","","","","Images/BlackBeadChoice.png","","null"
"image-button-response","604","694112","0.0-13.0-2.181","3","Low_HMMActual","","","","","","null","","","","Images/BlackBeadChoiceWrong.png","","null"
"image-button-response","605","694846","0.0-13.0-0.182","3","Low_HMMActual","","","","","","732","","","","Images/NewTrialWC.png","","2"
"image-button-response","606","695150","0.0-13.0-1.182","3","Low_HMMActual","","","","","","null","","","","Images/WhiteBeadChoice.png","","null"
"image-button-response","607","695669","0.0-13.0-2.182","3","Low_HMMActual","","","","","","null","","","","Images/WhiteBeadChoiceCorrect.png","","null"
"image-button-response","608","696487","0.0-13.0-0.183","3","Low_HMMActual","","","","","","816","","","","Images/NewTrialWC.png","","2"
"image-button-response","609","696791","0.0-13.0-1.183","3","Low_HMMActual","","","","","","null","","","","Images/WhiteBeadChoice.png","","null"
"image-button-response","610","697310","0.0-13.0-2.183","3","Low_HMMActual","","","","","","null","","","","Images/WhiteBeadChoiceCorrect.png","","null"
"image-button-response","611","698663","0.0-13.0-0.184","3","Low_HMMActual","","","","","","1349","","","","Images/NewTrialWC.png","","2"
"image-button-response","612","698970","0.0-13.0-1.184","3","Low_HMMActual","","","","","","null","","","","Images/WhiteBeadChoice.png","","null"
"image-button-response","613","699490","0.0-13.0-2.184","3","Low_HMMActual","","","","","","null","","","","Images/WhiteBeadChoiceCorrect.png","","null"
"image-button-response","614","702302","0.0-13.0-0.185","3","Low_HMMActual","","","","","","2811","","","","Images/NewTrialWC.png","","0"
"image-button-response","615","702610","0.0-13.0-1.185","3","Low_HMMActual","","","","","","null","","","","Images/BlackBeadChoice.png","","null"
"image-button-response","616","703119","0.0-13.0-2.185","3","Low_HMMActual","","","","","","null","","","","Images/BlackBeadChoiceCorrect.png","","null"
"image-button-response","617","706007","0.0-13.0-0.186","3","Low_HMMActual","","","","","","2884","","","","Images/NewTrialBC.png","","2"
"image-button-response","618","706320","0.0-13.0-1.186","3","Low_HMMActual","","","","","","null","","","","Images/WhiteBeadChoice.png","","null"
"image-button-response","619","706840","0.0-13.0-2.186","3","Low_HMMActual","","","","","","null","","","","Images/WhiteBeadChoiceCorrect.png","","null"
"image-button-response","620","707359","0.0-13.0-0.187","3","Low_HMMActual","","","","","","516","","","","Images/NewTrialWC.png","","2"
"image-button-response","621","707680","0.0-13.0-1.187","3","Low_HMMActual","","","","","","null","","","","Images/WhiteBeadChoice.png","","null"
"image-button-response","622","708199","0.0-13.0-2.187","3","Low_HMMActual","","","","","","null","","","","Images/WhiteBeadChoiceWrong.png","","null"
"image-button-response","623","708807","0.0-13.0-0.188","3","Low_HMMActual","","","","","","606","","","","Images/NewTrialBC.png","","2"
"image-button-response","624","709120","0.0-13.0-1.188","3","Low_HMMActual","","","","","","null","","","","Images/WhiteBeadChoice.png","","null"
"image-button-response","625","709640","0.0-13.0-2.188","3","Low_HMMActual","","","","","","null","","","","Images/WhiteBeadChoiceCorrect.png","","null"
"image-button-response","626","710502","0.0-13.0-0.189","3","Low_HMMActual","","","","","","861","","","","Images/NewTrialWC.png","","2"
"image-button-response","627","710820","0.0-13.0-1.189","3","Low_HMMActual","","","","","","null","","","","Images/WhiteBeadChoice.png","","null"
"image-button-response","628","711340","0.0-13.0-2.189","3","Low_HMMActual","","","","","","null","","","","Images/WhiteBeadChoiceCorrect.png","","null"
"image-button-response","629","711951","0.0-13.0-0.190","3","Low_HMMActual","","","","","","611","","","","Images/NewTrialWC.png","","2"
"image-button-response","630","712260","0.0-13.0-1.190","3","Low_HMMActual","","","","","","null","","","","Images/WhiteBeadChoice.png","","null"
"image-button-response","631","712780","0.0-13.0-2.190","3","Low_HMMActual","","","","","","null","","","","Images/WhiteBeadChoiceCorrect.png","","null"
"image-button-response","632","713959","0.0-13.0-0.191","3","Low_HMMActual","","","","","","1177","","","","Images/NewTrialWC.png","","0"
"image-button-response","633","714274","0.0-13.0-1.191","3","Low_HMMActual","","","","","","null","","","","Images/BlackBeadChoice.png","","null"
"image-button-response","634","714780","0.0-13.0-2.191","3","Low_HMMActual","","","","","","null","","","","Images/BlackBeadChoiceWrong.png","","null"
"image-button-response","635","715799","0.0-13.0-0.192","3","Low_HMMActual","","","","","","1013","","","","Images/NewTrialWC.png","","0"
"image-button-response","636","716120","0.0-13.0-1.192","3","Low_HMMActual","","","","","","null","","","","Images/BlackBeadChoice.png","","null"
"image-button-response","637","716640","0.0-13.0-2.192","3","Low_HMMActual","","","","","","null","","","","Images/BlackBeadChoiceWrong.png","","null"
"image-button-response","638","718215","0.0-13.0-0.193","3","Low_HMMActual","","","","","","1571","","","","Images/NewTrialWC.png","","1"
"image-button-response","639","718519","0.0-13.0-1.193","3","Low_HMMActual","","","","","","null","","","","Images/BlackBeadChoice.png","","null"
"image-button-response","640","719038","0.0-13.0-2.193","3","Low_HMMActual","","","","","","null","","","","Images/BlackBeadChoiceWrong.png","","null"
"image-button-response","641","720279","0.0-13.0-0.194","3","Low_HMMActual","","","","","","1237","","","","Images/NewTrialWC.png","","1"
"image-button-response","642","720588","0.0-13.0-1.194","3","Low_HMMActual","","","","","","null","","","","Images/BlackBeadChoice.png","","null"
"image-button-response","643","721100","0.0-13.0-2.194","3","Low_HMMActual","","","","","","null","","","","Images/BlackBeadChoiceCorrect.png","","null"
"image-button-response","644","721751","0.0-13.0-0.195","3","Low_HMMActual","","","","","","647","","","","Images/NewTrialBC.png","","2"
"image-button-response","645","722060","0.0-13.0-1.195","3","Low_HMMActual","","","","","","null","","","","Images/WhiteBeadChoice.png","","null"
"image-button-response","646","722580","0.0-13.0-2.195","3","Low_HMMActual","","","","","","null","","","","Images/WhiteBeadChoiceWrong.png","","null"
"image-button-response","647","725142","0.0-13.0-0.196","3","Low_HMMActual","","","","","","2560","","","","Images/NewTrialBC.png","","2"
"image-button-response","648","725459","0.0-13.0-1.196","3","Low_HMMActual","","","","","","null","","","","Images/WhiteBeadChoice.png","","null"
"image-button-response","649","725980","0.0-13.0-2.196","3","Low_HMMActual","","","","","","null","","","","Images/WhiteBeadChoiceCorrect.png","","null"
"image-button-response","650","726447","0.0-13.0-0.197","3","Low_HMMActual","","","","","","465","","","","Images/NewTrialWC.png","","2"
"image-button-response","651","726750","0.0-13.0-1.197","3","Low_HMMActual","","","","","","null","","","","Images/WhiteBeadChoice.png","","null"
"image-button-response","652","727270","0.0-13.0-2.197","3","Low_HMMActual","","","","","","null","","","","Images/WhiteBeadChoiceCorrect.png","","null"
"image-button-response","653","727742","0.0-13.0-0.198","3","Low_HMMActual","","","","","","471","","","","Images/NewTrialWC.png","","2"
"image-button-response","654","728050","0.0-13.0-1.198","3","Low_HMMActual","","","","","","null","","","","Images/WhiteBeadChoice.png","","null"
"image-button-response","655","728570","0.0-13.0-2.198","3","Low_HMMActual","","","","","","null","","","","Images/WhiteBeadChoiceCorrect.png","","null"
"image-button-response","656","728903","0.0-13.0-0.199","3","Low_HMMActual","","","","","","330","","","","Images/NewTrialWC.png","","2"
"image-button-response","657","729210","0.0-13.0-1.199","3","Low_HMMActual","","","","","","null","","","","Images/WhiteBeadChoice.png","","null"
"image-button-response","658","729730","0.0-13.0-2.199","3","Low_HMMActual","","","","","","null","","","","Images/WhiteBeadChoiceCorrect.png","","null"
"image-button-response","659","729982","0.0-13.0-0.200","3","Low_HMMActual","","","","","","251","","","","Images/NewTrialWC.png","","2"
"image-button-response","660","730290","0.0-13.0-1.200","3","Low_HMMActual","","","","","","null","","","","Images/WhiteBeadChoice.png","","null"
"image-button-response","661","730809","0.0-13.0-2.200","3","Low_HMMActual","","","","","","null","","","","Images/WhiteBeadChoiceCorrect.png","","null"
"image-button-response","662","731070","0.0-13.0-0.201","3","Low_HMMActual","","","","","","259","","","","Images/NewTrialWC.png","","2"
"image-button-response","663","731390","0.0-13.0-1.201","3","Low_HMMActual","","","","","","null","","","","Images/WhiteBeadChoice.png","","null"
"image-button-response","664","731909","0.0-13.0-2.201","3","Low_HMMActual","","","","","","null","","","","Images/WhiteBeadChoiceCorrect.png","","null"
"image-button-response","665","732422","0.0-13.0-0.202","3","Low_HMMActual","","","","","","512","","","","Images/NewTrialWC.png","","2"
"image-button-response","666","732731","0.0-13.0-1.202","3","Low_HMMActual","","","","","","null","","","","Images/WhiteBeadChoice.png","","null"
"image-button-response","667","733250","0.0-13.0-2.202","3","Low_HMMActual","","","","","","null","","","","Images/WhiteBeadChoiceCorrect.png","","null"
"image-button-response","668","733759","0.0-13.0-0.203","3","Low_HMMActual","","","","","","504","","","","Images/NewTrialWC.png","","2"
"image-button-response","669","734070","0.0-13.0-1.203","3","Low_HMMActual","","","","","","null","","","","Images/WhiteBeadChoice.png","","null"
"image-button-response","670","734590","0.0-13.0-2.203","3","Low_HMMActual","","","","","","null","","","","Images/WhiteBeadChoiceCorrect.png","","null"
"image-button-response","671","735183","0.0-13.0-0.204","3","Low_HMMActual","","","","","","589","","","","Images/NewTrialWC.png","","2"
"image-button-response","672","735490","0.0-13.0-1.204","3","Low_HMMActual","","","","","","null","","","","Images/WhiteBeadChoice.png","","null"
"image-button-response","673","736009","0.0-13.0-2.204","3","Low_HMMActual","","","","","","null","","","","Images/WhiteBeadChoiceWrong.png","","null"
"image-button-response","674","737575","0.0-13.0-0.205","3","Low_HMMActual","","","","","","1563","","","","Images/NewTrialBC.png","","3"
"image-button-response","675","737880","0.0-13.0-1.205","3","Low_HMMActual","","","","","","null","","","","Images/WhiteBeadChoice.png","","null"
"image-button-response","676","738398","0.0-13.0-2.205","3","Low_HMMActual","","","","","","null","","","","Images/WhiteBeadChoiceCorrect.png","","null"
"image-button-response","677","738775","0.0-13.0-0.206","3","Low_HMMActual","","","","","","373","","","","Images/NewTrialWC.png","","2"
"image-button-response","678","739079","0.0-13.0-1.206","3","Low_HMMActual","","","","","","null","","","","Images/WhiteBeadChoice.png","","null"
"image-button-response","679","739599","0.0-13.0-2.206","3","Low_HMMActual","","","","","","null","","","","Images/WhiteBeadChoiceCorrect.png","","null"
"image-button-response","680","739974","0.0-13.0-0.207","3","Low_HMMActual","","","","","","373","","","","Images/NewTrialWC.png","","2"
"image-button-response","681","740279","0.0-13.0-1.207","3","Low_HMMActual","","","","","","null","","","","Images/WhiteBeadChoice.png","","null"
"image-button-response","682","740799","0.0-13.0-2.207","3","Low_HMMActual","","","","","","null","","","","Images/WhiteBeadChoiceCorrect.png","","null"
"image-button-response","683","741262","0.0-13.0-0.208","3","Low_HMMActual","","","","","","463","","","","Images/NewTrialWC.png","","2"
"image-button-response","684","741579","0.0-13.0-1.208","3","Low_HMMActual","","","","","","null","","","","Images/WhiteBeadChoice.png","","null"
"image-button-response","685","742099","0.0-13.0-2.208","3","Low_HMMActual","","","","","","null","","","","Images/WhiteBeadChoiceWrong.png","","null"
"image-button-response","686","744246","0.0-13.0-0.209","3","Low_HMMActual","","","","","","2144","","","","Images/NewTrialBC.png","","3"
"image-button-response","687","744561","0.0-13.0-1.209","3","Low_HMMActual","","","","","","null","","","","Images/WhiteBeadChoice.png","","null"
"image-button-response","688","745080","0.0-13.0-2.209","3","Low_HMMActual","","","","","","null","","","","Images/WhiteBeadChoiceCorrect.png","","null"
"image-button-response","689","745230","0.0-13.0-0.210","3","Low_HMMActual","","","","","","145","","","","Images/NewTrialWC.png","","2"
