"trial_type","trial_index","time_elapsed","internal_node_id","Script_Picker","Block_Type","success","timeout","failed_images","failed_audio","failed_video","rt","url","responses","question_order","stimulus","key_press","response"
"pavlovia","0","15","0.0-0.0","1","Low_HMMActual","","","","","","","","","","","",""
"preload","1","16","0.0-1.0","1","Low_HMMActual","true","false","[]","[]","[]","","","","","","",""
"external-html","2","19437","0.0-2.0-0.0","1","Low_HMMActual","","","","","","19356.424999998126","consent.html","","","","",""
"survey-multi-choice","3","26860","0.0-2.0-1.0","1","Low_HMMActual","","","","","","7421.855000000505","","{""Q0"":""Female"",""Q1"":""White""}","[0,1]","","",""
"survey-text","4","29140","0.0-2.0-2.0","1","Low_HMMActual","","","","","","2278.795000001992","","{""Q0"":""32""}","","","",""
"survey-text","5","32780","0.0-2.0-3.0","1","Low_HMMActual","","","","","","3532.1550000007846","","{""Q0"":""5d6fea4eb5656a00199cf0fe""}","","","",""
"image-keyboard-response","6","50373","0.0-3.0-0.0","1","Low_HMMActual","","","","","","17485.020000000077","","","","tutorial/tutorial1.png"," ",""
"image-keyboard-response","7","54628","0.0-3.0-0.1","1","Low_HMMActual","","","","","","4253.495000000839","","","","tutorial/tutorial2.png"," ",""
"image-keyboard-response","8","58148","0.0-3.0-0.2","1","Low_HMMActual","","","","","","3519.9199999988195","","","","tutorial/tutorial3.png"," ",""
"image-keyboard-response","9","60925","0.0-3.0-0.3","1","Low_HMMActual","","","","","","2775.9750000004715","","","","tutorial/tutorial4.png"," ",""
"image-keyboard-response","10","64684","0.0-3.0-0.4","1","Low_HMMActual","","","","","","3758.4200000019337","","","","tutorial/tutorial5.png"," ",""
"image-keyboard-response","11","84517","0.0-3.0-0.5","1","Low_HMMActual","","","","","","19831.92499999859","","","","tutorial/tutorial6.png"," ",""
"image-keyboard-response","12","95212","0.0-3.0-0.6","1","Low_HMMActual","","","","","","10694.569999999658","","","","tutorial/tutorial7.png"," ",""
"image-keyboard-response","13","126085","0.0-3.0-0.7","1","Low_HMMActual","","","","","","30872.21000000136","","","","tutorial/tutorial8.png"," ",""
"image-keyboard-response","14","139284","0.0-3.0-0.8","1","Low_HMMActual","","","","","","13198.484999997163","","","","tutorial/tutorial9.png"," ",""
"image-keyboard-response","15","149989","0.0-3.0-0.9","1","Low_HMMActual","","","","","","10703.555000000051","","","","tutorial/tutorial10.png"," ",""
"image-keyboard-response","16","157627","0.0-3.0-0.10","1","Low_HMMActual","","","","","","7638.199999997596","","","","tutorial/tutorial11.png"," ",""
"image-keyboard-response","17","162148","0.0-3.0-0.11","1","Low_HMMActual","","","","","","4519.9200000024575","","","","tutorial/tutorial12.png"," ",""
"image-keyboard-response","18","175436","0.0-3.0-0.12","1","Low_HMMActual","","","","","","13287.309999999707","","","","tutorial/tutorial13.png"," ",""
"image-keyboard-response","19","193676","0.0-3.0-0.13","1","Low_HMMActual","","","","","","18239.669999999023","","","","tutorial/tutorial14.png"," ",""
"image-keyboard-response","20","199211","0.0-3.0-0.14","1","Low_HMMActual","","","","","","5534.615000000485","","","","tutorial/tutorial15.png"," ",""
"image-keyboard-response","21","205988","0.0-4.0","1","Low_HMMActual","","","","","","6775.630000000092","","","","tutorial/tutorial16.png","arrowup",""
"image-keyboard-response","22","212539","0.0-5.0","1","Low_HMMActual","","","","","","4359.175000001414","","","","tutorial/tutorial17.png","arrowright",""
"image-keyboard-response","23","219195","0.0-6.0","1","Low_HMMActual","","","","","","5199.695000002976","","","","tutorial/tutorial18.png","arrowleft",""
"image-keyboard-response","24","244155","0.0-7.0","1","Low_HMMActual","","","","","","23239.92999999973","","","","tutorial/tutorial19.png"," ",""
"html-keyboard-response","25","259580","0.0-8.0","2","Low_HMMActual","","","","","","15422.850000002654","","","","<div class=""container"" style=""height:800px;width:800px;display:flex;flex-direction:column;justify-content:center;align-items:center;text-align:center;font-weight:normal;font-family:Arial;font-size:20px""><p>Loading episode&hellip;</p><div>"," ",""
"image-button-response","26","265932","0.0-9.0-0.0","2","Low_HMMActual","","","","","","6348.4150000003865","","","","Images/NoChoice.png","","1"
"image-button-response","27","266237","0.0-9.0-1.0","2","Low_HMMActual","","","","","","null","","","","Images/BlackBeadChoice.png","","null"
"image-button-response","28","266739","0.0-9.0-2.0","2","Low_HMMActual","","","","","","null","","","","Images/BlackBeadChoiceWrong.png","","null"
"image-button-response","29","269987","0.0-9.0-0.1","2","Low_HMMActual","","","","","","3238.519999998971","","","","Images/NewTrialWC.png","","2"
"image-button-response","30","270294","0.0-9.0-1.1","2","Low_HMMActual","","","","","","null","","","","Images/WhiteBeadChoice.png","","null"
"image-button-response","31","270810","0.0-9.0-2.1","2","Low_HMMActual","","","","","","null","","","","Images/WhiteBeadChoiceCorrect.png","","null"
"image-button-response","32","273411","0.0-9.0-0.2","2","Low_HMMActual","","","","","","2597.9799999986426","","","","Images/NewTrialWC.png","","2"
"image-button-response","33","273722","0.0-9.0-1.2","2","Low_HMMActual","","","","","","null","","","","Images/WhiteBeadChoice.png","","null"
"image-button-response","34","274232","0.0-9.0-2.2","2","Low_HMMActual","","","","","","null","","","","Images/WhiteBeadChoiceCorrect.png","","null"
"image-button-response","35","275283","0.0-9.0-0.3","2","Low_HMMActual","","","","","","1050.0150000007125","","","","Images/NewTrialWC.png","","2"
"image-button-response","36","275590","0.0-9.0-1.3","2","Low_HMMActual","","","","","","null","","","","Images/WhiteBeadChoice.png","","null"
"image-button-response","37","276101","0.0-9.0-2.3","2","Low_HMMActual","","","","","","null","","","","Images/WhiteBeadChoiceWrong.png","","null"
"image-button-response","38","279524","0.0-9.0-0.4","2","Low_HMMActual","","","","","","3421.184999999241","","","","Images/NewTrialBC.png","","1"
"image-button-response","39","279827","0.0-9.0-1.4","2","Low_HMMActual","","","","","","null","","","","Images/BlackBeadChoice.png","","null"
"image-button-response","40","280342","0.0-9.0-2.4","2","Low_HMMActual","","","","","","null","","","","Images/BlackBeadChoiceWrong.png","","null"
"image-button-response","41","284884","0.0-9.0-0.5","2","Low_HMMActual","","","","","","4540.510000002512","","","","Images/NewTrialWC.png","","3"
"image-button-response","42","285199","0.0-9.0-1.5","2","Low_HMMActual","","","","","","null","","","","Images/WhiteBeadChoice.png","","null"
"image-button-response","43","285706","0.0-9.0-2.5","2","Low_HMMActual","","","","","","null","","","","Images/WhiteBeadChoiceCorrect.png","","null"
"image-button-response","44","286804","0.0-9.0-0.6","2","Low_HMMActual","","","","","","1096.3499999997439","","","","Images/NewTrialWC.png","","2"
"image-button-response","45","287109","0.0-9.0-1.6","2","Low_HMMActual","","","","","","null","","","","Images/WhiteBeadChoice.png","","null"
"image-button-response","46","287612","0.0-9.0-2.6","2","Low_HMMActual","","","","","","null","","","","Images/WhiteBeadChoiceWrong.png","","null"
"image-button-response","47","290532","0.0-9.0-0.7","2","Low_HMMActual","","","","","","2918.3300000004238","","","","Images/NewTrialBC.png","","3"
"image-button-response","48","290837","0.0-9.0-1.7","2","Low_HMMActual","","","","","","null","","","","Images/WhiteBeadChoice.png","","null"
"image-button-response","49","291349","0.0-9.0-2.7","2","Low_HMMActual","","","","","","null","","","","Images/WhiteBeadChoiceCorrect.png","","null"
"image-button-response","50","292876","0.0-9.0-0.8","2","Low_HMMActual","","","","","","1525.8149999972666","","","","Images/NewTrialWC.png","","2"
"image-button-response","51","293188","0.0-9.0-1.8","2","Low_HMMActual","","","","","","null","","","","Images/WhiteBeadChoice.png","","null"
"image-button-response","52","293692","0.0-9.0-2.8","2","Low_HMMActual","","","","","","null","","","","Images/WhiteBeadChoiceWrong.png","","null"
"image-button-response","53","300557","0.0-9.0-0.9","2","Low_HMMActual","","","","","","6862.975000000035","","","","Images/NewTrialBC.png","","3"
"image-button-response","54","300862","0.0-9.0-1.9","2","Low_HMMActual","","","","","","null","","","","Images/WhiteBeadChoice.png","","null"
"image-button-response","55","301376","0.0-9.0-2.9","2","Low_HMMActual","","","","","","null","","","","Images/WhiteBeadChoiceCorrect.png","","null"
"html-keyboard-response","56","305381","0.0-10.0","2","Low_HMMActual","","","","","","4004.83499999973","","","",""," ",""
"image-keyboard-response","57","308460","0.0-11.0","2","Low_HMMActual","","","","","","3078.024999998859","","","","tutorial/tutorial20.png"," ",""
"html-keyboard-response","58","328820","0.0-12.0","3","Low_HMMActual","","","","","","20354.14999999921","","","","<div class=""container"" style=""height:800px;width:800px;display:flex;flex-direction:column;justify-content:center;align-items:center;text-align:center;font-weight:normal;font-family:Arial;font-size:20px""><p>Loading episode&hellip;</p><div>"," ",""
"image-button-response","59","330348","0.0-13.0-0.0","3","Low_HMMActual","","","","","","1527.3750000014552","","","","Images/NoChoice.png","","3"
"image-button-response","60","330654","0.0-13.0-1.0","3","Low_HMMActual","","","","","","null","","","","Images/WhiteBeadChoice.png","","null"
"image-button-response","61","331155","0.0-13.0-2.0","3","Low_HMMActual","","","","","","null","","","","Images/WhiteBeadChoiceCorrect.png","","null"
"image-button-response","62","332316","0.0-13.0-0.1","3","Low_HMMActual","","","","","","1160.330000002461","","","","Images/NewTrialWC.png","","2"
"image-button-response","63","332618","0.0-13.0-1.1","3","Low_HMMActual","","","","","","null","","","","Images/WhiteBeadChoice.png","","null"
"image-button-response","64","333120","0.0-13.0-2.1","3","Low_HMMActual","","","","","","null","","","","Images/WhiteBeadChoiceCorrect.png","","null"
"image-button-response","65","333892","0.0-13.0-0.2","3","Low_HMMActual","","","","","","770.4550000017043","","","","Images/NewTrialWC.png","","2"
"image-button-response","66","334206","0.0-13.0-1.2","3","Low_HMMActual","","","","","","null","","","","Images/WhiteBeadChoice.png","","null"
"image-button-response","67","334721","0.0-13.0-2.2","3","Low_HMMActual","","","","","","null","","","","Images/WhiteBeadChoiceCorrect.png","","null"
"image-button-response","68","335469","0.0-13.0-0.3","3","Low_HMMActual","","","","","","745.454999996582","","","","Images/NewTrialWC.png","","2"
"image-button-response","69","335783","0.0-13.0-1.3","3","Low_HMMActual","","","","","","null","","","","Images/WhiteBeadChoice.png","","null"
"image-button-response","70","336296","0.0-13.0-2.3","3","Low_HMMActual","","","","","","null","","","","Images/WhiteBeadChoiceCorrect.png","","null"
"image-button-response","71","336748","0.0-13.0-0.4","3","Low_HMMActual","","","","","","450.36999999865657","","","","Images/NewTrialWC.png","","2"
"image-button-response","72","337054","0.0-13.0-1.4","3","Low_HMMActual","","","","","","null","","","","Images/WhiteBeadChoice.png","","null"
"image-button-response","73","337560","0.0-13.0-2.4","3","Low_HMMActual","","","","","","null","","","","Images/WhiteBeadChoiceWrong.png","","null"
"image-button-response","74","340204","0.0-13.0-0.5","3","Low_HMMActual","","","","","","2642.9150000003865","","","","Images/NewTrialBC.png","","1"
"image-button-response","75","340505","0.0-13.0-1.5","3","Low_HMMActual","","","","","","null","","","","Images/BlackBeadChoice.png","","null"
"image-button-response","76","341011","0.0-13.0-2.5","3","Low_HMMActual","","","","","","null","","","","Images/BlackBeadChoiceWrong.png","","null"
"image-button-response","77","345468","0.0-13.0-0.6","3","Low_HMMActual","","","","","","4455.470000000787","","","","Images/NewTrialWC.png","","1"
"image-button-response","78","345769","0.0-13.0-1.6","3","Low_HMMActual","","","","","","null","","","","Images/BlackBeadChoice.png","","null"
"image-button-response","79","346271","0.0-13.0-2.6","3","Low_HMMActual","","","","","","null","","","","Images/BlackBeadChoiceWrong.png","","null"
"image-button-response","80","347204","0.0-13.0-0.7","3","Low_HMMActual","","","","","","930.255000002915","","","","Images/NewTrialWC.png","","3"
"image-button-response","81","347512","0.0-13.0-1.7","3","Low_HMMActual","","","","","","null","","","","Images/WhiteBeadChoice.png","","null"
"image-button-response","82","348014","0.0-13.0-2.7","3","Low_HMMActual","","","","","","null","","","","Images/WhiteBeadChoiceCorrect.png","","null"
"image-button-response","83","348588","0.0-13.0-0.8","3","Low_HMMActual","","","","","","572.7049999986775","","","","Images/NewTrialWC.png","","2"
"image-button-response","84","348905","0.0-13.0-1.8","3","Low_HMMActual","","","","","","null","","","","Images/WhiteBeadChoice.png","","null"
"image-button-response","85","349412","0.0-13.0-2.8","3","Low_HMMActual","","","","","","null","","","","Images/WhiteBeadChoiceWrong.png","","null"
"image-button-response","86","355372","0.0-13.0-0.9","3","Low_HMMActual","","","","","","5959.244999998249","","","","Images/NewTrialBC.png","","3"
"image-button-response","87","355684","0.0-13.0-1.9","3","Low_HMMActual","","","","","","null","","","","Images/WhiteBeadChoice.png","","null"
"image-button-response","88","356193","0.0-13.0-2.9","3","Low_HMMActual","","","","","","null","","","","Images/WhiteBeadChoiceWrong.png","","null"
"image-button-response","89","358820","0.0-13.0-0.10","3","Low_HMMActual","","","","","","2625.529999997467","","","","Images/NewTrialBC.png","","1"
"image-button-response","90","359122","0.0-13.0-1.10","3","Low_HMMActual","","","","","","null","","","","Images/BlackBeadChoice.png","","null"
"image-button-response","91","359628","0.0-13.0-2.10","3","Low_HMMActual","","","","","","null","","","","Images/BlackBeadChoiceCorrect.png","","null"
"image-button-response","92","360756","0.0-13.0-0.11","3","Low_HMMActual","","","","","","1126.9500000016997","","","","Images/NewTrialBC.png","","0"
"image-button-response","93","361066","0.0-13.0-1.11","3","Low_HMMActual","","","","","","null","","","","Images/BlackBeadChoice.png","","null"
"image-button-response","94","361567","0.0-13.0-2.11","3","Low_HMMActual","","","","","","null","","","","Images/BlackBeadChoiceWrong.png","","null"
"image-button-response","95","366596","0.0-13.0-0.12","3","Low_HMMActual","","","","","","5027.12000000244","","","","Images/NewTrialWC.png","","2"
"image-button-response","96","366906","0.0-13.0-1.12","3","Low_HMMActual","","","","","","null","","","","Images/WhiteBeadChoice.png","","null"
"image-button-response","97","367421","0.0-13.0-2.12","3","Low_HMMActual","","","","","","null","","","","Images/WhiteBeadChoiceCorrect.png","","null"
"image-button-response","98","371116","0.0-13.0-0.13","3","Low_HMMActual","","","","","","3693.264999998093","","","","Images/NewTrialWC.png","","2"
"image-button-response","99","371419","0.0-13.0-1.13","3","Low_HMMActual","","","","","","null","","","","Images/WhiteBeadChoice.png","","null"
"image-button-response","100","371930","0.0-13.0-2.13","3","Low_HMMActual","","","","","","null","","","","Images/WhiteBeadChoiceWrong.png","","null"
"image-button-response","101","382092","0.0-13.0-0.14","3","Low_HMMActual","","","","","","10160.814999999246","","","","Images/NewTrialBC.png","","2"
"image-button-response","102","382394","0.0-13.0-1.14","3","Low_HMMActual","","","","","","null","","","","Images/WhiteBeadChoice.png","","null"
"image-button-response","103","382896","0.0-13.0-2.14","3","Low_HMMActual","","","","","","null","","","","Images/WhiteBeadChoiceCorrect.png","","null"
"image-button-response","104","386436","0.0-13.0-0.15","3","Low_HMMActual","","","","","","3537.4900000024354","","","","Images/NewTrialWC.png","","2"
"image-button-response","105","386740","0.0-13.0-1.15","3","Low_HMMActual","","","","","","null","","","","Images/WhiteBeadChoice.png","","null"
"image-button-response","106","387253","0.0-13.0-2.15","3","Low_HMMActual","","","","","","null","","","","Images/WhiteBeadChoiceWrong.png","","null"
"image-button-response","107","389156","0.0-13.0-0.16","3","Low_HMMActual","","","","","","1900.2399999990012","","","","Images/NewTrialBC.png","","2"
"image-button-response","108","389458","0.0-13.0-1.16","3","Low_HMMActual","","","","","","null","","","","Images/WhiteBeadChoice.png","","null"
"image-button-response","109","389964","0.0-13.0-2.16","3","Low_HMMActual","","","","","","null","","","","Images/WhiteBeadChoiceCorrect.png","","null"
"image-button-response","110","391108","0.0-13.0-0.17","3","Low_HMMActual","","","","","","1142.4450000012876","","","","Images/NewTrialWC.png","","2"
"image-button-response","111","391415","0.0-13.0-1.17","3","Low_HMMActual","","","","","","null","","","","Images/WhiteBeadChoice.png","","null"
"image-button-response","112","391923","0.0-13.0-2.17","3","Low_HMMActual","","","","","","null","","","","Images/WhiteBeadChoiceCorrect.png","","null"
"image-button-response","113","392380","0.0-13.0-0.18","3","Low_HMMActual","","","","","","454.8850000028615","","","","Images/NewTrialWC.png","","2"
"image-button-response","114","392686","0.0-13.0-1.18","3","Low_HMMActual","","","","","","null","","","","Images/WhiteBeadChoice.png","","null"
"image-button-response","115","393191","0.0-13.0-2.18","3","Low_HMMActual","","","","","","null","","","","Images/WhiteBeadChoiceCorrect.png","","null"
"image-button-response","116","393564","0.0-13.0-0.19","3","Low_HMMActual","","","","","","370.8900000019348","","","","Images/NewTrialWC.png","","2"
"image-button-response","117","393874","0.0-13.0-1.19","3","Low_HMMActual","","","","","","null","","","","Images/WhiteBeadChoice.png","","null"
"image-button-response","118","394378","0.0-13.0-2.19","3","Low_HMMActual","","","","","","null","","","","Images/WhiteBeadChoiceWrong.png","","null"
"image-button-response","119","397460","0.0-13.0-0.20","3","Low_HMMActual","","","","","","3081.5849999999627","","","","Images/NewTrialBC.png","","3"
"image-button-response","120","397776","0.0-13.0-1.20","3","Low_HMMActual","","","","","","null","","","","Images/WhiteBeadChoice.png","","null"
"image-button-response","121","398284","0.0-13.0-2.20","3","Low_HMMActual","","","","","","null","","","","Images/WhiteBeadChoiceCorrect.png","","null"
"image-button-response","122","398996","0.0-13.0-0.21","3","Low_HMMActual","","","","","","711.104999998468","","","","Images/NewTrialWC.png","","2"
"image-button-response","123","399305","0.0-13.0-1.21","3","Low_HMMActual","","","","","","null","","","","Images/WhiteBeadChoice.png","","null"
"image-button-response","124","399807","0.0-13.0-2.21","3","Low_HMMActual","","","","","","null","","","","Images/WhiteBeadChoiceCorrect.png","","null"
"image-button-response","125","400076","0.0-13.0-0.22","3","Low_HMMActual","","","","","","267.5049999997718","","","","Images/NewTrialWC.png","","2"
"image-button-response","126","400387","0.0-13.0-1.22","3","Low_HMMActual","","","","","","null","","","","Images/WhiteBeadChoice.png","","null"
"image-button-response","127","400903","0.0-13.0-2.22","3","Low_HMMActual","","","","","","null","","","","Images/WhiteBeadChoiceCorrect.png","","null"
"image-button-response","128","400973","0.0-13.0-0.23","3","Low_HMMActual","","","","","","67.87999999866588","","","","Images/NewTrialWC.png","","2"
"image-button-response","129","401284","0.0-13.0-1.23","3","Low_HMMActual","","","","","","null","","","","Images/WhiteBeadChoice.png","","null"
"image-button-response","130","401790","0.0-13.0-2.23","3","Low_HMMActual","","","","","","null","","","","Images/WhiteBeadChoiceCorrect.png","","null"
"image-button-response","131","401981","0.0-13.0-0.24","3","Low_HMMActual","","","","","","188.14999999810243","","","","Images/NewTrialWC.png","","2"
"image-button-response","132","402284","0.0-13.0-1.24","3","Low_HMMActual","","","","","","null","","","","Images/WhiteBeadChoice.png","","null"
"image-button-response","133","402794","0.0-13.0-2.24","3","Low_HMMActual","","","","","","null","","","","Images/WhiteBeadChoiceCorrect.png","","null"
"image-button-response","134","403277","0.0-13.0-0.25","3","Low_HMMActual","","","","","","481.10499999893364","","","","Images/NewTrialWC.png","","2"
"image-button-response","135","403590","0.0-13.0-1.25","3","Low_HMMActual","","","","","","null","","","","Images/WhiteBeadChoice.png","","null"
"image-button-response","136","404102","0.0-13.0-2.25","3","Low_HMMActual","","","","","","null","","","","Images/WhiteBeadChoiceCorrect.png","","null"
"image-button-response","137","404229","0.0-13.0-0.26","3","Low_HMMActual","","","","","","124.52499999926658","","","","Images/NewTrialWC.png","","2"
"image-button-response","138","404544","0.0-13.0-1.26","3","Low_HMMActual","","","","","","null","","","","Images/WhiteBeadChoice.png","","null"
"image-button-response","139","405046","0.0-13.0-2.26","3","Low_HMMActual","","","","","","null","","","","Images/WhiteBeadChoiceWrong.png","","null"
"image-button-response","140","405813","0.0-13.0-0.27","3","Low_HMMActual","","","","","","765.4900000016205","","","","Images/NewTrialBC.png","","3"
"image-button-response","141","406127","0.0-13.0-1.27","3","Low_HMMActual","","","","","","null","","","","Images/WhiteBeadChoice.png","","null"
"image-button-response","142","406638","0.0-13.0-2.27","3","Low_HMMActual","","","","","","null","","","","Images/WhiteBeadChoiceCorrect.png","","null"
"image-button-response","143","408213","0.0-13.0-0.28","3","Low_HMMActual","","","","","","1572.5149999998393","","","","Images/NewTrialWC.png","","2"
"image-button-response","144","408522","0.0-13.0-1.28","3","Low_HMMActual","","","","","","null","","","","Images/WhiteBeadChoice.png","","null"
"image-button-response","145","409036","0.0-13.0-2.28","3","Low_HMMActual","","","","","","null","","","","Images/WhiteBeadChoiceWrong.png","","null"
"image-button-response","146","410789","0.0-13.0-0.29","3","Low_HMMActual","","","","","","1750.8450000023004","","","","Images/NewTrialBC.png","","2"
"image-button-response","147","411098","0.0-13.0-1.29","3","Low_HMMActual","","","","","","null","","","","Images/WhiteBeadChoice.png","","null"
"image-button-response","148","411602","0.0-13.0-2.29","3","Low_HMMActual","","","","","","null","","","","Images/WhiteBeadChoiceCorrect.png","","null"
"image-button-response","149","412317","0.0-13.0-0.30","3","Low_HMMActual","","","","","","712.2400000008056","","","","Images/NewTrialWC.png","","2"
"image-button-response","150","412619","0.0-13.0-1.30","3","Low_HMMActual","","","","","","null","","","","Images/WhiteBeadChoice.png","","null"
"image-button-response","151","413123","0.0-13.0-2.30","3","Low_HMMActual","","","","","","455.2750000002561","","","","Images/WhiteBeadChoiceCorrect.png","","2"
"image-button-response","152","414277","0.0-13.0-0.31","3","Low_HMMActual","","","","","","1152.1199999988312","","","","Images/NewTrialWC.png","","2"
"image-button-response","153","414580","0.0-13.0-1.31","3","Low_HMMActual","","","","","","null","","","","Images/WhiteBeadChoice.png","","null"
"image-button-response","154","415089","0.0-13.0-2.31","3","Low_HMMActual","","","","","","null","","","","Images/WhiteBeadChoiceWrong.png","","null"
"image-button-response","155","416493","0.0-13.0-0.32","3","Low_HMMActual","","","","","","1402.1250000005239","","","","Images/NewTrialBC.png","","3"
"image-button-response","156","416798","0.0-13.0-1.32","3","Low_HMMActual","","","","","","null","","","","Images/WhiteBeadChoice.png","","null"
"image-button-response","157","417300","0.0-13.0-2.32","3","Low_HMMActual","","","","","","null","","","","Images/WhiteBeadChoiceCorrect.png","","null"
"image-button-response","158","418725","0.0-13.0-0.33","3","Low_HMMActual","","","","","","1422.979999999341","","","","Images/NewTrialWC.png","","2"
"image-button-response","159","419030","0.0-13.0-1.33","3","Low_HMMActual","","","","","","null","","","","Images/WhiteBeadChoice.png","","null"
"image-button-response","160","419536","0.0-13.0-2.33","3","Low_HMMActual","","","","","","453.4249999996973","","","","Images/WhiteBeadChoiceCorrect.png","","2"
"image-button-response","161","420661","0.0-13.0-0.34","3","Low_HMMActual","","","","","","1123.8600000033039","","","","Images/NewTrialWC.png","","2"
"image-button-response","162","420965","0.0-13.0-1.34","3","Low_HMMActual","","","","","","null","","","","Images/WhiteBeadChoice.png","","null"
"image-button-response","163","421473","0.0-13.0-2.34","3","Low_HMMActual","","","","","","null","","","","Images/WhiteBeadChoiceWrong.png","","null"
"image-button-response","164","426004","0.0-13.0-0.35","3","Low_HMMActual","","","","","","4530.8100000002305","","","","Images/NewTrialBC.png","","3"
"image-button-response","165","426314","0.0-13.0-1.35","3","Low_HMMActual","","","","","","null","","","","Images/WhiteBeadChoice.png","","null"
"image-button-response","166","426827","0.0-13.0-2.35","3","Low_HMMActual","","","","","","null","","","","Images/WhiteBeadChoiceCorrect.png","","null"
"image-button-response","167","428453","0.0-13.0-0.36","3","Low_HMMActual","","","","","","1623.1200000002282","","","","Images/NewTrialWC.png","","2"
"image-button-response","168","428761","0.0-13.0-1.36","3","Low_HMMActual","","","","","","null","","","","Images/WhiteBeadChoice.png","","null"
"image-button-response","169","429263","0.0-13.0-2.36","3","Low_HMMActual","","","","","","490.28999999788357","","","","Images/WhiteBeadChoiceCorrect.png","","2"
"image-button-response","170","430012","0.0-13.0-0.37","3","Low_HMMActual","","","","","","747.8749999973224","","","","Images/NewTrialWC.png","","2"
"image-button-response","171","430318","0.0-13.0-1.37","3","Low_HMMActual","","","","","","null","","","","Images/WhiteBeadChoice.png","","null"
"image-button-response","172","430823","0.0-13.0-2.37","3","Low_HMMActual","","","","","","null","","","","Images/WhiteBeadChoiceCorrect.png","","null"
"image-button-response","173","431925","0.0-13.0-0.38","3","Low_HMMActual","","","","","","1099.8150000013993","","","","Images/NewTrialWC.png","","2"
"image-button-response","174","432227","0.0-13.0-1.38","3","Low_HMMActual","","","","","","null","","","","Images/WhiteBeadChoice.png","","null"
"image-button-response","175","432730","0.0-13.0-2.38","3","Low_HMMActual","","","","","","null","","","","Images/WhiteBeadChoiceWrong.png","","null"
"image-button-response","176","434044","0.0-13.0-0.39","3","Low_HMMActual","","","","","","1313.5100000000093","","","","Images/NewTrialBC.png","","3"
"image-button-response","177","434361","0.0-13.0-1.39","3","Low_HMMActual","","","","","","null","","","","Images/WhiteBeadChoice.png","","null"
"image-button-response","178","434863","0.0-13.0-2.39","3","Low_HMMActual","","","","","","null","","","","Images/WhiteBeadChoiceCorrect.png","","null"
"image-button-response","179","435117","0.0-13.0-0.40","3","Low_HMMActual","","","","","","252.21500000043306","","","","Images/NewTrialWC.png","","2"
"image-button-response","180","435427","0.0-13.0-1.40","3","Low_HMMActual","","","","","","null","","","","Images/WhiteBeadChoice.png","","null"
"image-button-response","181","435940","0.0-13.0-2.40","3","Low_HMMActual","","","","","","null","","","","Images/WhiteBeadChoiceCorrect.png","","null"
"image-button-response","182","436941","0.0-13.0-0.41","3","Low_HMMActual","","","","","","999.1350000018138","","","","Images/NewTrialWC.png","","2"
"image-button-response","183","437243","0.0-13.0-1.41","3","Low_HMMActual","","","","","","null","","","","Images/WhiteBeadChoice.png","","null"
"image-button-response","184","437756","0.0-13.0-2.41","3","Low_HMMActual","","","","","","null","","","","Images/WhiteBeadChoiceCorrect.png","","null"
"image-button-response","185","437933","0.0-13.0-0.42","3","Low_HMMActual","","","","","","174.3449999994482","","","","Images/NewTrialWC.png","","2"
"image-button-response","186","438235","0.0-13.0-1.42","3","Low_HMMActual","","","","","","null","","","","Images/WhiteBeadChoice.png","","null"
"image-button-response","187","438741","0.0-13.0-2.42","3","Low_HMMActual","","","","","","null","","","","Images/WhiteBeadChoiceWrong.png","","null"
"image-button-response","188","440189","0.0-13.0-0.43","3","Low_HMMActual","","","","","","1445.254999998724","","","","Images/NewTrialBC.png","","3"
"image-button-response","189","440498","0.0-13.0-1.43","3","Low_HMMActual","","","","","","null","","","","Images/WhiteBeadChoice.png","","null"
"image-button-response","190","441014","0.0-13.0-2.43","3","Low_HMMActual","","","","","","null","","","","Images/WhiteBeadChoiceWrong.png","","null"
"image-button-response","191","443892","0.0-13.0-0.44","3","Low_HMMActual","","","","","","2876.8100000015693","","","","Images/NewTrialBC.png","","0"
"image-button-response","192","444208","0.0-13.0-1.44","3","Low_HMMActual","","","","","","null","","","","Images/BlackBeadChoice.png","","null"
"image-button-response","193","444717","0.0-13.0-2.44","3","Low_HMMActual","","","","","","null","","","","Images/BlackBeadChoiceCorrect.png","","null"
"image-button-response","194","445341","0.0-13.0-0.45","3","Low_HMMActual","","","","","","621.6549999990384","","","","Images/NewTrialBC.png","","1"
"image-button-response","195","445648","0.0-13.0-1.45","3","Low_HMMActual","","","","","","null","","","","Images/BlackBeadChoice.png","","null"
"image-button-response","196","446149","0.0-13.0-2.45","3","Low_HMMActual","","","","","","null","","","","Images/BlackBeadChoiceWrong.png","","null"
"image-button-response","197","447949","0.0-13.0-0.46","3","Low_HMMActual","","","","","","1797.6099999977741","","","","Images/NewTrialWC.png","","0"
"image-button-response","198","448256","0.0-13.0-1.46","3","Low_HMMActual","","","","","","null","","","","Images/BlackBeadChoice.png","","null"
"image-button-response","199","448761","0.0-13.0-2.46","3","Low_HMMActual","","","","","","null","","","","Images/BlackBeadChoiceCorrect.png","","null"
"image-button-response","200","449357","0.0-13.0-0.47","3","Low_HMMActual","","","","","","594.6549999971176","","","","Images/NewTrialBC.png","","0"
"image-button-response","201","449672","0.0-13.0-1.47","3","Low_HMMActual","","","","","","null","","","","Images/BlackBeadChoice.png","","null"
"image-button-response","202","450183","0.0-13.0-2.47","3","Low_HMMActual","","","","","","null","","","","Images/BlackBeadChoiceWrong.png","","null"
"image-button-response","203","451437","0.0-13.0-0.48","3","Low_HMMActual","","","","","","1252.0150000018766","","","","Images/NewTrialWC.png","","1"
"image-button-response","204","451742","0.0-13.0-1.48","3","Low_HMMActual","","","","","","null","","","","Images/BlackBeadChoice.png","","null"
"image-button-response","205","452249","0.0-13.0-2.48","3","Low_HMMActual","","","","","","null","","","","Images/BlackBeadChoiceCorrect.png","","null"
"image-button-response","206","453125","0.0-13.0-0.49","3","Low_HMMActual","","","","","","873.8850000009406","","","","Images/NewTrialBC.png","","0"
"image-button-response","207","453427","0.0-13.0-1.49","3","Low_HMMActual","","","","","","null","","","","Images/BlackBeadChoice.png","","null"
"image-button-response","208","453930","0.0-13.0-2.49","3","Low_HMMActual","","","","","","null","","","","Images/BlackBeadChoiceCorrect.png","","null"
"image-button-response","209","454501","0.0-13.0-0.50","3","Low_HMMActual","","","","","","569.8049999991781","","","","Images/NewTrialBC.png","","0"
"image-button-response","210","454817","0.0-13.0-1.50","3","Low_HMMActual","","","","","","null","","","","Images/BlackBeadChoice.png","","null"
"image-button-response","211","455331","0.0-13.0-2.50","3","Low_HMMActual","","","","","","null","","","","Images/BlackBeadChoiceCorrect.png","","null"
"image-button-response","212","455877","0.0-13.0-0.51","3","Low_HMMActual","","","","","","543.8500000018394","","","","Images/NewTrialBC.png","","0"
"image-button-response","213","456184","0.0-13.0-1.51","3","Low_HMMActual","","","","","","null","","","","Images/BlackBeadChoice.png","","null"
"image-button-response","214","456694","0.0-13.0-2.51","3","Low_HMMActual","","","","","","null","","","","Images/BlackBeadChoiceCorrect.png","","null"
"image-button-response","215","456997","0.0-13.0-0.52","3","Low_HMMActual","","","","","","301.07499999937136","","","","Images/NewTrialBC.png","","0"
"image-button-response","216","457306","0.0-13.0-1.52","3","Low_HMMActual","","","","","","null","","","","Images/BlackBeadChoice.png","","null"
"image-button-response","217","457813","0.0-13.0-2.52","3","Low_HMMActual","","","","","","null","","","","Images/BlackBeadChoiceCorrect.png","","null"
"image-button-response","218","458125","0.0-13.0-0.53","3","Low_HMMActual","","","","","","310.48999999987427","","","","Images/NewTrialBC.png","","0"
"image-button-response","219","458429","0.0-13.0-1.53","3","Low_HMMActual","","","","","","null","","","","Images/BlackBeadChoice.png","","null"
"image-button-response","220","458935","0.0-13.0-2.53","3","Low_HMMActual","","","","","","null","","","","Images/BlackBeadChoiceCorrect.png","","null"
"image-button-response","221","459213","0.0-13.0-0.54","3","Low_HMMActual","","","","","","276.1750000026659","","","","Images/NewTrialBC.png","","0"
"image-button-response","222","459527","0.0-13.0-1.54","3","Low_HMMActual","","","","","","null","","","","Images/BlackBeadChoice.png","","null"
"image-button-response","223","460043","0.0-13.0-2.54","3","Low_HMMActual","","","","","","null","","","","Images/BlackBeadChoiceWrong.png","","null"
"image-button-response","224","461276","0.0-13.0-0.55","3","Low_HMMActual","","","","","","1231.9850000021397","","","","Images/NewTrialWC.png","","0"
"image-button-response","225","461586","0.0-13.0-1.55","3","Low_HMMActual","","","","","","null","","","","Images/BlackBeadChoice.png","","null"
"image-button-response","226","462101","0.0-13.0-2.55","3","Low_HMMActual","","","","","","null","","","","Images/BlackBeadChoiceCorrect.png","","null"
"image-button-response","227","462852","0.0-13.0-0.56","3","Low_HMMActual","","","","","","749.1149999987101","","","","Images/NewTrialBC.png","","0"
"image-button-response","228","463162","0.0-13.0-1.56","3","Low_HMMActual","","","","","","null","","","","Images/BlackBeadChoice.png","","null"
"image-button-response","229","463671","0.0-13.0-2.56","3","Low_HMMActual","","","","","","null","","","","Images/BlackBeadChoiceWrong.png","","null"
"image-button-response","230","464260","0.0-13.0-0.57","3","Low_HMMActual","","","","","","588.1500000031665","","","","Images/NewTrialWC.png","","0"
"image-button-response","231","464561","0.0-13.0-1.57","3","Low_HMMActual","","","","","","null","","","","Images/BlackBeadChoice.png","","null"
"image-button-response","232","465076","0.0-13.0-2.57","3","Low_HMMActual","","","","","","null","","","","Images/BlackBeadChoiceWrong.png","","null"
"image-button-response","233","466460","0.0-13.0-0.58","3","Low_HMMActual","","","","","","1381.62999999983","","","","Images/NewTrialWC.png","","2"
"image-button-response","234","466763","0.0-13.0-1.58","3","Low_HMMActual","","","","","","null","","","","Images/WhiteBeadChoice.png","","null"
"image-button-response","235","467266","0.0-13.0-2.58","3","Low_HMMActual","","","","","","null","","","","Images/WhiteBeadChoiceWrong.png","","null"
"image-button-response","236","469700","0.0-13.0-0.59","3","Low_HMMActual","","","","","","2432.5400000015507","","","","Images/NewTrialBC.png","","3"
"image-button-response","237","470005","0.0-13.0-1.59","3","Low_HMMActual","","","","","","null","","","","Images/WhiteBeadChoice.png","","null"
"image-button-response","238","470521","0.0-13.0-2.59","3","Low_HMMActual","","","","","","null","","","","Images/WhiteBeadChoiceWrong.png","","null"
"image-button-response","239","471900","0.0-13.0-0.60","3","Low_HMMActual","","","","","","1377.1899999992456","","","","Images/NewTrialBC.png","","1"
"image-button-response","240","472215","0.0-13.0-1.60","3","Low_HMMActual","","","","","","null","","","","Images/BlackBeadChoice.png","","null"
"image-button-response","241","472730","0.0-13.0-2.60","3","Low_HMMActual","","","","","","null","","","","Images/BlackBeadChoiceWrong.png","","null"
"image-button-response","242","473348","0.0-13.0-0.61","3","Low_HMMActual","","","","","","615.8900000009453","","","","Images/NewTrialWC.png","","1"
"image-button-response","243","473660","0.0-13.0-1.61","3","Low_HMMActual","","","","","","null","","","","Images/BlackBeadChoice.png","","null"
"image-button-response","244","474173","0.0-13.0-2.61","3","Low_HMMActual","","","","","","null","","","","Images/BlackBeadChoiceWrong.png","","null"
"image-button-response","245","477116","0.0-13.0-0.62","3","Low_HMMActual","","","","","","2932.709999997285","","","","Images/NewTrialWC.png","","1"
"image-button-response","246","477418","0.0-13.0-1.62","3","Low_HMMActual","","","","","","null","","","","Images/BlackBeadChoice.png","","null"
"image-button-response","247","477920","0.0-13.0-2.62","3","Low_HMMActual","","","","","","null","","","","Images/BlackBeadChoiceWrong.png","","null"
"image-button-response","248","478868","0.0-13.0-0.63","3","Low_HMMActual","","","","","","947.1099999973667","","","","Images/NewTrialWC.png","","2"
"image-button-response","249","479175","0.0-13.0-1.63","3","Low_HMMActual","","","","","","null","","","","Images/WhiteBeadChoice.png","","null"
"image-button-response","250","479683","0.0-13.0-2.63","3","Low_HMMActual","","","","","","null","","","","Images/WhiteBeadChoiceWrong.png","","null"
"image-button-response","251","480116","0.0-13.0-0.64","3","Low_HMMActual","","","","","","432.37500000034925","","","","Images/NewTrialBC.png","","2"
"image-button-response","252","480430","0.0-13.0-1.64","3","Low_HMMActual","","","","","","null","","","","Images/WhiteBeadChoice.png","","null"
"image-button-response","253","480942","0.0-13.0-2.64","3","Low_HMMActual","","","","","","null","","","","Images/WhiteBeadChoiceCorrect.png","","null"
"image-button-response","254","481372","0.0-13.0-0.65","3","Low_HMMActual","","","","","","427.48999999818625","","","","Images/NewTrialWC.png","","2"
"image-button-response","255","481689","0.0-13.0-1.65","3","Low_HMMActual","","","","","","null","","","","Images/WhiteBeadChoice.png","","null"
"image-button-response","256","482194","0.0-13.0-2.65","3","Low_HMMActual","","","","","","null","","","","Images/WhiteBeadChoiceWrong.png","","null"
"image-button-response","257","483092","0.0-13.0-0.66","3","Low_HMMActual","","","","","","894.495000000461","","","","Images/NewTrialBC.png","","2"
"image-button-response","258","483395","0.0-13.0-1.66","3","Low_HMMActual","","","","","","null","","","","Images/WhiteBeadChoice.png","","null"
"image-button-response","259","483902","0.0-13.0-2.66","3","Low_HMMActual","","","","","","null","","","","Images/WhiteBeadChoiceWrong.png","","null"
"image-button-response","260","486564","0.0-13.0-0.67","3","Low_HMMActual","","","","","","2660.4950000001118","","","","Images/NewTrialBC.png","","3"
"image-button-response","261","486873","0.0-13.0-1.67","3","Low_HMMActual","","","","","","null","","","","Images/WhiteBeadChoice.png","","null"
"image-button-response","262","487381","0.0-13.0-2.67","3","Low_HMMActual","","","","","","null","","","","Images/WhiteBeadChoiceCorrect.png","","null"
"image-button-response","263","488908","0.0-13.0-0.68","3","Low_HMMActual","","","","","","1519.9849999990547","","","","Images/NewTrialWC.png","","2"
"image-button-response","264","489212","0.0-13.0-1.68","3","Low_HMMActual","","","","","","null","","","","Images/WhiteBeadChoice.png","","null"
"image-button-response","265","489721","0.0-13.0-2.68","3","Low_HMMActual","","","","","","null","","","","Images/WhiteBeadChoiceCorrect.png","","null"
"image-button-response","266","490284","0.0-13.0-0.69","3","Low_HMMActual","","","","","","561.520000002929","","","","Images/NewTrialWC.png","","2"
"image-button-response","267","490596","0.0-13.0-1.69","3","Low_HMMActual","","","","","","null","","","","Images/WhiteBeadChoice.png","","null"
"image-button-response","268","491098","0.0-13.0-2.69","3","Low_HMMActual","","","","","","null","","","","Images/WhiteBeadChoiceCorrect.png","","null"
"image-button-response","269","491580","0.0-13.0-0.70","3","Low_HMMActual","","","","","","479.5300000004936","","","","Images/NewTrialWC.png","","2"
"image-button-response","270","491889","0.0-13.0-1.70","3","Low_HMMActual","","","","","","null","","","","Images/WhiteBeadChoice.png","","null"
"image-button-response","271","492398","0.0-13.0-2.70","3","Low_HMMActual","","","","","","null","","","","Images/WhiteBeadChoiceCorrect.png","","null"
"image-button-response","272","493044","0.0-13.0-0.71","3","Low_HMMActual","","","","","","643.3949999990873","","","","Images/NewTrialWC.png","","2"
"image-button-response","273","493356","0.0-13.0-1.71","3","Low_HMMActual","","","","","","null","","","","Images/WhiteBeadChoice.png","","null"
"image-button-response","274","493861","0.0-13.0-2.71","3","Low_HMMActual","","","","","","null","","","","Images/WhiteBeadChoiceCorrect.png","","null"
"image-button-response","275","494100","0.0-13.0-0.72","3","Low_HMMActual","","","","","","238.45000000071013","","","","Images/NewTrialWC.png","","2"
"image-button-response","276","494413","0.0-13.0-1.72","3","Low_HMMActual","","","","","","null","","","","Images/WhiteBeadChoice.png","","null"
"image-button-response","277","494921","0.0-13.0-2.72","3","Low_HMMActual","","","","","","null","","","","Images/WhiteBeadChoiceCorrect.png","","null"
"image-button-response","278","495333","0.0-13.0-0.73","3","Low_HMMActual","","","","","","410.2599999968661","","","","Images/NewTrialWC.png","","2"
"image-button-response","279","495641","0.0-13.0-1.73","3","Low_HMMActual","","","","","","null","","","","Images/WhiteBeadChoice.png","","null"
"image-button-response","280","496151","0.0-13.0-2.73","3","Low_HMMActual","","","","","","null","","","","Images/WhiteBeadChoiceCorrect.png","","null"
"image-button-response","281","496460","0.0-13.0-0.74","3","Low_HMMActual","","","","","","307.0850000003702","","","","Images/NewTrialWC.png","","2"
"image-button-response","282","496765","0.0-13.0-1.74","3","Low_HMMActual","","","","","","null","","","","Images/WhiteBeadChoice.png","","null"
"image-button-response","283","497279","0.0-13.0-2.74","3","Low_HMMActual","","","","","","null","","","","Images/WhiteBeadChoiceCorrect.png","","null"
"image-button-response","284","497468","0.0-13.0-0.75","3","Low_HMMActual","","","","","","187.91499999864027","","","","Images/NewTrialWC.png","","2"
"image-button-response","285","497770","0.0-13.0-1.75","3","Low_HMMActual","","","","","","null","","","","Images/WhiteBeadChoice.png","","null"
"image-button-response","286","498284","0.0-13.0-2.75","3","Low_HMMActual","","","","","","null","","","","Images/WhiteBeadChoiceCorrect.png","","null"
"image-button-response","287","499532","0.0-13.0-0.76","3","Low_HMMActual","","","","","","1247.2650000017602","","","","Images/NewTrialWC.png","","2"
"image-button-response","288","499843","0.0-13.0-1.76","3","Low_HMMActual","","","","","","null","","","","Images/WhiteBeadChoice.png","","null"
"image-button-response","289","500352","0.0-13.0-2.76","3","Low_HMMActual","","","","","","null","","","","Images/WhiteBeadChoiceCorrect.png","","null"
"image-button-response","290","503204","0.0-13.0-0.77","3","Low_HMMActual","","","","","","2850.7400000016205","","","","Images/NewTrialWC.png","","2"
"image-button-response","291","503509","0.0-13.0-1.77","3","Low_HMMActual","","","","","","null","","","","Images/WhiteBeadChoice.png","","null"
"image-button-response","292","504020","0.0-13.0-2.77","3","Low_HMMActual","","","","","","null","","","","Images/WhiteBeadChoiceCorrect.png","","null"
"image-button-response","293","505516","0.0-13.0-0.78","3","Low_HMMActual","","","","","","1494.8999999978114","","","","Images/NewTrialWC.png","","2"
"image-button-response","294","505829","0.0-13.0-1.78","3","Low_HMMActual","","","","","","null","","","","Images/WhiteBeadChoice.png","","null"
"image-button-response","295","506333","0.0-13.0-2.78","3","Low_HMMActual","","","","","","null","","","","Images/WhiteBeadChoiceCorrect.png","","null"
"image-button-response","296","507895","0.0-13.0-0.79","3","Low_HMMActual","","","","","","1560.2700000017649","","","","Images/NewTrialWC.png","","2"
"image-button-response","297","508204","0.0-13.0-1.79","3","Low_HMMActual","","","","","","null","","","","Images/WhiteBeadChoice.png","","null"
"image-button-response","298","508715","0.0-13.0-2.79","3","Low_HMMActual","","","","","","null","","","","Images/WhiteBeadChoiceWrong.png","","null"
"image-button-response","299","510612","0.0-13.0-0.80","3","Low_HMMActual","","","","","","1895.6250000010477","","","","Images/NewTrialBC.png","","2"
"image-button-response","300","510916","0.0-13.0-1.80","3","Low_HMMActual","","","","","","null","","","","Images/WhiteBeadChoice.png","","null"
"image-button-response","301","511422","0.0-13.0-2.80","3","Low_HMMActual","","","","","","null","","","","Images/WhiteBeadChoiceCorrect.png","","null"
"image-button-response","302","512012","0.0-13.0-0.81","3","Low_HMMActual","","","","","","587.8400000002002","","","","Images/NewTrialWC.png","","2"
"image-button-response","303","512314","0.0-13.0-1.81","3","Low_HMMActual","","","","","","null","","","","Images/WhiteBeadChoice.png","","null"
"image-button-response","304","512822","0.0-13.0-2.81","3","Low_HMMActual","","","","","","null","","","","Images/WhiteBeadChoiceCorrect.png","","null"
"image-button-response","305","513404","0.0-13.0-0.82","3","Low_HMMActual","","","","","","579.8849999991944","","","","Images/NewTrialWC.png","","2"
"image-button-response","306","513714","0.0-13.0-1.82","3","Low_HMMActual","","","","","","null","","","","Images/WhiteBeadChoice.png","","null"
"image-button-response","307","514226","0.0-13.0-2.82","3","Low_HMMActual","","","","","","null","","","","Images/WhiteBeadChoiceCorrect.png","","null"
"image-button-response","308","514684","0.0-13.0-0.83","3","Low_HMMActual","","","","","","455.82500000088476","","","","Images/NewTrialWC.png","","2"
"image-button-response","309","514988","0.0-13.0-1.83","3","Low_HMMActual","","","","","","null","","","","Images/WhiteBeadChoice.png","","null"
"image-button-response","310","515496","0.0-13.0-2.83","3","Low_HMMActual","","","","","","null","","","","Images/WhiteBeadChoiceWrong.png","","null"
"image-button-response","311","517156","0.0-13.0-0.84","3","Low_HMMActual","","","","","","1659.1200000002282","","","","Images/NewTrialBC.png","","3"
"image-button-response","312","517466","0.0-13.0-1.84","3","Low_HMMActual","","","","","","null","","","","Images/WhiteBeadChoice.png","","null"
"image-button-response","313","517982","0.0-13.0-2.84","3","Low_HMMActual","","","","","","null","","","","Images/WhiteBeadChoiceCorrect.png","","null"
"image-button-response","314","518924","0.0-13.0-0.85","3","Low_HMMActual","","","","","","938.9449999980279","","","","Images/NewTrialWC.png","","2"
"image-button-response","315","519236","0.0-13.0-1.85","3","Low_HMMActual","","","","","","null","","","","Images/WhiteBeadChoice.png","","null"
"image-button-response","316","519749","0.0-13.0-2.85","3","Low_HMMActual","","","","","","null","","","","Images/WhiteBeadChoiceWrong.png","","null"
"image-button-response","317","520765","0.0-13.0-0.86","3","Low_HMMActual","","","","","","1013.6549999988056","","","","Images/NewTrialBC.png","","3"
"image-button-response","318","521071","0.0-13.0-1.86","3","Low_HMMActual","","","","","","null","","","","Images/WhiteBeadChoice.png","","null"
"image-button-response","319","521573","0.0-13.0-2.86","3","Low_HMMActual","","","","","","null","","","","Images/WhiteBeadChoiceWrong.png","","null"
"image-button-response","320","523125","0.0-13.0-0.87","3","Low_HMMActual","","","","","","1550.2100000012433","","","","Images/NewTrialBC.png","","0"
"image-button-response","321","523438","0.0-13.0-1.87","3","Low_HMMActual","","","","","","null","","","","Images/BlackBeadChoice.png","","null"
"image-button-response","322","523951","0.0-13.0-2.87","3","Low_HMMActual","","","","","","null","","","","Images/BlackBeadChoiceWrong.png","","null"
"image-button-response","323","525276","0.0-13.0-0.88","3","Low_HMMActual","","","","","","1322.8349999990314","","","","Images/NewTrialWC.png","","1"
"image-button-response","324","525593","0.0-13.0-1.88","3","Low_HMMActual","","","","","","null","","","","Images/BlackBeadChoice.png","","null"
"image-button-response","325","526108","0.0-13.0-2.88","3","Low_HMMActual","","","","","","null","","","","Images/BlackBeadChoiceWrong.png","","null"
"image-button-response","326","526965","0.0-13.0-0.89","3","Low_HMMActual","","","","","","854.0450000001583","","","","Images/NewTrialWC.png","","2"
"image-button-response","327","527266","0.0-13.0-1.89","3","Low_HMMActual","","","","","","null","","","","Images/WhiteBeadChoice.png","","null"
"image-button-response","328","527780","0.0-13.0-2.89","3","Low_HMMActual","","","","","","null","","","","Images/WhiteBeadChoiceCorrect.png","","null"
"image-button-response","329","528389","0.0-13.0-0.90","3","Low_HMMActual","","","","","","607.5950000012526","","","","Images/NewTrialWC.png","","2"
"image-button-response","330","528704","0.0-13.0-1.90","3","Low_HMMActual","","","","","","null","","","","Images/WhiteBeadChoice.png","","null"
"image-button-response","331","529212","0.0-13.0-2.90","3","Low_HMMActual","","","","","","null","","","","Images/WhiteBeadChoiceCorrect.png","","null"
"image-button-response","332","529468","0.0-13.0-0.91","3","Low_HMMActual","","","","","","253.85499999905005","","","","Images/NewTrialWC.png","","2"
"image-button-response","333","529779","0.0-13.0-1.91","3","Low_HMMActual","","","","","","null","","","","Images/WhiteBeadChoice.png","","null"
"image-button-response","334","530288","0.0-13.0-2.91","3","Low_HMMActual","","","","","","null","","","","Images/WhiteBeadChoiceCorrect.png","","null"
"image-button-response","335","530543","0.0-13.0-0.92","3","Low_HMMActual","","","","","","251.68499999924097","","","","Images/NewTrialWC.png","","2"
"image-button-response","336","530854","0.0-13.0-1.92","3","Low_HMMActual","","","","","","null","","","","Images/WhiteBeadChoice.png","","null"
"image-button-response","337","531365","0.0-13.0-2.92","3","Low_HMMActual","","","","","","null","","","","Images/WhiteBeadChoiceCorrect.png","","null"
"image-button-response","338","531716","0.0-13.0-0.93","3","Low_HMMActual","","","","","","349.2249999981141","","","","Images/NewTrialWC.png","","2"
"image-button-response","339","532020","0.0-13.0-1.93","3","Low_HMMActual","","","","","","null","","","","Images/WhiteBeadChoice.png","","null"
"image-button-response","340","532530","0.0-13.0-2.93","3","Low_HMMActual","","","","","","null","","","","Images/WhiteBeadChoiceWrong.png","","null"
"image-button-response","341","533453","0.0-13.0-0.94","3","Low_HMMActual","","","","","","921.0549999988871","","","","Images/NewTrialBC.png","","3"
"image-button-response","342","533765","0.0-13.0-1.94","3","Low_HMMActual","","","","","","null","","","","Images/WhiteBeadChoice.png","","null"
"image-button-response","343","534272","0.0-13.0-2.94","3","Low_HMMActual","","","","","","null","","","","Images/WhiteBeadChoiceCorrect.png","","null"
"image-button-response","344","534917","0.0-13.0-0.95","3","Low_HMMActual","","","","","","643.3150000011083","","","","Images/NewTrialWC.png","","2"
"image-button-response","345","535218","0.0-13.0-1.95","3","Low_HMMActual","","","","","","null","","","","Images/WhiteBeadChoice.png","","null"
"image-button-response","346","535723","0.0-13.0-2.95","3","Low_HMMActual","","","","","","null","","","","Images/WhiteBeadChoiceCorrect.png","","null"
"image-button-response","347","536228","0.0-13.0-0.96","3","Low_HMMActual","","","","","","503.4850000011502","","","","Images/NewTrialWC.png","","2"
"image-button-response","348","536539","0.0-13.0-1.96","3","Low_HMMActual","","","","","","null","","","","Images/WhiteBeadChoice.png","","null"
"image-button-response","349","537043","0.0-13.0-2.96","3","Low_HMMActual","","","","","","null","","","","Images/WhiteBeadChoiceCorrect.png","","null"
"image-button-response","350","537332","0.0-13.0-0.97","3","Low_HMMActual","","","","","","287.62499999720603","","","","Images/NewTrialWC.png","","2"
"image-button-response","351","537635","0.0-13.0-1.97","3","Low_HMMActual","","","","","","null","","","","Images/WhiteBeadChoice.png","","null"
"image-button-response","352","538151","0.0-13.0-2.97","3","Low_HMMActual","","","","","","null","","","","Images/WhiteBeadChoiceWrong.png","","null"
"image-button-response","353","539397","0.0-13.0-0.98","3","Low_HMMActual","","","","","","1244.474999999511","","","","Images/NewTrialBC.png","","3"
"image-button-response","354","539709","0.0-13.0-1.98","3","Low_HMMActual","","","","","","null","","","","Images/WhiteBeadChoice.png","","null"
"image-button-response","355","540216","0.0-13.0-2.98","3","Low_HMMActual","","","","","","null","","","","Images/WhiteBeadChoiceCorrect.png","","null"
"image-button-response","356","540717","0.0-13.0-0.99","3","Low_HMMActual","","","","","","499.09499999915715","","","","Images/NewTrialWC.png","","2"
"image-button-response","357","541031","0.0-13.0-1.99","3","Low_HMMActual","","","","","","null","","","","Images/WhiteBeadChoice.png","","null"
"image-button-response","358","541543","0.0-13.0-2.99","3","Low_HMMActual","","","","","","null","","","","Images/WhiteBeadChoiceCorrect.png","","null"
"image-button-response","359","542077","0.0-13.0-0.100","3","Low_HMMActual","","","","","","530.9100000013132","","","","Images/NewTrialWC.png","","2"
"image-button-response","360","542380","0.0-13.0-1.100","3","Low_HMMActual","","","","","","null","","","","Images/WhiteBeadChoice.png","","null"
"image-button-response","361","542894","0.0-13.0-2.100","3","Low_HMMActual","","","","","","null","","","","Images/WhiteBeadChoiceCorrect.png","","null"
"image-button-response","362","542981","0.0-13.0-0.101","3","Low_HMMActual","","","","","","84.63499999931082","","","","Images/NewTrialWC.png","","2"
"image-button-response","363","543282","0.0-13.0-1.101","3","Low_HMMActual","","","","","","null","","","","Images/WhiteBeadChoice.png","","null"
"image-button-response","364","543785","0.0-13.0-2.101","3","Low_HMMActual","","","","","","null","","","","Images/WhiteBeadChoiceCorrect.png","","null"
"image-button-response","365","543924","0.0-13.0-0.102","3","Low_HMMActual","","","","","","138.37499999871943","","","","Images/NewTrialWC.png","","2"
"image-button-response","366","544227","0.0-13.0-1.102","3","Low_HMMActual","","","","","","null","","","","Images/WhiteBeadChoice.png","","null"
"image-button-response","367","544729","0.0-13.0-2.102","3","Low_HMMActual","","","","","","null","","","","Images/WhiteBeadChoiceCorrect.png","","null"
"image-button-response","368","545588","0.0-13.0-0.103","3","Low_HMMActual","","","","","","854.6649999989895","","","","Images/NewTrialWC.png","","2"
"image-button-response","369","545892","0.0-13.0-1.103","3","Low_HMMActual","","","","","","null","","","","Images/WhiteBeadChoice.png","","null"
"image-button-response","370","546396","0.0-13.0-2.103","3","Low_HMMActual","","","","","","null","","","","Images/WhiteBeadChoiceCorrect.png","","null"
"image-button-response","371","547429","0.0-13.0-0.104","3","Low_HMMActual","","","","","","1031.6449999990873","","","","Images/NewTrialWC.png","","2"
"image-button-response","372","547740","0.0-13.0-1.104","3","Low_HMMActual","","","","","","null","","","","Images/WhiteBeadChoice.png","","null"
"image-button-response","373","548243","0.0-13.0-2.104","3","Low_HMMActual","","","","","","null","","","","Images/WhiteBeadChoiceCorrect.png","","null"
"image-button-response","374","548700","0.0-13.0-0.105","3","Low_HMMActual","","","","","","455.56999999820255","","","","Images/NewTrialWC.png","","2"
"image-button-response","375","549004","0.0-13.0-1.105","3","Low_HMMActual","","","","","","null","","","","Images/WhiteBeadChoice.png","","null"
"image-button-response","376","549506","0.0-13.0-2.105","3","Low_HMMActual","","","","","","null","","","","Images/WhiteBeadChoiceWrong.png","","null"
"image-button-response","377","550741","0.0-13.0-0.106","3","Low_HMMActual","","","","","","1232.7399999994086","","","","Images/NewTrialBC.png","","3"
"image-button-response","378","551045","0.0-13.0-1.106","3","Low_HMMActual","","","","","","null","","","","Images/WhiteBeadChoice.png","","null"
"image-button-response","379","551548","0.0-13.0-2.106","3","Low_HMMActual","","","","","","null","","","","Images/WhiteBeadChoiceCorrect.png","","null"
"image-button-response","380","552069","0.0-13.0-0.107","3","Low_HMMActual","","","","","","519.560000000638","","","","Images/NewTrialWC.png","","2"
"image-button-response","381","552370","0.0-13.0-1.107","3","Low_HMMActual","","","","","","null","","","","Images/WhiteBeadChoice.png","","null"
"image-button-response","382","552877","0.0-13.0-2.107","3","Low_HMMActual","","","","","","null","","","","Images/WhiteBeadChoiceCorrect.png","","null"
"image-button-response","383","553140","0.0-13.0-0.108","3","Low_HMMActual","","","","","","261.1399999987334","","","","Images/NewTrialWC.png","","2"
"image-button-response","384","553454","0.0-13.0-1.108","3","Low_HMMActual","","","","","","null","","","","Images/WhiteBeadChoice.png","","null"
"image-button-response","385","553970","0.0-13.0-2.108","3","Low_HMMActual","","","","","","null","","","","Images/WhiteBeadChoiceWrong.png","","null"
"image-button-response","386","556485","0.0-13.0-0.109","3","Low_HMMActual","","","","","","2507.4100000020117","","","","Images/NewTrialBC.png","","3"
"image-button-response","387","556791","0.0-13.0-1.109","3","Low_HMMActual","","","","","","null","","","","Images/WhiteBeadChoice.png","","null"
"image-button-response","388","557295","0.0-13.0-2.109","3","Low_HMMActual","","","","","","null","","","","Images/WhiteBeadChoiceCorrect.png","","null"
"image-button-response","389","557773","0.0-13.0-0.110","3","Low_HMMActual","","","","","","476.0649999988964","","","","Images/NewTrialWC.png","","2"
"image-button-response","390","558080","0.0-13.0-1.110","3","Low_HMMActual","","","","","","null","","","","Images/WhiteBeadChoice.png","","null"
"image-button-response","391","558583","0.0-13.0-2.110","3","Low_HMMActual","","","","","","null","","","","Images/WhiteBeadChoiceCorrect.png","","null"
"image-button-response","392","559229","0.0-13.0-0.111","3","Low_HMMActual","","","","","","642.90500000061","","","","Images/NewTrialWC.png","","2"
"image-button-response","393","559532","0.0-13.0-1.111","3","Low_HMMActual","","","","","","null","","","","Images/WhiteBeadChoice.png","","null"
"image-button-response","394","560037","0.0-13.0-2.111","3","Low_HMMActual","","","","","","447.60500000126194","","","","Images/WhiteBeadChoiceCorrect.png","","2"
"image-button-response","395","560567","0.0-13.0-0.112","3","Low_HMMActual","","","","","","526.1399999981513","","","","Images/NewTrialWC.png","","2"
"image-button-response","396","560881","0.0-13.0-1.112","3","Low_HMMActual","","","","","","null","","","","Images/WhiteBeadChoice.png","","null"
"image-button-response","397","561396","0.0-13.0-2.112","3","Low_HMMActual","","","","","","null","","","","Images/WhiteBeadChoiceCorrect.png","","null"
"image-button-response","398","561853","0.0-13.0-0.113","3","Low_HMMActual","","","","","","455.49499999836553","","","","Images/NewTrialWC.png","","2"
"image-button-response","399","562158","0.0-13.0-1.113","3","Low_HMMActual","","","","","","null","","","","Images/WhiteBeadChoice.png","","null"
"image-button-response","400","562665","0.0-13.0-2.113","3","Low_HMMActual","","","","","","null","","","","Images/WhiteBeadChoiceCorrect.png","","null"
"image-button-response","401","562869","0.0-13.0-0.114","3","Low_HMMActual","","","","","","202.15499999909662","","","","Images/NewTrialWC.png","","2"
"image-button-response","402","563170","0.0-13.0-1.114","3","Low_HMMActual","","","","","","null","","","","Images/WhiteBeadChoice.png","","null"
"image-button-response","403","563684","0.0-13.0-2.114","3","Low_HMMActual","","","","","","null","","","","Images/WhiteBeadChoiceWrong.png","","null"
"image-button-response","404","565332","0.0-13.0-0.115","3","Low_HMMActual","","","","","","1646.3049999984214","","","","Images/NewTrialBC.png","","2"
"image-button-response","405","565635","0.0-13.0-1.115","3","Low_HMMActual","","","","","","null","","","","Images/WhiteBeadChoice.png","","null"
"image-button-response","406","566139","0.0-13.0-2.115","3","Low_HMMActual","","","","","","null","","","","Images/WhiteBeadChoiceWrong.png","","null"
"image-button-response","407","567037","0.0-13.0-0.116","3","Low_HMMActual","","","","","","895.7599999994272","","","","Images/NewTrialBC.png","","3"
"image-button-response","408","567340","0.0-13.0-1.116","3","Low_HMMActual","","","","","","null","","","","Images/WhiteBeadChoice.png","","null"
"image-button-response","409","567845","0.0-13.0-2.116","3","Low_HMMActual","","","","","","null","","","","Images/WhiteBeadChoiceWrong.png","","null"
"image-button-response","410","569181","0.0-13.0-0.117","3","Low_HMMActual","","","","","","1334.0900000002002","","","","Images/NewTrialBC.png","","1"
"image-button-response","411","569489","0.0-13.0-1.117","3","Low_HMMActual","","","","","","null","","","","Images/BlackBeadChoice.png","","null"
"image-button-response","412","569991","0.0-13.0-2.117","3","Low_HMMActual","","","","","","null","","","","Images/BlackBeadChoiceCorrect.png","","null"
"image-button-response","413","570300","0.0-13.0-0.118","3","Low_HMMActual","","","","","","299.5749999972759","","","","Images/NewTrialBC.png","","0"
"image-button-response","414","570603","0.0-13.0-1.118","3","Low_HMMActual","","","","","","null","","","","Images/BlackBeadChoice.png","","null"
"image-button-response","415","571107","0.0-13.0-2.118","3","Low_HMMActual","","","","","","null","","","","Images/BlackBeadChoiceCorrect.png","","null"
"image-button-response","416","571501","0.0-13.0-0.119","3","Low_HMMActual","","","","","","391.0799999976298","","","","Images/NewTrialBC.png","","0"
"image-button-response","417","571811","0.0-13.0-1.119","3","Low_HMMActual","","","","","","null","","","","Images/BlackBeadChoice.png","","null"
"image-button-response","418","572322","0.0-13.0-2.119","3","Low_HMMActual","","","","","","null","","","","Images/BlackBeadChoiceWrong.png","","null"
"image-button-response","419","573445","0.0-13.0-0.120","3","Low_HMMActual","","","","","","1119.380000000121","","","","Images/NewTrialWC.png","","1"
"image-button-response","420","573760","0.0-13.0-1.120","3","Low_HMMActual","","","","","","null","","","","Images/BlackBeadChoice.png","","null"
"image-button-response","421","574262","0.0-13.0-2.120","3","Low_HMMActual","","","","","","null","","","","Images/BlackBeadChoiceCorrect.png","","null"
"image-button-response","422","574868","0.0-13.0-0.121","3","Low_HMMActual","","","","","","604.1000000004424","","","","Images/NewTrialBC.png","","0"
"image-button-response","423","575183","0.0-13.0-1.121","3","Low_HMMActual","","","","","","null","","","","Images/BlackBeadChoice.png","","null"
"image-button-response","424","575692","0.0-13.0-2.121","3","Low_HMMActual","","","","","","null","","","","Images/BlackBeadChoiceCorrect.png","","null"
"image-button-response","425","576068","0.0-13.0-0.122","3","Low_HMMActual","","","","","","375.0450000007404","","","","Images/NewTrialBC.png","","0"
"image-button-response","426","576372","0.0-13.0-1.122","3","Low_HMMActual","","","","","","null","","","","Images/BlackBeadChoice.png","","null"
"image-button-response","427","576882","0.0-13.0-2.122","3","Low_HMMActual","","","","","","null","","","","Images/BlackBeadChoiceCorrect.png","","null"
"image-button-response","428","577293","0.0-13.0-0.123","3","Low_HMMActual","","","","","","408.46500000031665","","","","Images/NewTrialBC.png","","0"
"image-button-response","429","577602","0.0-13.0-1.123","3","Low_HMMActual","","","","","","null","","","","Images/BlackBeadChoice.png","","null"
"image-button-response","430","578112","0.0-13.0-2.123","3","Low_HMMActual","","","","","","null","","","","Images/BlackBeadChoiceCorrect.png","","null"
"image-button-response","431","578333","0.0-13.0-0.124","3","Low_HMMActual","","","","","","219.12000000150874","","","","Images/NewTrialBC.png","","0"
"image-button-response","432","578635","0.0-13.0-1.124","3","Low_HMMActual","","","","","","null","","","","Images/BlackBeadChoice.png","","null"
"image-button-response","433","579139","0.0-13.0-2.124","3","Low_HMMActual","","","","","","null","","","","Images/BlackBeadChoiceWrong.png","","null"
"image-button-response","434","581237","0.0-13.0-0.125","3","Low_HMMActual","","","","","","2091.144999998505","","","","Images/NewTrialWC.png","","1"
"image-button-response","435","581542","0.0-13.0-1.125","3","Low_HMMActual","","","","","","null","","","","Images/BlackBeadChoice.png","","null"
"image-button-response","436","582046","0.0-13.0-2.125","3","Low_HMMActual","","","","","","null","","","","Images/BlackBeadChoiceCorrect.png","","null"
"image-button-response","437","582548","0.0-13.0-0.126","3","Low_HMMActual","","","","","","500.1349999983795","","","","Images/NewTrialBC.png","","0"
"image-button-response","438","582863","0.0-13.0-1.126","3","Low_HMMActual","","","","","","null","","","","Images/BlackBeadChoice.png","","null"
"image-button-response","439","583366","0.0-13.0-2.126","3","Low_HMMActual","","","","","","null","","","","Images/BlackBeadChoiceCorrect.png","","null"
"image-button-response","440","583652","0.0-13.0-0.127","3","Low_HMMActual","","","","","","281.7799999975832","","","","Images/NewTrialBC.png","","0"
"image-button-response","441","583963","0.0-13.0-1.127","3","Low_HMMActual","","","","","","null","","","","Images/BlackBeadChoice.png","","null"
"image-button-response","442","584468","0.0-13.0-2.127","3","Low_HMMActual","","","","","","null","","","","Images/BlackBeadChoiceCorrect.png","","null"
"image-button-response","443","584964","0.0-13.0-0.128","3","Low_HMMActual","","","","","","493.7099999987986","","","","Images/NewTrialBC.png","","0"
"image-button-response","444","585276","0.0-13.0-1.128","3","Low_HMMActual","","","","","","null","","","","Images/BlackBeadChoice.png","","null"
"image-button-response","445","585785","0.0-13.0-2.128","3","Low_HMMActual","","","","","","null","","","","Images/BlackBeadChoiceCorrect.png","","null"
"image-button-response","446","586132","0.0-13.0-0.129","3","Low_HMMActual","","","","","","345.6399999994319","","","","Images/NewTrialBC.png","","0"
"image-button-response","447","586438","0.0-13.0-1.129","3","Low_HMMActual","","","","","","null","","","","Images/BlackBeadChoice.png","","null"
"image-button-response","448","586950","0.0-13.0-2.129","3","Low_HMMActual","","","","","","null","","","","Images/BlackBeadChoiceCorrect.png","","null"
"image-button-response","449","588188","0.0-13.0-0.130","3","Low_HMMActual","","","","","","1235.740000000107","","","","Images/NewTrialBC.png","","1"
"image-button-response","450","588503","0.0-13.0-1.130","3","Low_HMMActual","","","","","","null","","","","Images/BlackBeadChoice.png","","null"
"image-button-response","451","589005","0.0-13.0-2.130","3","Low_HMMActual","","","","","","null","","","","Images/BlackBeadChoiceCorrect.png","","null"
"image-button-response","452","589173","0.0-13.0-0.131","3","Low_HMMActual","","","","","","164.32499999785796","","","","Images/NewTrialBC.png","","0"
"image-button-response","453","589481","0.0-13.0-1.131","3","Low_HMMActual","","","","","","null","","","","Images/BlackBeadChoice.png","","null"
"image-button-response","454","589998","0.0-13.0-2.131","3","Low_HMMActual","","","","","","null","","","","Images/BlackBeadChoiceCorrect.png","","null"
"image-button-response","455","590436","0.0-13.0-0.132","3","Low_HMMActual","","","","","","436.20000000006985","","","","Images/NewTrialBC.png","","0"
"image-button-response","456","590741","0.0-13.0-1.132","3","Low_HMMActual","","","","","","null","","","","Images/BlackBeadChoice.png","","null"
"image-button-response","457","591255","0.0-13.0-2.132","3","Low_HMMActual","","","","","","null","","","","Images/BlackBeadChoiceCorrect.png","","null"
"image-button-response","458","591724","0.0-13.0-0.133","3","Low_HMMActual","","","","","","467.0350000014296","","","","Images/NewTrialBC.png","","0"
"image-button-response","459","592029","0.0-13.0-1.133","3","Low_HMMActual","","","","","","null","","","","Images/BlackBeadChoice.png","","null"
"image-button-response","460","592538","0.0-13.0-2.133","3","Low_HMMActual","","","","","","null","","","","Images/BlackBeadChoiceCorrect.png","","null"
"image-button-response","461","593740","0.0-13.0-0.134","3","Low_HMMActual","","","","","","1200.700000001234","","","","Images/NewTrialBC.png","","0"
"image-button-response","462","594055","0.0-13.0-1.134","3","Low_HMMActual","","","","","","null","","","","Images/BlackBeadChoice.png","","null"
"image-button-response","463","594559","0.0-13.0-2.134","3","Low_HMMActual","","","","","","null","","","","Images/BlackBeadChoiceWrong.png","","null"
"image-button-response","464","596268","0.0-13.0-0.135","3","Low_HMMActual","","","","","","1707.4350000002887","","","","Images/NewTrialWC.png","","0"
"image-button-response","465","596575","0.0-13.0-1.135","3","Low_HMMActual","","","","","","null","","","","Images/BlackBeadChoice.png","","null"
"image-button-response","466","597092","0.0-13.0-2.135","3","Low_HMMActual","","","","","","null","","","","Images/BlackBeadChoiceCorrect.png","","null"
"image-button-response","467","597733","0.0-13.0-0.136","3","Low_HMMActual","","","","","","638.4649999999674","","","","Images/NewTrialBC.png","","0"
"image-button-response","468","598038","0.0-13.0-1.136","3","Low_HMMActual","","","","","","null","","","","Images/BlackBeadChoice.png","","null"
"image-button-response","469","598547","0.0-13.0-2.136","3","Low_HMMActual","","","","","","null","","","","Images/BlackBeadChoiceCorrect.png","","null"
"image-button-response","470","598829","0.0-13.0-0.137","3","Low_HMMActual","","","","","","279.77000000106636","","","","Images/NewTrialBC.png","","0"
"image-button-response","471","599142","0.0-13.0-1.137","3","Low_HMMActual","","","","","","null","","","","Images/BlackBeadChoice.png","","null"
"image-button-response","472","599655","0.0-13.0-2.137","3","Low_HMMActual","","","","","","null","","","","Images/BlackBeadChoiceWrong.png","","null"
"image-button-response","473","601316","0.0-13.0-0.138","3","Low_HMMActual","","","","","","1660.115000002319","","","","Images/NewTrialWC.png","","0"
"image-button-response","474","601619","0.0-13.0-1.138","3","Low_HMMActual","","","","","","null","","","","Images/BlackBeadChoice.png","","null"
"image-button-response","475","602130","0.0-13.0-2.138","3","Low_HMMActual","","","","","","null","","","","Images/BlackBeadChoiceWrong.png","","null"
"image-button-response","476","602917","0.0-13.0-0.139","3","Low_HMMActual","","","","","","784.6900000004098","","","","Images/NewTrialWC.png","","1"
"image-button-response","477","603222","0.0-13.0-1.139","3","Low_HMMActual","","","","","","null","","","","Images/BlackBeadChoice.png","","null"
"image-button-response","478","603733","0.0-13.0-2.139","3","Low_HMMActual","","","","","","null","","","","Images/BlackBeadChoiceCorrect.png","","null"
"image-button-response","479","604493","0.0-13.0-0.140","3","Low_HMMActual","","","","","","757.2699999982724","","","","Images/NewTrialBC.png","","0"
"image-button-response","480","604808","0.0-13.0-1.140","3","Low_HMMActual","","","","","","null","","","","Images/BlackBeadChoice.png","","null"
"image-button-response","481","605316","0.0-13.0-2.140","3","Low_HMMActual","","","","","","null","","","","Images/BlackBeadChoiceWrong.png","","null"
"image-button-response","482","605989","0.0-13.0-0.141","3","Low_HMMActual","","","","","","669.8150000011083","","","","Images/NewTrialWC.png","","1"
"image-button-response","483","606293","0.0-13.0-1.141","3","Low_HMMActual","","","","","","null","","","","Images/BlackBeadChoice.png","","null"
"image-button-response","484","606798","0.0-13.0-2.141","3","Low_HMMActual","","","","","","null","","","","Images/BlackBeadChoiceCorrect.png","","null"
"image-button-response","485","607181","0.0-13.0-0.142","3","Low_HMMActual","","","","","","379.86000000103377","","","","Images/NewTrialBC.png","","0"
"image-button-response","486","607492","0.0-13.0-1.142","3","Low_HMMActual","","","","","","null","","","","Images/BlackBeadChoice.png","","null"
"image-button-response","487","608002","0.0-13.0-2.142","3","Low_HMMActual","","","","","","null","","","","Images/BlackBeadChoiceCorrect.png","","null"
"image-button-response","488","608452","0.0-13.0-0.143","3","Low_HMMActual","","","","","","448.8050000000512","","","","Images/NewTrialBC.png","","0"
"image-button-response","489","608769","0.0-13.0-1.143","3","Low_HMMActual","","","","","","null","","","","Images/BlackBeadChoice.png","","null"
"image-button-response","490","609280","0.0-13.0-2.143","3","Low_HMMActual","","","","","","null","","","","Images/BlackBeadChoiceCorrect.png","","null"
"image-button-response","491","609765","0.0-13.0-0.144","3","Low_HMMActual","","","","","","482.86000000010245","","","","Images/NewTrialBC.png","","0"
"image-button-response","492","610072","0.0-13.0-1.144","3","Low_HMMActual","","","","","","null","","","","Images/BlackBeadChoice.png","","null"
"image-button-response","493","610589","0.0-13.0-2.144","3","Low_HMMActual","","","","","","null","","","","Images/BlackBeadChoiceCorrect.png","","null"
"image-button-response","494","610837","0.0-13.0-0.145","3","Low_HMMActual","","","","","","243.705000000773","","","","Images/NewTrialBC.png","","0"
"image-button-response","495","611139","0.0-13.0-1.145","3","Low_HMMActual","","","","","","null","","","","Images/BlackBeadChoice.png","","null"
"image-button-response","496","611647","0.0-13.0-2.145","3","Low_HMMActual","","","","","","null","","","","Images/BlackBeadChoiceWrong.png","","null"
"image-button-response","497","612780","0.0-13.0-0.146","3","Low_HMMActual","","","","","","1132.174999998766","","","","Images/NewTrialWC.png","","0"
"image-button-response","498","613085","0.0-13.0-1.146","3","Low_HMMActual","","","","","","null","","","","Images/BlackBeadChoice.png","","null"
"image-button-response","499","613592","0.0-13.0-2.146","3","Low_HMMActual","","","","","","null","","","","Images/BlackBeadChoiceCorrect.png","","null"
"image-button-response","500","614093","0.0-13.0-0.147","3","Low_HMMActual","","","","","","498.4499999990221","","","","Images/NewTrialBC.png","","0"
"image-button-response","501","614399","0.0-13.0-1.147","3","Low_HMMActual","","","","","","null","","","","Images/BlackBeadChoice.png","","null"
"image-button-response","502","614905","0.0-13.0-2.147","3","Low_HMMActual","","","","","","null","","","","Images/BlackBeadChoiceWrong.png","","null"
"image-button-response","503","615653","0.0-13.0-0.148","3","Low_HMMActual","","","","","","746.1550000007264","","","","Images/NewTrialWC.png","","1"
"image-button-response","504","615960","0.0-13.0-1.148","3","Low_HMMActual","","","","","","null","","","","Images/BlackBeadChoice.png","","null"
"image-button-response","505","616462","0.0-13.0-2.148","3","Low_HMMActual","","","","","","null","","","","Images/BlackBeadChoiceCorrect.png","","null"
"image-button-response","506","617692","0.0-13.0-0.149","3","Low_HMMActual","","","","","","1228.6349999995437","","","","Images/NewTrialBC.png","","0"
"image-button-response","507","617994","0.0-13.0-1.149","3","Low_HMMActual","","","","","","null","","","","Images/BlackBeadChoice.png","","null"
"image-button-response","508","618497","0.0-13.0-2.149","3","Low_HMMActual","","","","","","null","","","","Images/BlackBeadChoiceCorrect.png","","null"
"image-button-response","509","618797","0.0-13.0-0.150","3","Low_HMMActual","","","","","","298.8649999970803","","","","Images/NewTrialBC.png","","0"
"image-button-response","510","619100","0.0-13.0-1.150","3","Low_HMMActual","","","","","","null","","","","Images/BlackBeadChoice.png","","null"
"image-button-response","511","619604","0.0-13.0-2.150","3","Low_HMMActual","","","","","","null","","","","Images/BlackBeadChoiceCorrect.png","","null"
"image-button-response","512","620044","0.0-13.0-0.151","3","Low_HMMActual","","","","","","439.24499999766704","","","","Images/NewTrialBC.png","","0"
"image-button-response","513","620348","0.0-13.0-1.151","3","Low_HMMActual","","","","","","null","","","","Images/BlackBeadChoice.png","","null"
"image-button-response","514","620860","0.0-13.0-2.151","3","Low_HMMActual","","","","","","null","","","","Images/BlackBeadChoiceCorrect.png","","null"
"image-button-response","515","621301","0.0-13.0-0.152","3","Low_HMMActual","","","","","","436.28499999968335","","","","Images/NewTrialBC.png","","0"
"image-button-response","516","621608","0.0-13.0-1.152","3","Low_HMMActual","","","","","","null","","","","Images/BlackBeadChoice.png","","null"
"image-button-response","517","622110","0.0-13.0-2.152","3","Low_HMMActual","","","","","","null","","","","Images/BlackBeadChoiceWrong.png","","null"
"image-button-response","518","622756","0.0-13.0-0.153","3","Low_HMMActual","","","","","","645.0849999964703","","","","Images/NewTrialWC.png","","1"
"image-button-response","519","623062","0.0-13.0-1.153","3","Low_HMMActual","","","","","","null","","","","Images/BlackBeadChoice.png","","null"
"image-button-response","520","623564","0.0-13.0-2.153","3","Low_HMMActual","","","","","","null","","","","Images/BlackBeadChoiceCorrect.png","","null"
"image-button-response","521","623845","0.0-13.0-0.154","3","Low_HMMActual","","","","","","276.20500000193715","","","","Images/NewTrialBC.png","","0"
"image-button-response","522","624150","0.0-13.0-1.154","3","Low_HMMActual","","","","","","null","","","","Images/BlackBeadChoice.png","","null"
"image-button-response","523","624660","0.0-13.0-2.154","3","Low_HMMActual","","","","","","null","","","","Images/BlackBeadChoiceCorrect.png","","null"
"image-button-response","524","624989","0.0-13.0-0.155","3","Low_HMMActual","","","","","","326.03000000014435","","","","Images/NewTrialBC.png","","0"
"image-button-response","525","625295","0.0-13.0-1.155","3","Low_HMMActual","","","","","","null","","","","Images/BlackBeadChoice.png","","null"
"image-button-response","526","625810","0.0-13.0-2.155","3","Low_HMMActual","","","","","","null","","","","Images/BlackBeadChoiceCorrect.png","","null"
"image-button-response","527","626140","0.0-13.0-0.156","3","Low_HMMActual","","","","","","328.3750000009313","","","","Images/NewTrialBC.png","","0"
"image-button-response","528","626448","0.0-13.0-1.156","3","Low_HMMActual","","","","","","null","","","","Images/BlackBeadChoice.png","","null"
"image-button-response","529","626963","0.0-13.0-2.156","3","Low_HMMActual","","","","","","null","","","","Images/BlackBeadChoiceWrong.png","","null"
"image-button-response","530","628900","0.0-13.0-0.157","3","Low_HMMActual","","","","","","1935.160000000964","","","","Images/NewTrialWC.png","","1"
"image-button-response","531","629215","0.0-13.0-1.157","3","Low_HMMActual","","","","","","null","","","","Images/BlackBeadChoice.png","","null"
"image-button-response","532","629720","0.0-13.0-2.157","3","Low_HMMActual","","","","","","null","","","","Images/BlackBeadChoiceWrong.png","","null"
"image-button-response","533","631029","0.0-13.0-0.158","3","Low_HMMActual","","","","","","1306.4250000024913","","","","Images/NewTrialWC.png","","1"
"image-button-response","534","631330","0.0-13.0-1.158","3","Low_HMMActual","","","","","","null","","","","Images/BlackBeadChoice.png","","null"
"image-button-response","535","631833","0.0-13.0-2.158","3","Low_HMMActual","","","","","","null","","","","Images/BlackBeadChoiceWrong.png","","null"
"image-button-response","536","632349","0.0-13.0-0.159","3","Low_HMMActual","","","","","","513.8049999986542","","","","Images/NewTrialWC.png","","2"
"image-button-response","537","632654","0.0-13.0-1.159","3","Low_HMMActual","","","","","","null","","","","Images/WhiteBeadChoice.png","","null"
"image-button-response","538","633160","0.0-13.0-2.159","3","Low_HMMActual","","","","","","null","","","","Images/WhiteBeadChoiceWrong.png","","null"
"image-button-response","539","634277","0.0-13.0-0.160","3","Low_HMMActual","","","","","","1112.0300000001444","","","","Images/NewTrialBC.png","","3"
"image-button-response","540","634590","0.0-13.0-1.160","3","Low_HMMActual","","","","","","null","","","","Images/WhiteBeadChoice.png","","null"
"image-button-response","541","635092","0.0-13.0-2.160","3","Low_HMMActual","","","","","","null","","","","Images/WhiteBeadChoiceWrong.png","","null"
"image-button-response","542","637861","0.0-13.0-0.161","3","Low_HMMActual","","","","","","2767.364999999758","","","","Images/NewTrialBC.png","","1"
"image-button-response","543","638166","0.0-13.0-1.161","3","Low_HMMActual","","","","","","null","","","","Images/BlackBeadChoice.png","","null"
"image-button-response","544","638671","0.0-13.0-2.161","3","Low_HMMActual","","","","","","null","","","","Images/BlackBeadChoiceCorrect.png","","null"
"image-button-response","545","639501","0.0-13.0-0.162","3","Low_HMMActual","","","","","","827.0149999989662","","","","Images/NewTrialBC.png","","0"
"image-button-response","546","639810","0.0-13.0-1.162","3","Low_HMMActual","","","","","","null","","","","Images/BlackBeadChoice.png","","null"
"image-button-response","547","640325","0.0-13.0-2.162","3","Low_HMMActual","","","","","","null","","","","Images/BlackBeadChoiceCorrect.png","","null"
"image-button-response","548","640605","0.0-13.0-0.163","3","Low_HMMActual","","","","","","277.98499999695923","","","","Images/NewTrialBC.png","","0"
"image-button-response","549","640907","0.0-13.0-1.163","3","Low_HMMActual","","","","","","null","","","","Images/BlackBeadChoice.png","","null"
"image-button-response","550","641411","0.0-13.0-2.163","3","Low_HMMActual","","","","","","null","","","","Images/BlackBeadChoiceWrong.png","","null"
"image-button-response","551","642084","0.0-13.0-0.164","3","Low_HMMActual","","","","","","669.5449999971315","","","","Images/NewTrialWC.png","","0"
"image-button-response","552","642389","0.0-13.0-1.164","3","Low_HMMActual","","","","","","null","","","","Images/BlackBeadChoice.png","","null"
"image-button-response","553","642894","0.0-13.0-2.164","3","Low_HMMActual","","","","","","null","","","","Images/BlackBeadChoiceCorrect.png","","null"
"image-button-response","554","643356","0.0-13.0-0.165","3","Low_HMMActual","","","","","","460.80000000074506","","","","Images/NewTrialBC.png","","0"
"image-button-response","555","643664","0.0-13.0-1.165","3","Low_HMMActual","","","","","","null","","","","Images/BlackBeadChoice.png","","null"
"image-button-response","556","644168","0.0-13.0-2.165","3","Low_HMMActual","","","","","","null","","","","Images/BlackBeadChoiceCorrect.png","","null"
"image-button-response","557","644540","0.0-13.0-0.166","3","Low_HMMActual","","","","","","369.365000002319","","","","Images/NewTrialBC.png","","0"
"image-button-response","558","644852","0.0-13.0-1.166","3","Low_HMMActual","","","","","","null","","","","Images/BlackBeadChoice.png","","null"
"image-button-response","559","645358","0.0-13.0-2.166","3","Low_HMMActual","","","","","","null","","","","Images/BlackBeadChoiceCorrect.png","","null"
"image-button-response","560","646036","0.0-13.0-0.167","3","Low_HMMActual","","","","","","675.8449999978766","","","","Images/NewTrialBC.png","","0"
"image-button-response","561","646350","0.0-13.0-1.167","3","Low_HMMActual","","","","","","null","","","","Images/BlackBeadChoice.png","","null"
"image-button-response","562","646865","0.0-13.0-2.167","3","Low_HMMActual","","","","","","null","","","","Images/BlackBeadChoiceCorrect.png","","null"
"image-button-response","563","647396","0.0-13.0-0.168","3","Low_HMMActual","","","","","","527.5099999997765","","","","Images/NewTrialBC.png","","0"
"image-button-response","564","647700","0.0-13.0-1.168","3","Low_HMMActual","","","","","","null","","","","Images/BlackBeadChoice.png","","null"
"image-button-response","565","648217","0.0-13.0-2.168","3","Low_HMMActual","","","","","","null","","","","Images/BlackBeadChoiceCorrect.png","","null"
"image-button-response","566","648612","0.0-13.0-0.169","3","Low_HMMActual","","","","","","393.19500000053085","","","","Images/NewTrialBC.png","","0"
"image-button-response","567","648919","0.0-13.0-1.169","3","Low_HMMActual","","","","","","null","","","","Images/BlackBeadChoice.png","","null"
"image-button-response","568","649425","0.0-13.0-2.169","3","Low_HMMActual","","","","","","null","","","","Images/BlackBeadChoiceCorrect.png","","null"
"image-button-response","569","650055","0.0-13.0-0.170","3","Low_HMMActual","","","","","","625.4349999980768","","","","Images/NewTrialBC.png","","0"
"image-button-response","570","650365","0.0-13.0-1.170","3","Low_HMMActual","","","","","","null","","","","Images/BlackBeadChoice.png","","null"
"image-button-response","571","650874","0.0-13.0-2.170","3","Low_HMMActual","","","","","","null","","","","Images/BlackBeadChoiceWrong.png","","null"
"image-button-response","572","652092","0.0-13.0-0.171","3","Low_HMMActual","","","","","","1216.6900000011083","","","","Images/NewTrialWC.png","","0"
"image-button-response","573","652400","0.0-13.0-1.171","3","Low_HMMActual","","","","","","null","","","","Images/BlackBeadChoice.png","","null"
"image-button-response","574","652913","0.0-13.0-2.171","3","Low_HMMActual","","","","","","null","","","","Images/BlackBeadChoiceCorrect.png","","null"
"image-button-response","575","653700","0.0-13.0-0.172","3","Low_HMMActual","","","","","","785.735000001383","","","","Images/NewTrialBC.png","","0"
"image-button-response","576","654006","0.0-13.0-1.172","3","Low_HMMActual","","","","","","null","","","","Images/BlackBeadChoice.png","","null"
"image-button-response","577","654522","0.0-13.0-2.172","3","Low_HMMActual","","","","","","null","","","","Images/BlackBeadChoiceCorrect.png","","null"
"image-button-response","578","654844","0.0-13.0-0.173","3","Low_HMMActual","","","","","","321.1250000022119","","","","Images/NewTrialBC.png","","0"
"image-button-response","579","655155","0.0-13.0-1.173","3","Low_HMMActual","","","","","","null","","","","Images/BlackBeadChoice.png","","null"
"image-button-response","580","655672","0.0-13.0-2.173","3","Low_HMMActual","","","","","","null","","","","Images/BlackBeadChoiceWrong.png","","null"
"image-button-response","581","660021","0.0-13.0-0.174","3","Low_HMMActual","","","","","","4346.27499999979","","","","Images/NewTrialWC.png","","1"
"image-button-response","582","660332","0.0-13.0-1.174","3","Low_HMMActual","","","","","","null","","","","Images/BlackBeadChoice.png","","null"
"image-button-response","583","660834","0.0-13.0-2.174","3","Low_HMMActual","","","","","","null","","","","Images/BlackBeadChoiceCorrect.png","","null"
"image-button-response","584","661253","0.0-13.0-0.175","3","Low_HMMActual","","","","","","416.4500000006519","","","","Images/NewTrialBC.png","","0"
"image-button-response","585","661558","0.0-13.0-1.175","3","Low_HMMActual","","","","","","null","","","","Images/BlackBeadChoice.png","","null"
"image-button-response","586","662068","0.0-13.0-2.175","3","Low_HMMActual","","","","","","null","","","","Images/BlackBeadChoiceWrong.png","","null"
"image-button-response","587","662564","0.0-13.0-0.176","3","Low_HMMActual","","","","","","495.30500000040047","","","","Images/NewTrialWC.png","","0"
"image-button-response","588","662872","0.0-13.0-1.176","3","Low_HMMActual","","","","","","null","","","","Images/BlackBeadChoice.png","","null"
"image-button-response","589","663380","0.0-13.0-2.176","3","Low_HMMActual","","","","","","null","","","","Images/BlackBeadChoiceCorrect.png","","null"
"image-button-response","590","663644","0.0-13.0-0.177","3","Low_HMMActual","","","","","","263.30500000040047","","","","Images/NewTrialBC.png","","0"
"image-button-response","591","663955","0.0-13.0-1.177","3","Low_HMMActual","","","","","","null","","","","Images/BlackBeadChoice.png","","null"
"image-button-response","592","664469","0.0-13.0-2.177","3","Low_HMMActual","","","","","","null","","","","Images/BlackBeadChoiceCorrect.png","","null"
"image-button-response","593","664652","0.0-13.0-0.178","3","Low_HMMActual","","","","","","181.205000000773","","","","Images/NewTrialBC.png","","0"
"image-button-response","594","664955","0.0-13.0-1.178","3","Low_HMMActual","","","","","","null","","","","Images/BlackBeadChoice.png","","null"
"image-button-response","595","665458","0.0-13.0-2.178","3","Low_HMMActual","","","","","","null","","","","Images/BlackBeadChoiceWrong.png","","null"
"image-button-response","596","667908","0.0-13.0-0.179","3","Low_HMMActual","","","","","","2448.350000002305","","","","Images/NewTrialWC.png","","1"
"image-button-response","597","668223","0.0-13.0-1.179","3","Low_HMMActual","","","","","","null","","","","Images/BlackBeadChoice.png","","null"
"image-button-response","598","668726","0.0-13.0-2.179","3","Low_HMMActual","","","","","","null","","","","Images/BlackBeadChoiceCorrect.png","","null"
"image-button-response","599","669924","0.0-13.0-0.180","3","Low_HMMActual","","","","","","1197.2649999989662","","","","Images/NewTrialBC.png","","0"
"image-button-response","600","670226","0.0-13.0-1.180","3","Low_HMMActual","","","","","","null","","","","Images/BlackBeadChoice.png","","null"
"image-button-response","601","670731","0.0-13.0-2.180","3","Low_HMMActual","","","","","","null","","","","Images/BlackBeadChoiceWrong.png","","null"
"image-button-response","602","671524","0.0-13.0-0.181","3","Low_HMMActual","","","","","","790.8749999988358","","","","Images/NewTrialWC.png","","0"
"image-button-response","603","671838","0.0-13.0-1.181","3","Low_HMMActual","","","","","","null","","","","Images/BlackBeadChoice.png","","null"
"image-button-response","604","672348","0.0-13.0-2.181","3","Low_HMMActual","","","","","","null","","","","Images/BlackBeadChoiceWrong.png","","null"
"image-button-response","605","673108","0.0-13.0-0.182","3","Low_HMMActual","","","","","","758.2399999991758","","","","Images/NewTrialWC.png","","1"
"image-button-response","606","673423","0.0-13.0-1.182","3","Low_HMMActual","","","","","","null","","","","Images/BlackBeadChoice.png","","null"
"image-button-response","607","673926","0.0-13.0-2.182","3","Low_HMMActual","","","","","","null","","","","Images/BlackBeadChoiceWrong.png","","null"
"image-button-response","608","674444","0.0-13.0-0.183","3","Low_HMMActual","","","","","","516.7299999993993","","","","Images/NewTrialWC.png","","2"
"image-button-response","609","674750","0.0-13.0-1.183","3","Low_HMMActual","","","","","","null","","","","Images/WhiteBeadChoice.png","","null"
"image-button-response","610","675263","0.0-13.0-2.183","3","Low_HMMActual","","","","","","null","","","","Images/WhiteBeadChoiceCorrect.png","","null"
"image-button-response","611","675764","0.0-13.0-0.184","3","Low_HMMActual","","","","","","498.9050000003772","","","","Images/NewTrialWC.png","","2"
"image-button-response","612","676073","0.0-13.0-1.184","3","Low_HMMActual","","","","","","null","","","","Images/WhiteBeadChoice.png","","null"
"image-button-response","613","676595","0.0-13.0-2.184","3","Low_HMMActual","","","","","","null","","","","Images/WhiteBeadChoiceCorrect.png","","null"
"image-button-response","614","677244","0.0-13.0-0.185","3","Low_HMMActual","","","","","","646.1950000012293","","","","Images/NewTrialWC.png","","2"
"image-button-response","615","677559","0.0-13.0-1.185","3","Low_HMMActual","","","","","","null","","","","Images/WhiteBeadChoice.png","","null"
"image-button-response","616","678067","0.0-13.0-2.185","3","Low_HMMActual","","","","","","null","","","","Images/WhiteBeadChoiceWrong.png","","null"
"image-button-response","617","679212","0.0-13.0-0.186","3","Low_HMMActual","","","","","","1143.2249999998603","","","","Images/NewTrialBC.png","","2"
"image-button-response","618","679524","0.0-13.0-1.186","3","Low_HMMActual","","","","","","null","","","","Images/WhiteBeadChoice.png","","null"
"image-button-response","619","680041","0.0-13.0-2.186","3","Low_HMMActual","","","","","","null","","","","Images/WhiteBeadChoiceCorrect.png","","null"
"image-button-response","620","680604","0.0-13.0-0.187","3","Low_HMMActual","","","","","","561.3300000004238","","","","Images/NewTrialWC.png","","2"
"image-button-response","621","680914","0.0-13.0-1.187","3","Low_HMMActual","","","","","","null","","","","Images/WhiteBeadChoice.png","","null"
"image-button-response","622","681417","0.0-13.0-2.187","3","Low_HMMActual","","","","","","null","","","","Images/WhiteBeadChoiceWrong.png","","null"
"image-button-response","623","683356","0.0-13.0-0.188","3","Low_HMMActual","","","","","","1937.9699999990407","","","","Images/NewTrialBC.png","","2"
"image-button-response","624","683669","0.0-13.0-1.188","3","Low_HMMActual","","","","","","null","","","","Images/WhiteBeadChoice.png","","null"
"image-button-response","625","684180","0.0-13.0-2.188","3","Low_HMMActual","","","","","","null","","","","Images/WhiteBeadChoiceCorrect.png","","null"
"image-button-response","626","684676","0.0-13.0-0.189","3","Low_HMMActual","","","","","","494.29500000039116","","","","Images/NewTrialWC.png","","2"
"image-button-response","627","684987","0.0-13.0-1.189","3","Low_HMMActual","","","","","","null","","","","Images/WhiteBeadChoice.png","","null"
"image-button-response","628","685492","0.0-13.0-2.189","3","Low_HMMActual","","","","","","null","","","","Images/WhiteBeadChoiceCorrect.png","","null"
"image-button-response","629","685772","0.0-13.0-0.190","3","Low_HMMActual","","","","","","278.88499999966007","","","","Images/NewTrialWC.png","","2"
"image-button-response","630","686083","0.0-13.0-1.190","3","Low_HMMActual","","","","","","null","","","","Images/WhiteBeadChoice.png","","null"
"image-button-response","631","686585","0.0-13.0-2.190","3","Low_HMMActual","","","","","","null","","","","Images/WhiteBeadChoiceCorrect.png","","null"
"image-button-response","632","686740","0.0-13.0-0.191","3","Low_HMMActual","","","","","","154.21000000054482","","","","Images/NewTrialWC.png","","3"
"image-button-response","633","687055","0.0-13.0-1.191","3","Low_HMMActual","","","","","","null","","","","Images/WhiteBeadChoice.png","","null"
"image-button-response","634","687559","0.0-13.0-2.191","3","Low_HMMActual","","","","","","null","","","","Images/WhiteBeadChoiceCorrect.png","","null"
"image-button-response","635","688989","0.0-13.0-0.192","3","Low_HMMActual","","","","","","1425.3900000002468","","","","Images/NewTrialWC.png","","3"
"image-button-response","636","689304","0.0-13.0-1.192","3","Low_HMMActual","","","","","","null","","","","Images/WhiteBeadChoice.png","","null"
"image-button-response","637","689809","0.0-13.0-2.192","3","Low_HMMActual","","","","","","null","","","","Images/WhiteBeadChoiceCorrect.png","","null"
"image-button-response","638","690244","0.0-13.0-0.193","3","Low_HMMActual","","","","","","433.3799999986077","","","","Images/NewTrialWC.png","","3"
"image-button-response","639","690548","0.0-13.0-1.193","3","Low_HMMActual","","","","","","null","","","","Images/WhiteBeadChoice.png","","null"
"image-button-response","640","691060","0.0-13.0-2.193","3","Low_HMMActual","","","","","","null","","","","Images/WhiteBeadChoiceCorrect.png","","null"
"image-button-response","641","692260","0.0-13.0-0.194","3","Low_HMMActual","","","","","","1191.7599999979138","","","","Images/NewTrialWC.png","","3"
"image-button-response","642","692562","0.0-13.0-1.194","3","Low_HMMActual","","","","","","null","","","","Images/WhiteBeadChoice.png","","null"
"image-button-response","643","693064","0.0-13.0-2.194","3","Low_HMMActual","","","","","","null","","","","Images/WhiteBeadChoiceWrong.png","","null"
"image-button-response","644","694436","0.0-13.0-0.195","3","Low_HMMActual","","","","","","1370.6500000007218","","","","Images/NewTrialBC.png","","2"
"image-button-response","645","694738","0.0-13.0-1.195","3","Low_HMMActual","","","","","","null","","","","Images/WhiteBeadChoice.png","","null"
"image-button-response","646","695245","0.0-13.0-2.195","3","Low_HMMActual","","","","","","null","","","","Images/WhiteBeadChoiceWrong.png","","null"
"image-button-response","647","696860","0.0-13.0-0.196","3","Low_HMMActual","","","","","","1611.9950000030221","","","","Images/NewTrialBC.png","","2"
"image-button-response","648","697169","0.0-13.0-1.196","3","Low_HMMActual","","","","","","null","","","","Images/WhiteBeadChoice.png","","null"
"image-button-response","649","697671","0.0-13.0-2.196","3","Low_HMMActual","","","","","","null","","","","Images/WhiteBeadChoiceCorrect.png","","null"
"image-button-response","650","698220","0.0-13.0-0.197","3","Low_HMMActual","","","","","","548.2199999969453","","","","Images/NewTrialWC.png","","2"
"image-button-response","651","698525","0.0-13.0-1.197","3","Low_HMMActual","","","","","","null","","","","Images/WhiteBeadChoice.png","","null"
"image-button-response","652","699037","0.0-13.0-2.197","3","Low_HMMActual","","","","","","null","","","","Images/WhiteBeadChoiceCorrect.png","","null"
"image-button-response","653","699589","0.0-13.0-0.198","3","Low_HMMActual","","","","","","549.0150000004796","","","","Images/NewTrialWC.png","","2"
"image-button-response","654","699890","0.0-13.0-1.198","3","Low_HMMActual","","","","","","null","","","","Images/WhiteBeadChoice.png","","null"
"image-button-response","655","700399","0.0-13.0-2.198","3","Low_HMMActual","","","","","","null","","","","Images/WhiteBeadChoiceCorrect.png","","null"
"image-button-response","656","700941","0.0-13.0-0.199","3","Low_HMMActual","","","","","","537.9400000019232","","","","Images/NewTrialWC.png","","2"
"image-button-response","657","701244","0.0-13.0-1.199","3","Low_HMMActual","","","","","","null","","","","Images/WhiteBeadChoice.png","","null"
"image-button-response","658","701746","0.0-13.0-2.199","3","Low_HMMActual","","","","","","null","","","","Images/WhiteBeadChoiceCorrect.png","","null"
"image-button-response","659","702021","0.0-13.0-0.200","3","Low_HMMActual","","","","","","273.1649999987567","","","","Images/NewTrialWC.png","","3"
"image-button-response","660","702326","0.0-13.0-1.200","3","Low_HMMActual","","","","","","null","","","","Images/WhiteBeadChoice.png","","null"
"image-button-response","661","702841","0.0-13.0-2.200","3","Low_HMMActual","","","","","","null","","","","Images/WhiteBeadChoiceCorrect.png","","null"
"image-button-response","662","703453","0.0-13.0-0.201","3","Low_HMMActual","","","","","","609.230000001844","","","","Images/NewTrialWC.png","","3"
"image-button-response","663","703767","0.0-13.0-1.201","3","Low_HMMActual","","","","","","null","","","","Images/WhiteBeadChoice.png","","null"
"image-button-response","664","704278","0.0-13.0-2.201","3","Low_HMMActual","","","","","","null","","","","Images/WhiteBeadChoiceCorrect.png","","null"
"image-button-response","665","705245","0.0-13.0-0.202","3","Low_HMMActual","","","","","","963.950000001234","","","","Images/NewTrialWC.png","","3"
