"trial_type","trial_index","time_elapsed","internal_node_id","Script_Picker","Block_Type","success","timeout","failed_images","failed_audio","failed_video","rt","url","responses","question_order","stimulus","key_press","response"
"pavlovia","0","247","0.0-0.0","1","Low_HMMActual","","","","","","","","","","","",""
"preload","1","261","0.0-1.0","1","Low_HMMActual","true","false","[]","[]","[]","","","","","","",""
"external-html","2","103726","0.0-2.0-0.0","1","Low_HMMActual","","","","","","102084.48999999382","consent.html","","","","",""
"survey-multi-choice","3","110656","0.0-2.0-1.0","1","Low_HMMActual","","","","","","6920.954999994137","","{""Q0"":""Male"",""Q1"":""Hispanic or Latino""}","[0,1]","","",""
"survey-text","4","115202","0.0-2.0-2.0","1","Low_HMMActual","","","","","","4533.049999998184","","{""Q0"":""18""}","","","",""
"survey-text","5","118062","0.0-2.0-3.0","1","Low_HMMActual","","","","","","2753.5399999906076","","{""Q0"":""5fac64459b026623cd66e469""}","","","",""
"image-keyboard-response","6","131220","0.0-3.0-0.0","1","Low_HMMActual","","","","","","13029.080000007525","","","","tutorial/tutorial1.png"," ",""
"image-keyboard-response","7","139992","0.0-3.0-0.1","1","Low_HMMActual","","","","","","8766.929999997956","","","","tutorial/tutorial2.png"," ",""
"image-keyboard-response","8","146376","0.0-3.0-0.2","1","Low_HMMActual","","","","","","6377.65500000387","","","","tutorial/tutorial3.png"," ",""
"image-keyboard-response","9","150420","0.0-3.0-0.3","1","Low_HMMActual","","","","","","4038.509999998496","","","","tutorial/tutorial4.png"," ",""
"image-keyboard-response","10","155309","0.0-3.0-0.4","1","Low_HMMActual","","","","","","4882.254999989527","","","","tutorial/tutorial5.png"," ",""
"image-keyboard-response","11","165018","0.0-3.0-0.5","1","Low_HMMActual","","","","","","9703.854999999749","","","","tutorial/tutorial6.png"," ",""
"image-keyboard-response","12","168416","0.0-3.0-0.6","1","Low_HMMActual","","","","","","3391.8399999965914","","","","tutorial/tutorial7.png"," ",""
"image-keyboard-response","13","179217","0.0-3.0-0.7","1","Low_HMMActual","","","","","","10798.804999998538","","","","tutorial/tutorial8.png"," ",""
"image-keyboard-response","14","183699","0.0-3.0-0.8","1","Low_HMMActual","","","","","","4480.775000003632","","","","tutorial/tutorial9.png"," ",""
"image-keyboard-response","15","188164","0.0-3.0-0.9","1","Low_HMMActual","","","","","","4461.5800000028685","","","","tutorial/tutorial10.png"," ",""
"image-keyboard-response","16","193883","0.0-3.0-0.10","1","Low_HMMActual","","","","","","5713.010000006761","","","","tutorial/tutorial11.png"," ",""
"image-keyboard-response","17","197943","0.0-3.0-0.11","1","Low_HMMActual","","","","","","4057.539999994333","","","","tutorial/tutorial12.png"," ",""
"image-keyboard-response","18","201777","0.0-3.0-0.12","1","Low_HMMActual","","","","","","3832.794999994803","","","","tutorial/tutorial13.png"," ",""
"image-keyboard-response","19","209656","0.0-3.0-0.13","1","Low_HMMActual","","","","","","7877.0150000054855","","","","tutorial/tutorial14.png"," ",""
"image-keyboard-response","20","212976","0.0-3.0-0.14","1","Low_HMMActual","","","","","","3316.080000004149","","","","tutorial/tutorial15.png"," ",""
"image-keyboard-response","21","222044","0.0-4.0","1","Low_HMMActual","","","","","","9062.930000000051","","","","tutorial/tutorial16.png","arrowup",""
"image-keyboard-response","22","234254","0.0-5.0","1","Low_HMMActual","","","","","","10795.689999999013","","","","tutorial/tutorial17.png","arrowright",""
"image-keyboard-response","23","245030","0.0-6.0","1","Low_HMMActual","","","","","","9562.269999994896","","","","tutorial/tutorial18.png","arrowleft",""
"image-keyboard-response","24","254272","0.0-7.0","1","Low_HMMActual","","","","","","8273.385000007693","","","","tutorial/tutorial19.png"," ",""
"html-keyboard-response","25","263257","0.0-8.0","2","Low_HMMActual","","","","","","8959.319999994477","","","","<div class=""container"" style=""height:800px;width:800px;display:flex;flex-direction:column;justify-content:center;align-items:center;text-align:center;font-weight:normal;font-family:Arial;font-size:20px""><p>Loading episode&hellip;</p><div>"," ",""
"image-button-response","26","269223","0.0-9.0-0.0","2","Low_HMMActual","","","","","","5956.065000005765","","","","Images/NoChoice.png","","0"
"image-button-response","27","269529","0.0-9.0-1.0","2","Low_HMMActual","","","","","","null","","","","Images/BlackBeadChoice.png","","null"
"image-button-response","28","270033","0.0-9.0-2.0","2","Low_HMMActual","","","","","","null","","","","Images/BlackBeadChoiceWrong.png","","null"
"image-button-response","29","276359","0.0-9.0-0.1","2","Low_HMMActual","","","","","","6321.165000001201","","","","Images/NewTrialWC.png","","3"
"image-button-response","30","276668","0.0-9.0-1.1","2","Low_HMMActual","","","","","","null","","","","Images/WhiteBeadChoice.png","","null"
"image-button-response","31","277184","0.0-9.0-2.1","2","Low_HMMActual","","","","","","null","","","","Images/WhiteBeadChoiceCorrect.png","","null"
"image-button-response","32","279583","0.0-9.0-0.2","2","Low_HMMActual","","","","","","2392.2699999966426","","","","Images/NewTrialWC.png","","2"
"image-button-response","33","279892","0.0-9.0-1.2","2","Low_HMMActual","","","","","","null","","","","Images/WhiteBeadChoice.png","","null"
"image-button-response","34","280408","0.0-9.0-2.2","2","Low_HMMActual","","","","","","null","","","","Images/WhiteBeadChoiceCorrect.png","","null"
"image-button-response","35","283227","0.0-9.0-0.3","2","Low_HMMActual","","","","","","2807.76500000502","","","","Images/NewTrialWC.png","","0"
"image-button-response","36","283537","0.0-9.0-1.3","2","Low_HMMActual","","","","","","null","","","","Images/BlackBeadChoice.png","","null"
"image-button-response","37","284055","0.0-9.0-2.3","2","Low_HMMActual","","","","","","null","","","","Images/BlackBeadChoiceCorrect.png","","null"
"image-button-response","38","287084","0.0-9.0-0.4","2","Low_HMMActual","","","","","","3018.804999999702","","","","Images/NewTrialBC.png","","0"
"image-button-response","39","287391","0.0-9.0-1.4","2","Low_HMMActual","","","","","","null","","","","Images/BlackBeadChoice.png","","null"
"image-button-response","40","287902","0.0-9.0-2.4","2","Low_HMMActual","","","","","","null","","","","Images/BlackBeadChoiceWrong.png","","null"
"image-button-response","41","290874","0.0-9.0-0.5","2","Low_HMMActual","","","","","","2966.760000010254","","","","Images/NewTrialWC.png","","2"
"image-button-response","42","291192","0.0-9.0-1.5","2","Low_HMMActual","","","","","","null","","","","Images/WhiteBeadChoice.png","","null"
"image-button-response","43","291718","0.0-9.0-2.5","2","Low_HMMActual","","","","","","null","","","","Images/WhiteBeadChoiceCorrect.png","","null"
"image-button-response","44","293119","0.0-9.0-0.6","2","Low_HMMActual","","","","","","1393.5999999957858","","","","Images/NewTrialWC.png","","2"
"image-button-response","45","293430","0.0-9.0-1.6","2","Low_HMMActual","","","","","","null","","","","Images/WhiteBeadChoice.png","","null"
"image-button-response","46","293934","0.0-9.0-2.6","2","Low_HMMActual","","","","","","null","","","","Images/WhiteBeadChoiceWrong.png","","null"
"image-button-response","47","295740","0.0-9.0-0.7","2","Low_HMMActual","","","","","","1801.449999999022","","","","Images/NewTrialBC.png","","0"
"image-button-response","48","296053","0.0-9.0-1.7","2","Low_HMMActual","","","","","","null","","","","Images/BlackBeadChoice.png","","null"
"image-button-response","49","296572","0.0-9.0-2.7","2","Low_HMMActual","","","","","","null","","","","Images/BlackBeadChoiceWrong.png","","null"
"image-button-response","50","297306","0.0-9.0-0.8","2","Low_HMMActual","","","","","","718.074999997043","","","","Images/NewTrialWC.png","","0"
"image-button-response","51","297615","0.0-9.0-1.8","2","Low_HMMActual","","","","","","null","","","","Images/BlackBeadChoice.png","","null"
"image-button-response","52","298130","0.0-9.0-2.8","2","Low_HMMActual","","","","","","null","","","","Images/BlackBeadChoiceCorrect.png","","null"
"image-button-response","53","298889","0.0-9.0-0.9","2","Low_HMMActual","","","","","","744.9300000007497","","","","Images/NewTrialBC.png","","1"
"image-button-response","54","299204","0.0-9.0-1.9","2","Low_HMMActual","","","","","","null","","","","Images/BlackBeadChoice.png","","null"
"image-button-response","55","299719","0.0-9.0-2.9","2","Low_HMMActual","","","","","","null","","","","Images/BlackBeadChoiceWrong.png","","null"
"html-keyboard-response","56","301817","0.0-10.0","2","Low_HMMActual","","","","","","2094.2750000103842","","","",""," ",""
"image-keyboard-response","57","304914","0.0-11.0","2","Low_HMMActual","","","","","","3095.600000000559","","","","tutorial/tutorial20.png"," ",""
"html-keyboard-response","58","307492","0.0-12.0","3","Low_HMMActual","","","","","","2571.2400000047637","","","","<div class=""container"" style=""height:800px;width:800px;display:flex;flex-direction:column;justify-content:center;align-items:center;text-align:center;font-weight:normal;font-family:Arial;font-size:20px""><p>Loading episode&hellip;</p><div>"," ",""
"image-button-response","59","311259","0.0-13.0-0.0","3","Low_HMMActual","","","","","","3751.769999988028","","","","Images/NoChoice.png","","0"
"image-button-response","60","311617","0.0-13.0-1.0","3","Low_HMMActual","","","","","","null","","","","Images/BlackBeadChoice.png","","null"
"image-button-response","61","312122","0.0-13.0-2.0","3","Low_HMMActual","","","","","","null","","","","Images/BlackBeadChoiceWrong.png","","null"
"image-button-response","62","313372","0.0-13.0-0.1","3","Low_HMMActual","","","","","","1245.1200000068638","","","","Images/NewTrialWC.png","","2"
"image-button-response","63","313684","0.0-13.0-1.1","3","Low_HMMActual","","","","","","null","","","","Images/WhiteBeadChoice.png","","null"
"image-button-response","64","314189","0.0-13.0-2.1","3","Low_HMMActual","","","","","","null","","","","Images/WhiteBeadChoiceCorrect.png","","null"
"image-button-response","65","314641","0.0-13.0-0.2","3","Low_HMMActual","","","","","","436.50999999954365","","","","Images/NewTrialWC.png","","2"
"image-button-response","66","314951","0.0-13.0-1.2","3","Low_HMMActual","","","","","","null","","","","Images/WhiteBeadChoice.png","","null"
"image-button-response","67","315466","0.0-13.0-2.2","3","Low_HMMActual","","","","","","null","","","","Images/WhiteBeadChoiceCorrect.png","","null"
"image-button-response","68","315894","0.0-13.0-0.3","3","Low_HMMActual","","","","","","412.400000001071","","","","Images/NewTrialWC.png","","2"
"image-button-response","69","316207","0.0-13.0-1.3","3","Low_HMMActual","","","","","","null","","","","Images/WhiteBeadChoice.png","","null"
"image-button-response","70","316732","0.0-13.0-2.3","3","Low_HMMActual","","","","","","null","","","","Images/WhiteBeadChoiceCorrect.png","","null"
"image-button-response","71","317252","0.0-13.0-0.4","3","Low_HMMActual","","","","","","509.66999999945983","","","","Images/NewTrialWC.png","","2"
"image-button-response","72","317562","0.0-13.0-1.4","3","Low_HMMActual","","","","","","null","","","","Images/WhiteBeadChoice.png","","null"
"image-button-response","73","318072","0.0-13.0-2.4","3","Low_HMMActual","","","","","","null","","","","Images/WhiteBeadChoiceWrong.png","","null"
"image-button-response","74","319035","0.0-13.0-0.5","3","Low_HMMActual","","","","","","948.950000005425","","","","Images/NewTrialBC.png","","0"
"image-button-response","75","319346","0.0-13.0-1.5","3","Low_HMMActual","","","","","","null","","","","Images/BlackBeadChoice.png","","null"
"image-button-response","76","319867","0.0-13.0-2.5","3","Low_HMMActual","","","","","","null","","","","Images/BlackBeadChoiceWrong.png","","null"
"image-button-response","77","320802","0.0-13.0-0.6","3","Low_HMMActual","","","","","","928.9900000003399","","","","Images/NewTrialWC.png","","2"
"image-button-response","78","321112","0.0-13.0-1.6","3","Low_HMMActual","","","","","","null","","","","Images/WhiteBeadChoice.png","","null"
"image-button-response","79","321638","0.0-13.0-2.6","3","Low_HMMActual","","","","","","null","","","","Images/WhiteBeadChoiceCorrect.png","","null"
"image-button-response","80","321988","0.0-13.0-0.7","3","Low_HMMActual","","","","","","334.7349999967264","","","","Images/NewTrialWC.png","","2"
"image-button-response","81","322296","0.0-13.0-1.7","3","Low_HMMActual","","","","","","null","","","","Images/WhiteBeadChoice.png","","null"
"image-button-response","82","322800","0.0-13.0-2.7","3","Low_HMMActual","","","","","","null","","","","Images/WhiteBeadChoiceCorrect.png","","null"
"image-button-response","83","323095","0.0-13.0-0.8","3","Low_HMMActual","","","","","","289.0599999955157","","","","Images/NewTrialWC.png","","2"
"image-button-response","84","323402","0.0-13.0-1.8","3","Low_HMMActual","","","","","","null","","","","Images/WhiteBeadChoice.png","","null"
"image-button-response","85","323917","0.0-13.0-2.8","3","Low_HMMActual","","","","","","null","","","","Images/WhiteBeadChoiceWrong.png","","null"
"image-button-response","86","325033","0.0-13.0-0.9","3","Low_HMMActual","","","","","","1110.9250000008615","","","","Images/NewTrialBC.png","","0"
"image-button-response","87","325341","0.0-13.0-1.9","3","Low_HMMActual","","","","","","null","","","","Images/BlackBeadChoice.png","","null"
"image-button-response","88","325850","0.0-13.0-2.9","3","Low_HMMActual","","","","","","null","","","","Images/BlackBeadChoiceCorrect.png","","null"
"image-button-response","89","326082","0.0-13.0-0.10","3","Low_HMMActual","","","","","","225.89000000152737","","","","Images/NewTrialBC.png","","0"
"image-button-response","90","326390","0.0-13.0-1.10","3","Low_HMMActual","","","","","","null","","","","Images/BlackBeadChoice.png","","null"
"image-button-response","91","326905","0.0-13.0-2.10","3","Low_HMMActual","","","","","","null","","","","Images/BlackBeadChoiceCorrect.png","","null"
"image-button-response","92","327236","0.0-13.0-0.11","3","Low_HMMActual","","","","","","316.95000000763685","","","","Images/NewTrialBC.png","","0"
"image-button-response","93","327543","0.0-13.0-1.11","3","Low_HMMActual","","","","","","null","","","","Images/BlackBeadChoice.png","","null"
"image-button-response","94","328055","0.0-13.0-2.11","3","Low_HMMActual","","","","","","null","","","","Images/BlackBeadChoiceWrong.png","","null"
"image-button-response","95","328592","0.0-13.0-0.12","3","Low_HMMActual","","","","","","522.3599999881117","","","","Images/NewTrialWC.png","","0"
"image-button-response","96","328900","0.0-13.0-1.12","3","Low_HMMActual","","","","","","null","","","","Images/BlackBeadChoice.png","","null"
"image-button-response","97","329408","0.0-13.0-2.12","3","Low_HMMActual","","","","","","null","","","","Images/BlackBeadChoiceWrong.png","","null"
"image-button-response","98","329906","0.0-13.0-0.13","3","Low_HMMActual","","","","","","486.10999999800697","","","","Images/NewTrialWC.png","","1"
"image-button-response","99","330220","0.0-13.0-1.13","3","Low_HMMActual","","","","","","null","","","","Images/BlackBeadChoice.png","","null"
"image-button-response","100","330738","0.0-13.0-2.13","3","Low_HMMActual","","","","","","null","","","","Images/BlackBeadChoiceCorrect.png","","null"
"image-button-response","101","331163","0.0-13.0-0.14","3","Low_HMMActual","","","","","","412.7849999931641","","","","Images/NewTrialBC.png","","0"
"image-button-response","102","331474","0.0-13.0-1.14","3","Low_HMMActual","","","","","","null","","","","Images/BlackBeadChoice.png","","null"
"image-button-response","103","331979","0.0-13.0-2.14","3","Low_HMMActual","","","","","","null","","","","Images/BlackBeadChoiceWrong.png","","null"
"image-button-response","104","332747","0.0-13.0-0.15","3","Low_HMMActual","","","","","","762.0500000048196","","","","Images/NewTrialWC.png","","2"
"image-button-response","105","333056","0.0-13.0-1.15","3","Low_HMMActual","","","","","","null","","","","Images/WhiteBeadChoice.png","","null"
"image-button-response","106","333570","0.0-13.0-2.15","3","Low_HMMActual","","","","","","null","","","","Images/WhiteBeadChoiceWrong.png","","null"
"image-button-response","107","334944","0.0-13.0-0.16","3","Low_HMMActual","","","","","","1368.7749999953667","","","","Images/NewTrialBC.png","","0"
"image-button-response","108","335252","0.0-13.0-1.16","3","Low_HMMActual","","","","","","null","","","","Images/BlackBeadChoice.png","","null"
"image-button-response","109","335767","0.0-13.0-2.16","3","Low_HMMActual","","","","","","null","","","","Images/BlackBeadChoiceWrong.png","","null"
"image-button-response","110","336365","0.0-13.0-0.17","3","Low_HMMActual","","","","","","591.260000001057","","","","Images/NewTrialWC.png","","2"
"image-button-response","111","336673","0.0-13.0-1.17","3","Low_HMMActual","","","","","","null","","","","Images/WhiteBeadChoice.png","","null"
"image-button-response","112","337192","0.0-13.0-2.17","3","Low_HMMActual","","","","","","null","","","","Images/WhiteBeadChoiceCorrect.png","","null"
"image-button-response","113","338513","0.0-13.0-0.18","3","Low_HMMActual","","","","","","1315.600000001723","","","","Images/NewTrialWC.png","","2"
"image-button-response","114","338823","0.0-13.0-1.18","3","Low_HMMActual","","","","","","null","","","","Images/WhiteBeadChoice.png","","null"
"image-button-response","115","339334","0.0-13.0-2.18","3","Low_HMMActual","","","","","","null","","","","Images/WhiteBeadChoiceCorrect.png","","null"
"image-button-response","116","339702","0.0-13.0-0.19","3","Low_HMMActual","","","","","","360.8400000084657","","","","Images/NewTrialWC.png","","2"
"image-button-response","117","340012","0.0-13.0-1.19","3","Low_HMMActual","","","","","","null","","","","Images/WhiteBeadChoice.png","","null"
"image-button-response","118","340538","0.0-13.0-2.19","3","Low_HMMActual","","","","","","null","","","","Images/WhiteBeadChoiceWrong.png","","null"
"image-button-response","119","342398","0.0-13.0-0.20","3","Low_HMMActual","","","","","","1843.7050000065938","","","","Images/NewTrialBC.png","","3"
"image-button-response","120","342709","0.0-13.0-1.20","3","Low_HMMActual","","","","","","null","","","","Images/WhiteBeadChoice.png","","null"
"image-button-response","121","343224","0.0-13.0-2.20","3","Low_HMMActual","","","","","","null","","","","Images/WhiteBeadChoiceCorrect.png","","null"
"image-button-response","122","344157","0.0-13.0-0.21","3","Low_HMMActual","","","","","","922.0550000027288","","","","Images/NewTrialWC.png","","2"
"image-button-response","123","344472","0.0-13.0-1.21","3","Low_HMMActual","","","","","","null","","","","Images/WhiteBeadChoice.png","","null"
"image-button-response","124","344988","0.0-13.0-2.21","3","Low_HMMActual","","","","","","null","","","","Images/WhiteBeadChoiceCorrect.png","","null"
"image-button-response","125","346423","0.0-13.0-0.22","3","Low_HMMActual","","","","","","1419.609999997192","","","","Images/NewTrialWC.png","","2"
"image-button-response","126","346739","0.0-13.0-1.22","3","Low_HMMActual","","","","","","null","","","","Images/WhiteBeadChoice.png","","null"
"image-button-response","127","347254","0.0-13.0-2.22","3","Low_HMMActual","","","","","","null","","","","Images/WhiteBeadChoiceCorrect.png","","null"
"image-button-response","128","350440","0.0-13.0-0.23","3","Low_HMMActual","","","","","","3169.9050000024727","","","","Images/NewTrialWC.png","","3"
"image-button-response","129","350751","0.0-13.0-1.23","3","Low_HMMActual","","","","","","null","","","","Images/WhiteBeadChoice.png","","null"
"image-button-response","130","351263","0.0-13.0-2.23","3","Low_HMMActual","","","","","","null","","","","Images/WhiteBeadChoiceCorrect.png","","null"
"image-button-response","131","352296","0.0-13.0-0.24","3","Low_HMMActual","","","","","","1016.0949999990407","","","","Images/NewTrialWC.png","","0"
"image-button-response","132","352606","0.0-13.0-1.24","3","Low_HMMActual","","","","","","null","","","","Images/BlackBeadChoice.png","","null"
"image-button-response","133","353119","0.0-13.0-2.24","3","Low_HMMActual","","","","","","null","","","","Images/BlackBeadChoiceWrong.png","","null"
"image-button-response","134","355521","0.0-13.0-0.25","3","Low_HMMActual","","","","","","2391.829999993206","","","","Images/NewTrialWC.png","","2"
"image-button-response","135","355829","0.0-13.0-1.25","3","Low_HMMActual","","","","","","null","","","","Images/WhiteBeadChoice.png","","null"
"image-button-response","136","356345","0.0-13.0-2.25","3","Low_HMMActual","","","","","","null","","","","Images/WhiteBeadChoiceCorrect.png","","null"
"image-button-response","137","357688","0.0-13.0-0.26","3","Low_HMMActual","","","","","","1325.8250000071712","","","","Images/NewTrialWC.png","","0"
"image-button-response","138","357997","0.0-13.0-1.26","3","Low_HMMActual","","","","","","null","","","","Images/BlackBeadChoice.png","","null"
"image-button-response","139","358512","0.0-13.0-2.26","3","Low_HMMActual","","","","","","null","","","","Images/BlackBeadChoiceCorrect.png","","null"
"image-button-response","140","361404","0.0-13.0-0.27","3","Low_HMMActual","","","","","","2886.099999988801","","","","Images/NewTrialBC.png","","1"
"image-button-response","141","361712","0.0-13.0-1.27","3","Low_HMMActual","","","","","","null","","","","Images/BlackBeadChoice.png","","null"
"image-button-response","142","362224","0.0-13.0-2.27","3","Low_HMMActual","","","","","","null","","","","Images/BlackBeadChoiceWrong.png","","null"
"image-button-response","143","363338","0.0-13.0-0.28","3","Low_HMMActual","","","","","","1108.009999996284","","","","Images/NewTrialWC.png","","3"
"image-button-response","144","363650","0.0-13.0-1.28","3","Low_HMMActual","","","","","","null","","","","Images/WhiteBeadChoice.png","","null"
"image-button-response","145","364161","0.0-13.0-2.28","3","Low_HMMActual","","","","","","null","","","","Images/WhiteBeadChoiceWrong.png","","null"
"image-button-response","146","365688","0.0-13.0-0.29","3","Low_HMMActual","","","","","","1519.704999998794","","","","Images/NewTrialBC.png","","0"
"image-button-response","147","366005","0.0-13.0-1.29","3","Low_HMMActual","","","","","","null","","","","Images/BlackBeadChoice.png","","null"
"image-button-response","148","366520","0.0-13.0-2.29","3","Low_HMMActual","","","","","","null","","","","Images/BlackBeadChoiceWrong.png","","null"
"image-button-response","149","367242","0.0-13.0-0.30","3","Low_HMMActual","","","","","","703.0850000010105","","","","Images/NewTrialWC.png","","2"
"image-button-response","150","367556","0.0-13.0-1.30","3","Low_HMMActual","","","","","","null","","","","Images/WhiteBeadChoice.png","","null"
"image-button-response","151","368083","0.0-13.0-2.30","3","Low_HMMActual","","","","","","null","","","","Images/WhiteBeadChoiceCorrect.png","","null"
"image-button-response","152","369214","0.0-13.0-0.31","3","Low_HMMActual","","","","","","1123.3999999967637","","","","Images/NewTrialWC.png","","2"
"image-button-response","153","369524","0.0-13.0-1.31","3","Low_HMMActual","","","","","","null","","","","Images/WhiteBeadChoice.png","","null"
"image-button-response","154","370054","0.0-13.0-2.31","3","Low_HMMActual","","","","","","null","","","","Images/WhiteBeadChoiceWrong.png","","null"
"image-button-response","155","370621","0.0-13.0-0.32","3","Low_HMMActual","","","","","","550.9999999922002","","","","Images/NewTrialBC.png","","2"
"image-button-response","156","370930","0.0-13.0-1.32","3","Low_HMMActual","","","","","","null","","","","Images/WhiteBeadChoice.png","","null"
"image-button-response","157","371446","0.0-13.0-2.32","3","Low_HMMActual","","","","","","null","","","","Images/WhiteBeadChoiceCorrect.png","","null"
"image-button-response","158","371766","0.0-13.0-0.33","3","Low_HMMActual","","","","","","302.9050000041025","","","","Images/NewTrialWC.png","","2"
"image-button-response","159","372073","0.0-13.0-1.33","3","Low_HMMActual","","","","","","null","","","","Images/WhiteBeadChoice.png","","null"
"image-button-response","160","372589","0.0-13.0-2.33","3","Low_HMMActual","","","","","","null","","","","Images/WhiteBeadChoiceCorrect.png","","null"
"image-button-response","161","373406","0.0-13.0-0.34","3","Low_HMMActual","","","","","","801.1549999937415","","","","Images/NewTrialWC.png","","2"
"image-button-response","162","373712","0.0-13.0-1.34","3","Low_HMMActual","","","","","","null","","","","Images/WhiteBeadChoice.png","","null"
"image-button-response","163","374220","0.0-13.0-2.34","3","Low_HMMActual","","","","","","null","","","","Images/WhiteBeadChoiceWrong.png","","null"
"image-button-response","164","375315","0.0-13.0-0.35","3","Low_HMMActual","","","","","","1077.8900000004796","","","","Images/NewTrialBC.png","","1"
"image-button-response","165","375634","0.0-13.0-1.35","3","Low_HMMActual","","","","","","null","","","","Images/BlackBeadChoice.png","","null"
"image-button-response","166","376142","0.0-13.0-2.35","3","Low_HMMActual","","","","","","null","","","","Images/BlackBeadChoiceWrong.png","","null"
"image-button-response","167","377307","0.0-13.0-0.36","3","Low_HMMActual","","","","","","1154.6349999989616","","","","Images/NewTrialWC.png","","3"
"image-button-response","168","377615","0.0-13.0-1.36","3","Low_HMMActual","","","","","","null","","","","Images/WhiteBeadChoice.png","","null"
"image-button-response","169","378125","0.0-13.0-2.36","3","Low_HMMActual","","","","","","null","","","","Images/WhiteBeadChoiceCorrect.png","","null"
"image-button-response","170","379093","0.0-13.0-0.37","3","Low_HMMActual","","","","","","956.9250000058673","","","","Images/NewTrialWC.png","","3"
"image-button-response","171","379407","0.0-13.0-1.37","3","Low_HMMActual","","","","","","null","","","","Images/WhiteBeadChoice.png","","null"
"image-button-response","172","379924","0.0-13.0-2.37","3","Low_HMMActual","","","","","","null","","","","Images/WhiteBeadChoiceCorrect.png","","null"
"image-button-response","173","380755","0.0-13.0-0.38","3","Low_HMMActual","","","","","","825.9499999985565","","","","Images/NewTrialWC.png","","3"
"image-button-response","174","381068","0.0-13.0-1.38","3","Low_HMMActual","","","","","","null","","","","Images/WhiteBeadChoice.png","","null"
"image-button-response","175","381578","0.0-13.0-2.38","3","Low_HMMActual","","","","","","null","","","","Images/WhiteBeadChoiceWrong.png","","null"
"image-button-response","176","382523","0.0-13.0-0.39","3","Low_HMMActual","","","","","","931.8449999991572","","","","Images/NewTrialBC.png","","2"
"image-button-response","177","382836","0.0-13.0-1.39","3","Low_HMMActual","","","","","","null","","","","Images/WhiteBeadChoice.png","","null"
"image-button-response","178","383353","0.0-13.0-2.39","3","Low_HMMActual","","","","","","null","","","","Images/WhiteBeadChoiceCorrect.png","","null"
"image-button-response","179","383961","0.0-13.0-0.40","3","Low_HMMActual","","","","","","591.4000000047963","","","","Images/NewTrialWC.png","","2"
"image-button-response","180","384279","0.0-13.0-1.40","3","Low_HMMActual","","","","","","null","","","","Images/WhiteBeadChoice.png","","null"
"image-button-response","181","384793","0.0-13.0-2.40","3","Low_HMMActual","","","","","","null","","","","Images/WhiteBeadChoiceCorrect.png","","null"
"image-button-response","182","385608","0.0-13.0-0.41","3","Low_HMMActual","","","","","","809.5100000064122","","","","Images/NewTrialWC.png","","2"
"image-button-response","183","385916","0.0-13.0-1.41","3","Low_HMMActual","","","","","","null","","","","Images/WhiteBeadChoice.png","","null"
"image-button-response","184","386423","0.0-13.0-2.41","3","Low_HMMActual","","","","","","null","","","","Images/WhiteBeadChoiceCorrect.png","","null"
"image-button-response","185","387320","0.0-13.0-0.42","3","Low_HMMActual","","","","","","883.719999997993","","","","Images/NewTrialWC.png","","2"
"image-button-response","186","387629","0.0-13.0-1.42","3","Low_HMMActual","","","","","","null","","","","Images/WhiteBeadChoice.png","","null"
"image-button-response","187","388153","0.0-13.0-2.42","3","Low_HMMActual","","","","","","null","","","","Images/WhiteBeadChoiceWrong.png","","null"
"image-button-response","188","389395","0.0-13.0-0.43","3","Low_HMMActual","","","","","","1226.2199999968288","","","","Images/NewTrialBC.png","","1"
"image-button-response","189","389705","0.0-13.0-1.43","3","Low_HMMActual","","","","","","null","","","","Images/BlackBeadChoice.png","","null"
"image-button-response","190","390221","0.0-13.0-2.43","3","Low_HMMActual","","","","","","null","","","","Images/BlackBeadChoiceCorrect.png","","null"
"image-button-response","191","391036","0.0-13.0-0.44","3","Low_HMMActual","","","","","","808.854999995674","","","","Images/NewTrialBC.png","","3"
"image-button-response","192","391349","0.0-13.0-1.44","3","Low_HMMActual","","","","","","null","","","","Images/WhiteBeadChoice.png","","null"
"image-button-response","193","391869","0.0-13.0-2.44","3","Low_HMMActual","","","","","","null","","","","Images/WhiteBeadChoiceWrong.png","","null"
"image-button-response","194","392881","0.0-13.0-0.45","3","Low_HMMActual","","","","","","997.8350000019418","","","","Images/NewTrialBC.png","","3"
"image-button-response","195","393188","0.0-13.0-1.45","3","Low_HMMActual","","","","","","null","","","","Images/WhiteBeadChoice.png","","null"
"image-button-response","196","393704","0.0-13.0-2.45","3","Low_HMMActual","","","","","","null","","","","Images/WhiteBeadChoiceCorrect.png","","null"
"image-button-response","197","394619","0.0-13.0-0.46","3","Low_HMMActual","","","","","","908.2699999999022","","","","Images/NewTrialWC.png","","3"
"image-button-response","198","394936","0.0-13.0-1.46","3","Low_HMMActual","","","","","","null","","","","Images/WhiteBeadChoice.png","","null"
"image-button-response","199","395445","0.0-13.0-2.46","3","Low_HMMActual","","","","","","null","","","","Images/WhiteBeadChoiceWrong.png","","null"
"image-button-response","200","396360","0.0-13.0-0.47","3","Low_HMMActual","","","","","","908.8300000003073","","","","Images/NewTrialBC.png","","1"
"image-button-response","201","396673","0.0-13.0-1.47","3","Low_HMMActual","","","","","","null","","","","Images/BlackBeadChoice.png","","null"
"image-button-response","202","397189","0.0-13.0-2.47","3","Low_HMMActual","","","","","","null","","","","Images/BlackBeadChoiceWrong.png","","null"
"image-button-response","203","397942","0.0-13.0-0.48","3","Low_HMMActual","","","","","","745.7350000040606","","","","Images/NewTrialWC.png","","2"
"image-button-response","204","398250","0.0-13.0-1.48","3","Low_HMMActual","","","","","","null","","","","Images/WhiteBeadChoice.png","","null"
"image-button-response","205","398767","0.0-13.0-2.48","3","Low_HMMActual","","","","","","null","","","","Images/WhiteBeadChoiceWrong.png","","null"
"image-button-response","206","399233","0.0-13.0-0.49","3","Low_HMMActual","","","","","","461.24499999859836","","","","Images/NewTrialBC.png","","0"
"image-button-response","207","399544","0.0-13.0-1.49","3","Low_HMMActual","","","","","","null","","","","Images/BlackBeadChoice.png","","null"
"image-button-response","208","400068","0.0-13.0-2.49","3","Low_HMMActual","","","","","","null","","","","Images/BlackBeadChoiceCorrect.png","","null"
"image-button-response","209","400561","0.0-13.0-0.50","3","Low_HMMActual","","","","","","484.21500000404194","","","","Images/NewTrialBC.png","","0"
"image-button-response","210","400879","0.0-13.0-1.50","3","Low_HMMActual","","","","","","null","","","","Images/BlackBeadChoice.png","","null"
"image-button-response","211","401387","0.0-13.0-2.50","3","Low_HMMActual","","","","","","null","","","","Images/BlackBeadChoiceCorrect.png","","null"
"image-button-response","212","402160","0.0-13.0-0.51","3","Low_HMMActual","","","","","","757.7750000054948","","","","Images/NewTrialBC.png","","0"
"image-button-response","213","402474","0.0-13.0-1.51","3","Low_HMMActual","","","","","","null","","","","Images/BlackBeadChoice.png","","null"
"image-button-response","214","403004","0.0-13.0-2.51","3","Low_HMMActual","","","","","","null","","","","Images/BlackBeadChoiceCorrect.png","","null"
"image-button-response","215","404039","0.0-13.0-0.52","3","Low_HMMActual","","","","","","1019.4499999925029","","","","Images/NewTrialBC.png","","0"
"image-button-response","216","404404","0.0-13.0-1.52","3","Low_HMMActual","","","","","","null","","","","Images/BlackBeadChoice.png","","null"
"image-button-response","217","404926","0.0-13.0-2.52","3","Low_HMMActual","","","","","","null","","","","Images/BlackBeadChoiceCorrect.png","","null"
"image-button-response","218","405849","0.0-13.0-0.53","3","Low_HMMActual","","","","","","911.4299999928335","","","","Images/NewTrialBC.png","","0"
"image-button-response","219","406171","0.0-13.0-1.53","3","Low_HMMActual","","","","","","null","","","","Images/BlackBeadChoice.png","","null"
"image-button-response","220","406686","0.0-13.0-2.53","3","Low_HMMActual","","","","","","null","","","","Images/BlackBeadChoiceCorrect.png","","null"
"image-button-response","221","407353","0.0-13.0-0.54","3","Low_HMMActual","","","","","","651.335000002291","","","","Images/NewTrialBC.png","","0"
"image-button-response","222","407665","0.0-13.0-1.54","3","Low_HMMActual","","","","","","null","","","","Images/BlackBeadChoice.png","","null"
"image-button-response","223","408185","0.0-13.0-2.54","3","Low_HMMActual","","","","","","null","","","","Images/BlackBeadChoiceWrong.png","","null"
"image-button-response","224","411302","0.0-13.0-0.55","3","Low_HMMActual","","","","","","3100.9800000028918","","","","Images/NewTrialWC.png","","3"
"image-button-response","225","411621","0.0-13.0-1.55","3","Low_HMMActual","","","","","","null","","","","Images/WhiteBeadChoice.png","","null"
"image-button-response","226","412151","0.0-13.0-2.55","3","Low_HMMActual","","","","","","null","","","","Images/WhiteBeadChoiceWrong.png","","null"
"image-button-response","227","501535","0.0-13.0-0.56","3","Low_HMMActual","","","","","","89377.71000000066","","","","Images/NewTrialBC.png","","0"
"image-button-response","228","501847","0.0-13.0-1.56","3","Low_HMMActual","","","","","","null","","","","Images/BlackBeadChoice.png","","null"
"image-button-response","229","502357","0.0-13.0-2.56","3","Low_HMMActual","","","","","","null","","","","Images/BlackBeadChoiceWrong.png","","null"
"image-button-response","230","502632","0.0-13.0-0.57","3","Low_HMMActual","","","","","","269.4600000104401","","","","Images/NewTrialWC.png","","1"
"image-button-response","231","502942","0.0-13.0-1.57","3","Low_HMMActual","","","","","","null","","","","Images/BlackBeadChoice.png","","null"
"image-button-response","232","503447","0.0-13.0-2.57","3","Low_HMMActual","","","","","","null","","","","Images/BlackBeadChoiceWrong.png","","null"
"image-button-response","233","503617","0.0-13.0-0.58","3","Low_HMMActual","","","","","","163.66000000562053","","","","Images/NewTrialWC.png","","1"
"image-button-response","234","503928","0.0-13.0-1.58","3","Low_HMMActual","","","","","","null","","","","Images/BlackBeadChoice.png","","null"
"image-button-response","235","504442","0.0-13.0-2.58","3","Low_HMMActual","","","","","","null","","","","Images/BlackBeadChoiceCorrect.png","","null"
"image-button-response","236","504680","0.0-13.0-0.59","3","Low_HMMActual","","","","","","231.86499999428634","","","","Images/NewTrialBC.png","","1"
"image-button-response","237","504990","0.0-13.0-1.59","3","Low_HMMActual","","","","","","null","","","","Images/BlackBeadChoice.png","","null"
"image-button-response","238","505496","0.0-13.0-2.59","3","Low_HMMActual","","","","","","null","","","","Images/BlackBeadChoiceCorrect.png","","null"
"image-button-response","239","505751","0.0-13.0-0.60","3","Low_HMMActual","","","","","","246.68000001111068","","","","Images/NewTrialBC.png","","1"
"image-button-response","240","506058","0.0-13.0-1.60","3","Low_HMMActual","","","","","","null","","","","Images/BlackBeadChoice.png","","null"
"image-button-response","241","506582","0.0-13.0-2.60","3","Low_HMMActual","","","","","","null","","","","Images/BlackBeadChoiceWrong.png","","null"
"image-button-response","242","507567","0.0-13.0-0.61","3","Low_HMMActual","","","","","","976.875000007567","","","","Images/NewTrialWC.png","","2"
"image-button-response","243","507879","0.0-13.0-1.61","3","Low_HMMActual","","","","","","null","","","","Images/WhiteBeadChoice.png","","null"
"image-button-response","244","508384","0.0-13.0-2.61","3","Low_HMMActual","","","","","","null","","","","Images/WhiteBeadChoiceCorrect.png","","null"
"image-button-response","245","508791","0.0-13.0-0.62","3","Low_HMMActual","","","","","","401.96000000287313","","","","Images/NewTrialWC.png","","3"
"image-button-response","246","509104","0.0-13.0-1.62","3","Low_HMMActual","","","","","","null","","","","Images/WhiteBeadChoice.png","","null"
"image-button-response","247","509615","0.0-13.0-2.62","3","Low_HMMActual","","","","","","null","","","","Images/WhiteBeadChoiceCorrect.png","","null"
"image-button-response","248","509871","0.0-13.0-0.63","3","Low_HMMActual","","","","","","251.26499999896623","","","","Images/NewTrialWC.png","","0"
"image-button-response","249","510182","0.0-13.0-1.63","3","Low_HMMActual","","","","","","null","","","","Images/BlackBeadChoice.png","","null"
"image-button-response","250","510688","0.0-13.0-2.63","3","Low_HMMActual","","","","","","477.3200000054203","","","","Images/BlackBeadChoiceCorrect.png","","2"
"image-button-response","251","511656","0.0-13.0-0.64","3","Low_HMMActual","","","","","","961.4949999959208","","","","Images/NewTrialBC.png","","0"
"image-button-response","252","511963","0.0-13.0-1.64","3","Low_HMMActual","","","","","","null","","","","Images/BlackBeadChoice.png","","null"
"image-button-response","253","512473","0.0-13.0-2.64","3","Low_HMMActual","","","","","","406.6749999910826","","","","Images/BlackBeadChoiceWrong.png","","0"
"image-button-response","254","512655","0.0-13.0-0.65","3","Low_HMMActual","","","","","","176.45500000799075","","","","Images/NewTrialWC.png","","0"
"image-button-response","255","512972","0.0-13.0-1.65","3","Low_HMMActual","","","","","","173.7450000073295","","","","Images/BlackBeadChoice.png","","0"
"image-button-response","256","513480","0.0-13.0-2.65","3","Low_HMMActual","","","","","","240.55000000225846","","","","Images/BlackBeadChoiceCorrect.png","","0"
"image-button-response","257","513575","0.0-13.0-0.66","3","Low_HMMActual","","","","","","76.22000000264961","","","","Images/NewTrialBC.png","","0"
"image-button-response","258","513885","0.0-13.0-1.66","3","Low_HMMActual","","","","","","176.06499999237712","","","","Images/BlackBeadChoice.png","","0"
"image-button-response","259","514391","0.0-13.0-2.66","3","Low_HMMActual","","","","","","243.86499999673106","","","","Images/BlackBeadChoiceCorrect.png","","0"
"image-button-response","260","514512","0.0-13.0-0.67","3","Low_HMMActual","","","","","","112.97499999636784","","","","Images/NewTrialBC.png","","0"
"image-button-response","261","514831","0.0-13.0-1.67","3","Low_HMMActual","","","","","","202.2949999955017","","","","Images/BlackBeadChoice.png","","0"
"image-button-response","262","515346","0.0-13.0-2.67","3","Low_HMMActual","","","","","","263.5199999931501","","","","Images/BlackBeadChoiceWrong.png","","0"
"image-button-response","263","515487","0.0-13.0-0.68","3","Low_HMMActual","","","","","","134.60499999928288","","","","Images/NewTrialWC.png","","0"
"image-button-response","264","515796","0.0-13.0-1.68","3","Low_HMMActual","","","","","","200.54499999969266","","","","Images/BlackBeadChoice.png","","0"
"image-button-response","265","516310","0.0-13.0-2.68","3","Low_HMMActual","","","","","","253.06499999715015","","","","Images/BlackBeadChoiceWrong.png","","0"
"image-button-response","266","516407","0.0-13.0-0.69","3","Low_HMMActual","","","","","","90.67999999388121","","","","Images/NewTrialWC.png","","0"
"image-button-response","267","516715","0.0-13.0-1.69","3","Low_HMMActual","","","","","","273.44499999890104","","","","Images/BlackBeadChoice.png","","0"
"image-button-response","268","517224","0.0-13.0-2.69","3","Low_HMMActual","","","","","","446.1250000022119","","","","Images/BlackBeadChoiceWrong.png","","0"
"image-button-response","269","517480","0.0-13.0-0.70","3","Low_HMMActual","","","","","","249.60500000452157","","","","Images/NewTrialWC.png","","0"
"image-button-response","270","517790","0.0-13.0-1.70","3","Low_HMMActual","","","","","","null","","","","Images/BlackBeadChoice.png","","null"
"image-button-response","271","518300","0.0-13.0-2.70","3","Low_HMMActual","","","","","","null","","","","Images/BlackBeadChoiceWrong.png","","null"
"image-button-response","272","519014","0.0-13.0-0.71","3","Low_HMMActual","","","","","","688.5250000050291","","","","Images/NewTrialWC.png","","3"
"image-button-response","273","519331","0.0-13.0-1.71","3","Low_HMMActual","","","","","","null","","","","Images/WhiteBeadChoice.png","","null"
"image-button-response","274","519845","0.0-13.0-2.71","3","Low_HMMActual","","","","","","239.71000000892673","","","","Images/WhiteBeadChoiceCorrect.png","","2"
"image-button-response","275","520065","0.0-13.0-0.72","3","Low_HMMActual","","","","","","213.45000001019798","","","","Images/NewTrialWC.png","","3"
"image-button-response","276","520376","0.0-13.0-1.72","3","Low_HMMActual","","","","","","304.470000002766","","","","Images/WhiteBeadChoice.png","","2"
"image-button-response","277","520885","0.0-13.0-2.72","3","Low_HMMActual","","","","","","312.6850000116974","","","","Images/WhiteBeadChoiceCorrect.png","","2"
"image-button-response","278","521288","0.0-13.0-0.73","3","Low_HMMActual","","","","","","396.4899999991758","","","","Images/NewTrialWC.png","","2"
"image-button-response","279","521594","0.0-13.0-1.73","3","Low_HMMActual","","","","","","null","","","","Images/WhiteBeadChoice.png","","null"
"image-button-response","280","522113","0.0-13.0-2.73","3","Low_HMMActual","","","","","","433.6899999907473","","","","Images/WhiteBeadChoiceCorrect.png","","2"
"image-button-response","281","522465","0.0-13.0-0.74","3","Low_HMMActual","","","","","","346.40499998931773","","","","Images/NewTrialWC.png","","2"
"image-button-response","282","522780","0.0-13.0-1.74","3","Low_HMMActual","","","","","","null","","","","Images/WhiteBeadChoice.png","","null"
"image-button-response","283","523296","0.0-13.0-2.74","3","Low_HMMActual","","","","","","null","","","","Images/WhiteBeadChoiceCorrect.png","","null"
"image-button-response","284","523976","0.0-13.0-0.75","3","Low_HMMActual","","","","","","674.1299999994226","","","","Images/NewTrialWC.png","","2"
"image-button-response","285","524286","0.0-13.0-1.75","3","Low_HMMActual","","","","","","null","","","","Images/WhiteBeadChoice.png","","null"
"image-button-response","286","524803","0.0-13.0-2.75","3","Low_HMMActual","","","","","","null","","","","Images/WhiteBeadChoiceCorrect.png","","null"
"image-button-response","287","525113","0.0-13.0-0.76","3","Low_HMMActual","","","","","","305.1850000047125","","","","Images/NewTrialWC.png","","2"
"image-button-response","288","525430","0.0-13.0-1.76","3","Low_HMMActual","","","","","","null","","","","Images/WhiteBeadChoice.png","","null"
"image-button-response","289","525934","0.0-13.0-2.76","3","Low_HMMActual","","","","","","null","","","","Images/WhiteBeadChoiceCorrect.png","","null"
"image-button-response","290","526272","0.0-13.0-0.77","3","Low_HMMActual","","","","","","331.44999999785796","","","","Images/NewTrialWC.png","","2"
"image-button-response","291","526579","0.0-13.0-1.77","3","Low_HMMActual","","","","","","null","","","","Images/WhiteBeadChoice.png","","null"
"image-button-response","292","527097","0.0-13.0-2.77","3","Low_HMMActual","","","","","","494.96999999973923","","","","Images/WhiteBeadChoiceCorrect.png","","2"
"image-button-response","293","527664","0.0-13.0-0.78","3","Low_HMMActual","","","","","","557.4550000019372","","","","Images/NewTrialWC.png","","2"
"image-button-response","294","527984","0.0-13.0-1.78","3","Low_HMMActual","","","","","","null","","","","Images/WhiteBeadChoice.png","","null"
"image-button-response","295","528498","0.0-13.0-2.78","3","Low_HMMActual","","","","","","null","","","","Images/WhiteBeadChoiceCorrect.png","","null"
"image-button-response","296","529025","0.0-13.0-0.79","3","Low_HMMActual","","","","","","519.4199999968987","","","","Images/NewTrialWC.png","","2"
"image-button-response","297","529364","0.0-13.0-1.79","3","Low_HMMActual","","","","","","null","","","","Images/WhiteBeadChoice.png","","null"
"image-button-response","298","529873","0.0-13.0-2.79","3","Low_HMMActual","","","","","","null","","","","Images/WhiteBeadChoiceWrong.png","","null"
"image-button-response","299","531057","0.0-13.0-0.80","3","Low_HMMActual","","","","","","1175.1599999988684","","","","Images/NewTrialBC.png","","1"
"image-button-response","300","531366","0.0-13.0-1.80","3","Low_HMMActual","","","","","","null","","","","Images/BlackBeadChoice.png","","null"
"image-button-response","301","531882","0.0-13.0-2.80","3","Low_HMMActual","","","","","","null","","","","Images/BlackBeadChoiceWrong.png","","null"
"image-button-response","302","533273","0.0-13.0-0.81","3","Low_HMMActual","","","","","","1382.7200000087032","","","","Images/NewTrialWC.png","","3"
"image-button-response","303","533584","0.0-13.0-1.81","3","Low_HMMActual","","","","","","null","","","","Images/WhiteBeadChoice.png","","null"
"image-button-response","304","534092","0.0-13.0-2.81","3","Low_HMMActual","","","","","","null","","","","Images/WhiteBeadChoiceCorrect.png","","null"
"image-button-response","305","534417","0.0-13.0-0.82","3","Low_HMMActual","","","","","","317.6600000006147","","","","Images/NewTrialWC.png","","2"
"image-button-response","306","534731","0.0-13.0-1.82","3","Low_HMMActual","","","","","","null","","","","Images/WhiteBeadChoice.png","","null"
"image-button-response","307","535247","0.0-13.0-2.82","3","Low_HMMActual","","","","","","null","","","","Images/WhiteBeadChoiceCorrect.png","","null"
"image-button-response","308","536217","0.0-13.0-0.83","3","Low_HMMActual","","","","","","961.2049999996088","","","","Images/NewTrialWC.png","","3"
"image-button-response","309","536524","0.0-13.0-1.83","3","Low_HMMActual","","","","","","null","","","","Images/WhiteBeadChoice.png","","null"
"image-button-response","310","537038","0.0-13.0-2.83","3","Low_HMMActual","","","","","","475.63000000081956","","","","Images/WhiteBeadChoiceWrong.png","","2"
"image-button-response","311","537705","0.0-13.0-0.84","3","Low_HMMActual","","","","","","645.170000003418","","","","Images/NewTrialBC.png","","2"
"image-button-response","312","538019","0.0-13.0-1.84","3","Low_HMMActual","","","","","","null","","","","Images/WhiteBeadChoice.png","","null"
"image-button-response","313","538528","0.0-13.0-2.84","3","Low_HMMActual","","","","","","null","","","","Images/WhiteBeadChoiceCorrect.png","","null"
"image-button-response","314","538752","0.0-13.0-0.85","3","Low_HMMActual","","","","","","216.06999999494292","","","","Images/NewTrialWC.png","","0"
"image-button-response","315","539068","0.0-13.0-1.85","3","Low_HMMActual","","","","","","null","","","","Images/BlackBeadChoice.png","","null"
"image-button-response","316","539580","0.0-13.0-2.85","3","Low_HMMActual","","","","","","null","","","","Images/BlackBeadChoiceCorrect.png","","null"
"image-button-response","317","539762","0.0-13.0-0.86","3","Low_HMMActual","","","","","","127.79499999305699","","","","Images/NewTrialBC.png","","2"
"image-button-response","318","540071","0.0-13.0-1.86","3","Low_HMMActual","","","","","","null","","","","Images/WhiteBeadChoice.png","","null"
"image-button-response","319","540580","0.0-13.0-2.86","3","Low_HMMActual","","","","","","null","","","","Images/WhiteBeadChoiceWrong.png","","null"
"image-button-response","320","540698","0.0-13.0-0.87","3","Low_HMMActual","","","","","","109.17500000505242","","","","Images/NewTrialBC.png","","0"
"image-button-response","321","541008","0.0-13.0-1.87","3","Low_HMMActual","","","","","","null","","","","Images/BlackBeadChoice.png","","null"
"image-button-response","322","541522","0.0-13.0-2.87","3","Low_HMMActual","","","","","","null","","","","Images/BlackBeadChoiceWrong.png","","null"
"image-button-response","323","542834","0.0-13.0-0.88","3","Low_HMMActual","","","","","","1301.659999997355","","","","Images/NewTrialWC.png","","3"
"image-button-response","324","543144","0.0-13.0-1.88","3","Low_HMMActual","","","","","","null","","","","Images/WhiteBeadChoice.png","","null"
"image-button-response","325","543663","0.0-13.0-2.88","3","Low_HMMActual","","","","","","null","","","","Images/WhiteBeadChoiceCorrect.png","","null"
"image-button-response","326","545074","0.0-13.0-0.89","3","Low_HMMActual","","","","","","1402.9950000112876","","","","Images/NewTrialWC.png","","2"
"image-button-response","327","545441","0.0-13.0-1.89","3","Low_HMMActual","","","","","","null","","","","Images/WhiteBeadChoice.png","","null"
"image-button-response","328","545956","0.0-13.0-2.89","3","Low_HMMActual","","","","","","null","","","","Images/WhiteBeadChoiceCorrect.png","","null"
"image-button-response","329","546339","0.0-13.0-0.90","3","Low_HMMActual","","","","","","369.36499999137595","","","","Images/NewTrialWC.png","","3"
"image-button-response","330","546651","0.0-13.0-1.90","3","Low_HMMActual","","","","","","null","","","","Images/WhiteBeadChoice.png","","null"
"image-button-response","331","547165","0.0-13.0-2.90","3","Low_HMMActual","","","","","","null","","","","Images/WhiteBeadChoiceCorrect.png","","null"
"image-button-response","332","547396","0.0-13.0-0.91","3","Low_HMMActual","","","","","","220.9900000016205","","","","Images/NewTrialWC.png","","2"
"image-button-response","333","547720","0.0-13.0-1.91","3","Low_HMMActual","","","","","","null","","","","Images/WhiteBeadChoice.png","","null"
"image-button-response","334","548225","0.0-13.0-2.91","3","Low_HMMActual","","","","","","null","","","","Images/WhiteBeadChoiceCorrect.png","","null"
"image-button-response","335","548473","0.0-13.0-0.92","3","Low_HMMActual","","","","","","238.81000000983477","","","","Images/NewTrialWC.png","","1"
"image-button-response","336","548789","0.0-13.0-1.92","3","Low_HMMActual","","","","","","null","","","","Images/BlackBeadChoice.png","","null"
"image-button-response","337","549302","0.0-13.0-2.92","3","Low_HMMActual","","","","","","null","","","","Images/BlackBeadChoiceWrong.png","","null"
"image-button-response","338","550187","0.0-13.0-0.93","3","Low_HMMActual","","","","","","875.4649999900721","","","","Images/NewTrialWC.png","","2"
"image-button-response","339","550496","0.0-13.0-1.93","3","Low_HMMActual","","","","","","null","","","","Images/WhiteBeadChoice.png","","null"
"image-button-response","340","551007","0.0-13.0-2.93","3","Low_HMMActual","","","","","","null","","","","Images/WhiteBeadChoiceWrong.png","","null"
"image-button-response","341","551813","0.0-13.0-0.94","3","Low_HMMActual","","","","","","793.4799999929965","","","","Images/NewTrialBC.png","","2"
"image-button-response","342","552152","0.0-13.0-1.94","3","Low_HMMActual","","","","","","null","","","","Images/WhiteBeadChoice.png","","null"
"image-button-response","343","552669","0.0-13.0-2.94","3","Low_HMMActual","","","","","","374.4650000007823","","","","Images/WhiteBeadChoiceCorrect.png","","3"
"image-button-response","344","553055","0.0-13.0-0.95","3","Low_HMMActual","","","","","","378.23499999649357","","","","Images/NewTrialWC.png","","3"
"image-button-response","345","553369","0.0-13.0-1.95","3","Low_HMMActual","","","","","","null","","","","Images/WhiteBeadChoice.png","","null"
"image-button-response","346","553885","0.0-13.0-2.95","3","Low_HMMActual","","","","","","null","","","","Images/WhiteBeadChoiceCorrect.png","","null"
"image-button-response","347","554163","0.0-13.0-0.96","3","Low_HMMActual","","","","","","269.57499999844003","","","","Images/NewTrialWC.png","","3"
"image-button-response","348","554486","0.0-13.0-1.96","3","Low_HMMActual","","","","","","null","","","","Images/WhiteBeadChoice.png","","null"
"image-button-response","349","554993","0.0-13.0-2.96","3","Low_HMMActual","","","","","","null","","","","Images/WhiteBeadChoiceCorrect.png","","null"
"image-button-response","350","555688","0.0-13.0-0.97","3","Low_HMMActual","","","","","","679.630000013276","","","","Images/NewTrialWC.png","","2"
"image-button-response","351","556005","0.0-13.0-1.97","3","Low_HMMActual","","","","","","null","","","","Images/WhiteBeadChoice.png","","null"
"image-button-response","352","556523","0.0-13.0-2.97","3","Low_HMMActual","","","","","","null","","","","Images/WhiteBeadChoiceWrong.png","","null"
"image-button-response","353","557288","0.0-13.0-0.98","3","Low_HMMActual","","","","","","753.2500000088476","","","","Images/NewTrialBC.png","","0"
"image-button-response","354","557602","0.0-13.0-1.98","3","Low_HMMActual","","","","","","null","","","","Images/BlackBeadChoice.png","","null"
"image-button-response","355","558148","0.0-13.0-2.98","3","Low_HMMActual","","","","","","null","","","","Images/BlackBeadChoiceWrong.png","","null"
"image-button-response","356","641892","0.0-13.0-0.99","3","Low_HMMActual","","","","","","83733.53999998653","","","","Images/NewTrialWC.png","","0"
"image-button-response","357","642202","0.0-13.0-1.99","3","Low_HMMActual","","","","","","null","","","","Images/BlackBeadChoice.png","","null"
"image-button-response","358","642710","0.0-13.0-2.99","3","Low_HMMActual","","","","","","406.7700000014156","","","","Images/BlackBeadChoiceWrong.png","","1"
"image-button-response","359","643791","0.0-13.0-0.100","3","Low_HMMActual","","","","","","1068.780000001425","","","","Images/NewTrialWC.png","","2"
"image-button-response","360","644114","0.0-13.0-1.100","3","Low_HMMActual","","","","","","null","","","","Images/WhiteBeadChoice.png","","null"
"image-button-response","361","644620","0.0-13.0-2.100","3","Low_HMMActual","","","","","","null","","","","Images/WhiteBeadChoiceCorrect.png","","null"
"image-button-response","362","652765","0.0-13.0-0.101","3","Low_HMMActual","","","","","","8136.1849999957485","","","","Images/NewTrialWC.png","","2"
"image-button-response","363","653079","0.0-13.0-1.101","3","Low_HMMActual","","","","","","null","","","","Images/WhiteBeadChoice.png","","null"
"image-button-response","364","653591","0.0-13.0-2.101","3","Low_HMMActual","","","","","","null","","","","Images/WhiteBeadChoiceCorrect.png","","null"
"image-button-response","365","653789","0.0-13.0-0.102","3","Low_HMMActual","","","","","","190.165000007255","","","","Images/NewTrialWC.png","","3"
"image-button-response","366","654113","0.0-13.0-1.102","3","Low_HMMActual","","","","","","null","","","","Images/WhiteBeadChoice.png","","null"
"image-button-response","367","654629","0.0-13.0-2.102","3","Low_HMMActual","","","","","","472.1199999912642","","","","Images/WhiteBeadChoiceCorrect.png","","2"
"image-button-response","368","655500","0.0-13.0-0.103","3","Low_HMMActual","","","","","","862.6599999988684","","","","Images/NewTrialWC.png","","2"
"image-button-response","369","655808","0.0-13.0-1.103","3","Low_HMMActual","","","","","","null","","","","Images/WhiteBeadChoice.png","","null"
"image-button-response","370","656313","0.0-13.0-2.103","3","Low_HMMActual","","","","","","464.05500000400934","","","","Images/WhiteBeadChoiceCorrect.png","","2"
"image-button-response","371","656885","0.0-13.0-0.104","3","Low_HMMActual","","","","","","563.9000000082888","","","","Images/NewTrialWC.png","","2"
"image-button-response","372","657196","0.0-13.0-1.104","3","Low_HMMActual","","","","","","null","","","","Images/WhiteBeadChoice.png","","null"
"image-button-response","373","657713","0.0-13.0-2.104","3","Low_HMMActual","","","","","","null","","","","Images/WhiteBeadChoiceCorrect.png","","null"
"image-button-response","374","658325","0.0-13.0-0.105","3","Low_HMMActual","","","","","","606.2300000048708","","","","Images/NewTrialWC.png","","2"
"image-button-response","375","658646","0.0-13.0-1.105","3","Low_HMMActual","","","","","","null","","","","Images/WhiteBeadChoice.png","","null"
"image-button-response","376","659162","0.0-13.0-2.105","3","Low_HMMActual","","","","","","null","","","","Images/WhiteBeadChoiceWrong.png","","null"
"image-button-response","377","660373","0.0-13.0-0.106","3","Low_HMMActual","","","","","","1204.9750000005588","","","","Images/NewTrialBC.png","","1"
"image-button-response","378","660685","0.0-13.0-1.106","3","Low_HMMActual","","","","","","null","","","","Images/BlackBeadChoice.png","","null"
"image-button-response","379","661197","0.0-13.0-2.106","3","Low_HMMActual","","","","","","null","","","","Images/BlackBeadChoiceWrong.png","","null"
"image-button-response","380","661917","0.0-13.0-0.107","3","Low_HMMActual","","","","","","710.8599999919534","","","","Images/NewTrialWC.png","","0"
"image-button-response","381","662229","0.0-13.0-1.107","3","Low_HMMActual","","","","","","null","","","","Images/BlackBeadChoice.png","","null"
"image-button-response","382","662747","0.0-13.0-2.107","3","Low_HMMActual","","","","","","476.05499999190215","","","","Images/BlackBeadChoiceWrong.png","","1"
"image-button-response","383","663495","0.0-13.0-0.108","3","Low_HMMActual","","","","","","738.1300000124611","","","","Images/NewTrialWC.png","","1"
"image-button-response","384","663808","0.0-13.0-1.108","3","Low_HMMActual","","","","","","null","","","","Images/BlackBeadChoice.png","","null"
"image-button-response","385","664322","0.0-13.0-2.108","3","Low_HMMActual","","","","","","null","","","","Images/BlackBeadChoiceCorrect.png","","null"
"image-button-response","386","665047","0.0-13.0-0.109","3","Low_HMMActual","","","","","","717.225000000326","","","","Images/NewTrialBC.png","","1"
"image-button-response","387","665362","0.0-13.0-1.109","3","Low_HMMActual","","","","","","null","","","","Images/BlackBeadChoice.png","","null"
"image-button-response","388","665876","0.0-13.0-2.109","3","Low_HMMActual","","","","","","null","","","","Images/BlackBeadChoiceWrong.png","","null"
"image-button-response","389","666598","0.0-13.0-0.110","3","Low_HMMActual","","","","","","713.4499999956461","","","","Images/NewTrialWC.png","","1"
"image-button-response","390","666923","0.0-13.0-1.110","3","Low_HMMActual","","","","","","null","","","","Images/BlackBeadChoice.png","","null"
"image-button-response","391","667443","0.0-13.0-2.110","3","Low_HMMActual","","","","","","null","","","","Images/BlackBeadChoiceWrong.png","","null"
"image-button-response","392","668447","0.0-13.0-0.111","3","Low_HMMActual","","","","","","997.8750000009313","","","","Images/NewTrialWC.png","","0"
"image-button-response","393","668759","0.0-13.0-1.111","3","Low_HMMActual","","","","","","null","","","","Images/BlackBeadChoice.png","","null"
"image-button-response","394","669274","0.0-13.0-2.111","3","Low_HMMActual","","","","","","null","","","","Images/BlackBeadChoiceWrong.png","","null"
"image-button-response","395","670399","0.0-13.0-0.112","3","Low_HMMActual","","","","","","1117.0700000075158","","","","Images/NewTrialWC.png","","2"
"image-button-response","396","670713","0.0-13.0-1.112","3","Low_HMMActual","","","","","","null","","","","Images/WhiteBeadChoice.png","","null"
"image-button-response","397","671220","0.0-13.0-2.112","3","Low_HMMActual","","","","","","null","","","","Images/WhiteBeadChoiceCorrect.png","","null"
"image-button-response","398","671728","0.0-13.0-0.113","3","Low_HMMActual","","","","","","497.82999999297317","","","","Images/NewTrialWC.png","","1"
"image-button-response","399","672043","0.0-13.0-1.113","3","Low_HMMActual","","","","","","null","","","","Images/BlackBeadChoice.png","","null"
"image-button-response","400","672564","0.0-13.0-2.113","3","Low_HMMActual","","","","","","null","","","","Images/BlackBeadChoiceWrong.png","","null"
"image-button-response","401","673080","0.0-13.0-0.114","3","Low_HMMActual","","","","","","509.6449999982724","","","","Images/NewTrialWC.png","","3"
"image-button-response","402","673397","0.0-13.0-1.114","3","Low_HMMActual","","","","","","null","","","","Images/WhiteBeadChoice.png","","null"
"image-button-response","403","673912","0.0-13.0-2.114","3","Low_HMMActual","","","","","","378.8300000014715","","","","Images/WhiteBeadChoiceWrong.png","","3"
"image-button-response","404","674502","0.0-13.0-0.115","3","Low_HMMActual","","","","","","582.4300000094809","","","","Images/NewTrialBC.png","","2"
"image-button-response","405","674813","0.0-13.0-1.115","3","Low_HMMActual","","","","","","null","","","","Images/WhiteBeadChoice.png","","null"
"image-button-response","406","675322","0.0-13.0-2.115","3","Low_HMMActual","","","","","","427.00999999942724","","","","Images/WhiteBeadChoiceWrong.png","","2"
"image-button-response","407","676297","0.0-13.0-0.116","3","Low_HMMActual","","","","","","957.1100000030128","","","","Images/NewTrialBC.png","","2"
"image-button-response","408","676604","0.0-13.0-1.116","3","Low_HMMActual","","","","","","null","","","","Images/WhiteBeadChoice.png","","null"
"image-button-response","409","677113","0.0-13.0-2.116","3","Low_HMMActual","","","","","","452.76499999454245","","","","Images/WhiteBeadChoiceWrong.png","","2"
"image-button-response","410","677647","0.0-13.0-0.117","3","Low_HMMActual","","","","","","527.0450000098208","","","","Images/NewTrialBC.png","","2"
"image-button-response","411","677963","0.0-13.0-1.117","3","Low_HMMActual","","","","","","null","","","","Images/WhiteBeadChoice.png","","null"
"image-button-response","412","678476","0.0-13.0-2.117","3","Low_HMMActual","","","","","","220.1000000059139","","","","Images/WhiteBeadChoiceWrong.png","","2"
"image-button-response","413","678686","0.0-13.0-0.118","3","Low_HMMActual","","","","","","200.62000000325497","","","","Images/NewTrialBC.png","","2"
"image-button-response","414","678995","0.0-13.0-1.118","3","Low_HMMActual","","","","","","null","","","","Images/WhiteBeadChoice.png","","null"
"image-button-response","415","679512","0.0-13.0-2.118","3","Low_HMMActual","","","","","","209.32999999786261","","","","Images/WhiteBeadChoiceWrong.png","","2"
"image-button-response","416","679718","0.0-13.0-0.119","3","Low_HMMActual","","","","","","198.275000002468","","","","Images/NewTrialBC.png","","2"
"image-button-response","417","680029","0.0-13.0-1.119","3","Low_HMMActual","","","","","","null","","","","Images/WhiteBeadChoice.png","","null"
"image-button-response","418","680548","0.0-13.0-2.119","3","Low_HMMActual","","","","","","null","","","","Images/WhiteBeadChoiceCorrect.png","","null"
"image-button-response","419","681214","0.0-13.0-0.120","3","Low_HMMActual","","","","","","659.5950000046287","","","","Images/NewTrialWC.png","","0"
"image-button-response","420","681531","0.0-13.0-1.120","3","Low_HMMActual","","","","","","null","","","","Images/BlackBeadChoice.png","","null"
"image-button-response","421","682046","0.0-13.0-2.120","3","Low_HMMActual","","","","","","null","","","","Images/BlackBeadChoiceCorrect.png","","null"
"image-button-response","422","682896","0.0-13.0-0.121","3","Low_HMMActual","","","","","","842.7950000041164","","","","Images/NewTrialBC.png","","0"
"image-button-response","423","683209","0.0-13.0-1.121","3","Low_HMMActual","","","","","","null","","","","Images/BlackBeadChoice.png","","null"
"image-button-response","424","683729","0.0-13.0-2.121","3","Low_HMMActual","","","","","","247.92999999772292","","","","Images/BlackBeadChoiceCorrect.png","","1"
"image-button-response","425","684382","0.0-13.0-0.122","3","Low_HMMActual","","","","","","644.334999989951","","","","Images/NewTrialBC.png","","2"
"image-button-response","426","684697","0.0-13.0-1.122","3","Low_HMMActual","","","","","","null","","","","Images/WhiteBeadChoice.png","","null"
"image-button-response","427","685213","0.0-13.0-2.122","3","Low_HMMActual","","","","","","null","","","","Images/WhiteBeadChoiceWrong.png","","null"
"image-button-response","428","686006","0.0-13.0-0.123","3","Low_HMMActual","","","","","","785.1249999948777","","","","Images/NewTrialBC.png","","0"
"image-button-response","429","686316","0.0-13.0-1.123","3","Low_HMMActual","","","","","","null","","","","Images/BlackBeadChoice.png","","null"
"image-button-response","430","686823","0.0-13.0-2.123","3","Low_HMMActual","","","","","","363.97999999462627","","","","Images/BlackBeadChoiceCorrect.png","","0"
"image-button-response","431","687181","0.0-13.0-0.124","3","Low_HMMActual","","","","","","349.6349999913946","","","","Images/NewTrialBC.png","","0"
"image-button-response","432","687510","0.0-13.0-1.124","3","Low_HMMActual","","","","","","null","","","","Images/BlackBeadChoice.png","","null"
"image-button-response","433","688029","0.0-13.0-2.124","3","Low_HMMActual","","","","","","401.9699999917066","","","","Images/BlackBeadChoiceWrong.png","","0"
"image-button-response","434","689146","0.0-13.0-0.125","3","Low_HMMActual","","","","","","1108.0299999885028","","","","Images/NewTrialWC.png","","2"
"image-button-response","435","689462","0.0-13.0-1.125","3","Low_HMMActual","","","","","","null","","","","Images/WhiteBeadChoice.png","","null"
"image-button-response","436","689978","0.0-13.0-2.125","3","Low_HMMActual","","","","","","322.33500000438653","","","","Images/WhiteBeadChoiceWrong.png","","2"
"image-button-response","437","691167","0.0-13.0-0.126","3","Low_HMMActual","","","","","","1181.2950000021374","","","","Images/NewTrialBC.png","","0"
"image-button-response","438","691478","0.0-13.0-1.126","3","Low_HMMActual","","","","","","null","","","","Images/BlackBeadChoice.png","","null"
"image-button-response","439","691989","0.0-13.0-2.126","3","Low_HMMActual","","","","","","396.5849999949569","","","","Images/BlackBeadChoiceCorrect.png","","0"
"image-button-response","440","692614","0.0-13.0-0.127","3","Low_HMMActual","","","","","","617.6549999945564","","","","Images/NewTrialBC.png","","0"
"image-button-response","441","692938","0.0-13.0-1.127","3","Low_HMMActual","","","","","","null","","","","Images/BlackBeadChoice.png","","null"
"image-button-response","442","693446","0.0-13.0-2.127","3","Low_HMMActual","","","","","","462.55999999993946","","","","Images/BlackBeadChoiceCorrect.png","","0"
"image-button-response","443","694006","0.0-13.0-0.128","3","Low_HMMActual","","","","","","550.8949999930337","","","","Images/NewTrialBC.png","","0"
"image-button-response","444","694329","0.0-13.0-1.128","3","Low_HMMActual","","","","","","null","","","","Images/BlackBeadChoice.png","","null"
"image-button-response","445","694835","0.0-13.0-2.128","3","Low_HMMActual","","","","","","486.90000000351574","","","","Images/BlackBeadChoiceCorrect.png","","0"
"image-button-response","446","695350","0.0-13.0-0.129","3","Low_HMMActual","","","","","","504.7199999971781","","","","Images/NewTrialBC.png","","0"
"image-button-response","447","695663","0.0-13.0-1.129","3","Low_HMMActual","","","","","","null","","","","Images/BlackBeadChoice.png","","null"
"image-button-response","448","696179","0.0-13.0-2.129","3","Low_HMMActual","","","","","","null","","","","Images/BlackBeadChoiceCorrect.png","","null"
"image-button-response","449","696773","0.0-13.0-0.130","3","Low_HMMActual","","","","","","587.0750000030966","","","","Images/NewTrialBC.png","","0"
"image-button-response","450","697095","0.0-13.0-1.130","3","Low_HMMActual","","","","","","null","","","","Images/BlackBeadChoice.png","","null"
"image-button-response","451","697611","0.0-13.0-2.130","3","Low_HMMActual","","","","","","null","","","","Images/BlackBeadChoiceCorrect.png","","null"
"image-button-response","452","698157","0.0-13.0-0.131","3","Low_HMMActual","","","","","","538.5000000096625","","","","Images/NewTrialBC.png","","0"
"image-button-response","453","698469","0.0-13.0-1.131","3","Low_HMMActual","","","","","","null","","","","Images/BlackBeadChoice.png","","null"
"image-button-response","454","698977","0.0-13.0-2.131","3","Low_HMMActual","","","","","","null","","","","Images/BlackBeadChoiceCorrect.png","","null"
"image-button-response","455","699333","0.0-13.0-0.132","3","Low_HMMActual","","","","","","348.4000000025844","","","","Images/NewTrialBC.png","","0"
"image-button-response","456","699645","0.0-13.0-1.132","3","Low_HMMActual","","","","","","null","","","","Images/BlackBeadChoice.png","","null"
"image-button-response","457","700153","0.0-13.0-2.132","3","Low_HMMActual","","","","","","null","","","","Images/BlackBeadChoiceCorrect.png","","null"
"image-button-response","458","701111","0.0-13.0-0.133","3","Low_HMMActual","","","","","","939.1500000056112","","","","Images/NewTrialBC.png","","0"
"image-button-response","459","701418","0.0-13.0-1.133","3","Low_HMMActual","","","","","","null","","","","Images/BlackBeadChoice.png","","null"
"image-button-response","460","701929","0.0-13.0-2.133","3","Low_HMMActual","","","","","","null","","","","Images/BlackBeadChoiceCorrect.png","","null"
"image-button-response","461","702669","0.0-13.0-0.134","3","Low_HMMActual","","","","","","733.219999994617","","","","Images/NewTrialBC.png","","0"
"image-button-response","462","702978","0.0-13.0-1.134","3","Low_HMMActual","","","","","","null","","","","Images/BlackBeadChoice.png","","null"
"image-button-response","463","703483","0.0-13.0-2.134","3","Low_HMMActual","","","","","","null","","","","Images/BlackBeadChoiceWrong.png","","null"
"image-button-response","464","704766","0.0-13.0-0.135","3","Low_HMMActual","","","","","","1276.5849999996135","","","","Images/NewTrialWC.png","","2"
"image-button-response","465","705078","0.0-13.0-1.135","3","Low_HMMActual","","","","","","null","","","","Images/WhiteBeadChoice.png","","null"
"image-button-response","466","705595","0.0-13.0-2.135","3","Low_HMMActual","","","","","","null","","","","Images/WhiteBeadChoiceWrong.png","","null"
"image-button-response","467","706534","0.0-13.0-0.136","3","Low_HMMActual","","","","","","928.474999993341","","","","Images/NewTrialBC.png","","2"
"image-button-response","468","706846","0.0-13.0-1.136","3","Low_HMMActual","","","","","","null","","","","Images/WhiteBeadChoice.png","","null"
"image-button-response","469","707364","0.0-13.0-2.136","3","Low_HMMActual","","","","","","null","","","","Images/WhiteBeadChoiceWrong.png","","null"
"image-button-response","470","709382","0.0-13.0-0.137","3","Low_HMMActual","","","","","","2010.934999998426","","","","Images/NewTrialBC.png","","0"
"image-button-response","471","709694","0.0-13.0-1.137","3","Low_HMMActual","","","","","","null","","","","Images/BlackBeadChoice.png","","null"
"image-button-response","472","710213","0.0-13.0-2.137","3","Low_HMMActual","","","","","","null","","","","Images/BlackBeadChoiceWrong.png","","null"
"image-button-response","473","711734","0.0-13.0-0.138","3","Low_HMMActual","","","","","","1514.9950000050012","","","","Images/NewTrialWC.png","","2"
"image-button-response","474","712043","0.0-13.0-1.138","3","Low_HMMActual","","","","","","null","","","","Images/WhiteBeadChoice.png","","null"
"image-button-response","475","712550","0.0-13.0-2.138","3","Low_HMMActual","","","","","","null","","","","Images/WhiteBeadChoiceCorrect.png","","null"
"image-button-response","476","713729","0.0-13.0-0.139","3","Low_HMMActual","","","","","","1164.0800000022864","","","","Images/NewTrialWC.png","","3"
"image-button-response","477","714044","0.0-13.0-1.139","3","Low_HMMActual","","","","","","null","","","","Images/WhiteBeadChoice.png","","null"
"image-button-response","478","714551","0.0-13.0-2.139","3","Low_HMMActual","","","","","","null","","","","Images/WhiteBeadChoiceWrong.png","","null"
"image-button-response","479","785302","0.0-13.0-0.140","3","Low_HMMActual","","","","","","70743.47499999567","","","","Images/NewTrialBC.png","","0"
"image-button-response","480","785619","0.0-13.0-1.140","3","Low_HMMActual","","","","","","null","","","","Images/BlackBeadChoice.png","","null"
"image-button-response","481","786138","0.0-13.0-2.140","3","Low_HMMActual","","","","","","null","","","","Images/BlackBeadChoiceWrong.png","","null"
"image-button-response","482","786529","0.0-13.0-0.141","3","Low_HMMActual","","","","","","366.5900000050897","","","","Images/NewTrialWC.png","","0"
"image-button-response","483","786844","0.0-13.0-1.141","3","Low_HMMActual","","","","","","null","","","","Images/BlackBeadChoice.png","","null"
"image-button-response","484","787364","0.0-13.0-2.141","3","Low_HMMActual","","","","","","null","","","","Images/BlackBeadChoiceCorrect.png","","null"
"image-button-response","485","787784","0.0-13.0-0.142","3","Low_HMMActual","","","","","","412.4900000024354","","","","Images/NewTrialBC.png","","0"
"image-button-response","486","788093","0.0-13.0-1.142","3","Low_HMMActual","","","","","","null","","","","Images/BlackBeadChoice.png","","null"
"image-button-response","487","788636","0.0-13.0-2.142","3","Low_HMMActual","","","","","","437.8500000020722","","","","Images/BlackBeadChoiceCorrect.png","","0"
"image-button-response","488","789000","0.0-13.0-0.143","3","Low_HMMActual","","","","","","351.3050000037765","","","","Images/NewTrialBC.png","","0"
"image-button-response","489","789310","0.0-13.0-1.143","3","Low_HMMActual","","","","","","null","","","","Images/BlackBeadChoice.png","","null"
"image-button-response","490","789831","0.0-13.0-2.143","3","Low_HMMActual","","","","","","null","","","","Images/BlackBeadChoiceCorrect.png","","null"
"image-button-response","491","790297","0.0-13.0-0.144","3","Low_HMMActual","","","","","","444.7700000018813","","","","Images/NewTrialBC.png","","0"
"image-button-response","492","790615","0.0-13.0-1.144","3","Low_HMMActual","","","","","","null","","","","Images/BlackBeadChoice.png","","null"
"image-button-response","493","791130","0.0-13.0-2.144","3","Low_HMMActual","","","","","","null","","","","Images/BlackBeadChoiceCorrect.png","","null"
"image-button-response","494","791349","0.0-13.0-0.145","3","Low_HMMActual","","","","","","204.14500001061242","","","","Images/NewTrialBC.png","","0"
"image-button-response","495","791665","0.0-13.0-1.145","3","Low_HMMActual","","","","","","null","","","","Images/BlackBeadChoice.png","","null"
"image-button-response","496","792177","0.0-13.0-2.145","3","Low_HMMActual","","","","","","null","","","","Images/BlackBeadChoiceWrong.png","","null"
"image-button-response","497","793032","0.0-13.0-0.146","3","Low_HMMActual","","","","","","843.9850000140723","","","","Images/NewTrialWC.png","","0"
"image-button-response","498","793349","0.0-13.0-1.146","3","Low_HMMActual","","","","","","null","","","","Images/BlackBeadChoice.png","","null"
"image-button-response","499","793864","0.0-13.0-2.146","3","Low_HMMActual","","","","","","391.91500000015367","","","","Images/BlackBeadChoiceCorrect.png","","0"
"image-button-response","500","794248","0.0-13.0-0.147","3","Low_HMMActual","","","","","","371.30999998771586","","","","Images/NewTrialBC.png","","0"
"image-button-response","501","794564","0.0-13.0-1.147","3","Low_HMMActual","","","","","","null","","","","Images/BlackBeadChoice.png","","null"
"image-button-response","502","795080","0.0-13.0-2.147","3","Low_HMMActual","","","","","","386.19499999913387","","","","Images/BlackBeadChoiceWrong.png","","0"
"image-button-response","503","795648","0.0-13.0-0.148","3","Low_HMMActual","","","","","","551.4499999990221","","","","Images/NewTrialWC.png","","0"
"image-button-response","504","795967","0.0-13.0-1.148","3","Low_HMMActual","","","","","","null","","","","Images/BlackBeadChoice.png","","null"
"image-button-response","505","796485","0.0-13.0-2.148","3","Low_HMMActual","","","","","","null","","","","Images/BlackBeadChoiceCorrect.png","","null"
"image-button-response","506","796745","0.0-13.0-0.149","3","Low_HMMActual","","","","","","248.30500000098255","","","","Images/NewTrialBC.png","","2"
"image-button-response","507","797050","0.0-13.0-1.149","3","Low_HMMActual","","","","","","null","","","","Images/WhiteBeadChoice.png","","null"
"image-button-response","508","797555","0.0-13.0-2.149","3","Low_HMMActual","","","","","","null","","","","Images/WhiteBeadChoiceWrong.png","","null"
"image-button-response","509","797768","0.0-13.0-0.150","3","Low_HMMActual","","","","","","175.86500001198146","","","","Images/NewTrialBC.png","","0"
"image-button-response","510","798075","0.0-13.0-1.150","3","Low_HMMActual","","","","","","null","","","","Images/BlackBeadChoice.png","","null"
"image-button-response","511","798579","0.0-13.0-2.150","3","Low_HMMActual","","","","","","457.15000000200234","","","","Images/BlackBeadChoiceCorrect.png","","0"
"image-button-response","512","799042","0.0-13.0-0.151","3","Low_HMMActual","","","","","","455.0900000031106","","","","Images/NewTrialBC.png","","0"
"image-button-response","513","799380","0.0-13.0-1.151","3","Low_HMMActual","","","","","","null","","","","Images/BlackBeadChoice.png","","null"
"image-button-response","514","799895","0.0-13.0-2.151","3","Low_HMMActual","","","","","","null","","","","Images/BlackBeadChoiceCorrect.png","","null"
"image-button-response","515","800312","0.0-13.0-0.152","3","Low_HMMActual","","","","","","408.2449999987148","","","","Images/NewTrialBC.png","","2"
"image-button-response","516","800623","0.0-13.0-1.152","3","Low_HMMActual","","","","","","null","","","","Images/WhiteBeadChoice.png","","null"
"image-button-response","517","801130","0.0-13.0-2.152","3","Low_HMMActual","","","","","","null","","","","Images/WhiteBeadChoiceCorrect.png","","null"
"image-button-response","518","801857","0.0-13.0-0.153","3","Low_HMMActual","","","","","","715.4350000055274","","","","Images/NewTrialWC.png","","0"
"image-button-response","519","802172","0.0-13.0-1.153","3","Low_HMMActual","","","","","","null","","","","Images/BlackBeadChoice.png","","null"
"image-button-response","520","802700","0.0-13.0-2.153","3","Low_HMMActual","","","","","","null","","","","Images/BlackBeadChoiceCorrect.png","","null"
"image-button-response","521","803090","0.0-13.0-0.154","3","Low_HMMActual","","","","","","371.73499999335036","","","","Images/NewTrialBC.png","","2"
"image-button-response","522","803399","0.0-13.0-1.154","3","Low_HMMActual","","","","","","null","","","","Images/WhiteBeadChoice.png","","null"
"image-button-response","523","803910","0.0-13.0-2.154","3","Low_HMMActual","","","","","","null","","","","Images/WhiteBeadChoiceWrong.png","","null"
"image-button-response","524","804193","0.0-13.0-0.155","3","Low_HMMActual","","","","","","275.18500000587665","","","","Images/NewTrialBC.png","","0"
"image-button-response","525","804513","0.0-13.0-1.155","3","Low_HMMActual","","","","","","null","","","","Images/BlackBeadChoice.png","","null"
"image-button-response","526","805028","0.0-13.0-2.155","3","Low_HMMActual","","","","","","483.8000000017928","","","","Images/BlackBeadChoiceCorrect.png","","0"
"image-button-response","527","805633","0.0-13.0-0.156","3","Low_HMMActual","","","","","","597.69999999844","","","","Images/NewTrialBC.png","","0"
"image-button-response","528","805947","0.0-13.0-1.156","3","Low_HMMActual","","","","","","null","","","","Images/BlackBeadChoice.png","","null"
"image-button-response","529","806511","0.0-13.0-2.156","3","Low_HMMActual","","","","","","453.07500001217704","","","","Images/BlackBeadChoiceWrong.png","","0"
"image-button-response","530","806985","0.0-13.0-0.157","3","Low_HMMActual","","","","","","466.13000000070315","","","","Images/NewTrialWC.png","","0"
"image-button-response","531","807297","0.0-13.0-1.157","3","Low_HMMActual","","","","","","null","","","","Images/BlackBeadChoice.png","","null"
"image-button-response","532","807813","0.0-13.0-2.157","3","Low_HMMActual","","","","","","249.37499999941792","","","","Images/BlackBeadChoiceWrong.png","","0"
"image-button-response","533","808400","0.0-13.0-0.158","3","Low_HMMActual","","","","","","572.9750000027707","","","","Images/NewTrialWC.png","","0"
"image-button-response","534","808714","0.0-13.0-1.158","3","Low_HMMActual","","","","","","null","","","","Images/BlackBeadChoice.png","","null"
"image-button-response","535","809252","0.0-13.0-2.158","3","Low_HMMActual","","","","","","437.01000000874046","","","","Images/BlackBeadChoiceWrong.png","","0"
"image-button-response","536","810233","0.0-13.0-0.159","3","Low_HMMActual","","","","","","973.1250000040745","","","","Images/NewTrialWC.png","","2"
"image-button-response","537","810547","0.0-13.0-1.159","3","Low_HMMActual","","","","","","null","","","","Images/WhiteBeadChoice.png","","null"
"image-button-response","538","811061","0.0-13.0-2.159","3","Low_HMMActual","","","","","","456.26500000071246","","","","Images/WhiteBeadChoiceWrong.png","","2"
"image-button-response","539","811665","0.0-13.0-0.160","3","Low_HMMActual","","","","","","596.9599999953061","","","","Images/NewTrialBC.png","","2"
"image-button-response","540","811983","0.0-13.0-1.160","3","Low_HMMActual","","","","","","null","","","","Images/WhiteBeadChoice.png","","null"
"image-button-response","541","812503","0.0-13.0-2.160","3","Low_HMMActual","","","","","","null","","","","Images/WhiteBeadChoiceWrong.png","","null"
"image-button-response","542","812697","0.0-13.0-0.161","3","Low_HMMActual","","","","","","161.60500000114553","","","","Images/NewTrialBC.png","","0"
"image-button-response","543","813003","0.0-13.0-1.161","3","Low_HMMActual","","","","","","null","","","","Images/BlackBeadChoice.png","","null"
"image-button-response","544","813526","0.0-13.0-2.161","3","Low_HMMActual","","","","","","457.84000000276137","","","","Images/BlackBeadChoiceCorrect.png","","0"
"image-button-response","545","814065","0.0-13.0-0.162","3","Low_HMMActual","","","","","","532.1950000070501","","","","Images/NewTrialBC.png","","0"
"image-button-response","546","814383","0.0-13.0-1.162","3","Low_HMMActual","","","","","","null","","","","Images/BlackBeadChoice.png","","null"
"image-button-response","547","814911","0.0-13.0-2.162","3","Low_HMMActual","","","","","","null","","","","Images/BlackBeadChoiceCorrect.png","","null"
"image-button-response","548","815817","0.0-13.0-0.163","3","Low_HMMActual","","","","","","893.0200000031618","","","","Images/NewTrialBC.png","","0"
"image-button-response","549","816131","0.0-13.0-1.163","3","Low_HMMActual","","","","","","null","","","","Images/BlackBeadChoice.png","","null"
"image-button-response","550","816644","0.0-13.0-2.163","3","Low_HMMActual","","","","","","null","","","","Images/BlackBeadChoiceWrong.png","","null"
"image-button-response","551","817122","0.0-13.0-0.164","3","Low_HMMActual","","","","","","469.62999999232125","","","","Images/NewTrialWC.png","","0"
"image-button-response","552","817435","0.0-13.0-1.164","3","Low_HMMActual","","","","","","null","","","","Images/BlackBeadChoice.png","","null"
"image-button-response","553","817946","0.0-13.0-2.164","3","Low_HMMActual","","","","","","null","","","","Images/BlackBeadChoiceCorrect.png","","null"
"image-button-response","554","819465","0.0-13.0-0.165","3","Low_HMMActual","","","","","","1507.2399999917252","","","","Images/NewTrialBC.png","","0"
"image-button-response","555","819773","0.0-13.0-1.165","3","Low_HMMActual","","","","","","null","","","","Images/BlackBeadChoice.png","","null"
"image-button-response","556","820297","0.0-13.0-2.165","3","Low_HMMActual","","","","","","null","","","","Images/BlackBeadChoiceCorrect.png","","null"
"image-button-response","557","821781","0.0-13.0-0.166","3","Low_HMMActual","","","","","","1466.8200000014622","","","","Images/NewTrialBC.png","","2"
"image-button-response","558","822094","0.0-13.0-1.166","3","Low_HMMActual","","","","","","null","","","","Images/WhiteBeadChoice.png","","null"
"image-button-response","559","822616","0.0-13.0-2.166","3","Low_HMMActual","","","","","","null","","","","Images/WhiteBeadChoiceWrong.png","","null"
"image-button-response","560","824130","0.0-13.0-0.167","3","Low_HMMActual","","","","","","1498.0800000048475","","","","Images/NewTrialBC.png","","0"
"image-button-response","561","824447","0.0-13.0-1.167","3","Low_HMMActual","","","","","","null","","","","Images/BlackBeadChoice.png","","null"
"image-button-response","562","824963","0.0-13.0-2.167","3","Low_HMMActual","","","","","","null","","","","Images/BlackBeadChoiceCorrect.png","","null"
"image-button-response","563","825210","0.0-13.0-0.168","3","Low_HMMActual","","","","","","232.85000000032596","","","","Images/NewTrialBC.png","","0"
"image-button-response","564","825517","0.0-13.0-1.168","3","Low_HMMActual","","","","","","null","","","","Images/BlackBeadChoice.png","","null"
"image-button-response","565","826034","0.0-13.0-2.168","3","Low_HMMActual","","","","","","null","","","","Images/BlackBeadChoiceCorrect.png","","null"
"image-button-response","566","826386","0.0-13.0-0.169","3","Low_HMMActual","","","","","","334.5899999985704","","","","Images/NewTrialBC.png","","0"
"image-button-response","567","826697","0.0-13.0-1.169","3","Low_HMMActual","","","","","","null","","","","Images/BlackBeadChoice.png","","null"
"image-button-response","568","827213","0.0-13.0-2.169","3","Low_HMMActual","","","","","","null","","","","Images/BlackBeadChoiceCorrect.png","","null"
"image-button-response","569","827586","0.0-13.0-0.170","3","Low_HMMActual","","","","","","343.55499999946915","","","","Images/NewTrialBC.png","","0"
"image-button-response","570","827909","0.0-13.0-1.170","3","Low_HMMActual","","","","","","null","","","","Images/BlackBeadChoice.png","","null"
"image-button-response","571","828413","0.0-13.0-2.170","3","Low_HMMActual","","","","","","null","","","","Images/BlackBeadChoiceWrong.png","","null"
"image-button-response","572","829355","0.0-13.0-0.171","3","Low_HMMActual","","","","","","929.8899999994319","","","","Images/NewTrialWC.png","","2"
"image-button-response","573","829665","0.0-13.0-1.171","3","Low_HMMActual","","","","","","null","","","","Images/WhiteBeadChoice.png","","null"
"image-button-response","574","830168","0.0-13.0-2.171","3","Low_HMMActual","","","","","","null","","","","Images/WhiteBeadChoiceWrong.png","","null"
"image-button-response","575","830818","0.0-13.0-0.172","3","Low_HMMActual","","","","","","644.5550000062212","","","","Images/NewTrialBC.png","","0"
"image-button-response","576","831130","0.0-13.0-1.172","3","Low_HMMActual","","","","","","null","","","","Images/BlackBeadChoice.png","","null"
"image-button-response","577","831643","0.0-13.0-2.172","3","Low_HMMActual","","","","","","null","","","","Images/BlackBeadChoiceCorrect.png","","null"
"image-button-response","578","832596","0.0-13.0-0.173","3","Low_HMMActual","","","","","","947.585000001709","","","","Images/NewTrialBC.png","","0"
"image-button-response","579","832908","0.0-13.0-1.173","3","Low_HMMActual","","","","","","null","","","","Images/BlackBeadChoice.png","","null"
"image-button-response","580","833422","0.0-13.0-2.173","3","Low_HMMActual","","","","","","null","","","","Images/BlackBeadChoiceWrong.png","","null"
"image-button-response","581","833979","0.0-13.0-0.174","3","Low_HMMActual","","","","","","551.2250000028871","","","","Images/NewTrialWC.png","","2"
"image-button-response","582","834294","0.0-13.0-1.174","3","Low_HMMActual","","","","","","null","","","","Images/WhiteBeadChoice.png","","null"
"image-button-response","583","834817","0.0-13.0-2.174","3","Low_HMMActual","","","","","","null","","","","Images/WhiteBeadChoiceWrong.png","","null"
"image-button-response","584","835507","0.0-13.0-0.175","3","Low_HMMActual","","","","","","671.2950000073761","","","","Images/NewTrialBC.png","","0"
"image-button-response","585","835822","0.0-13.0-1.175","3","Low_HMMActual","","","","","","null","","","","Images/BlackBeadChoice.png","","null"
"image-button-response","586","836362","0.0-13.0-2.175","3","Low_HMMActual","","","","","","null","","","","Images/BlackBeadChoiceWrong.png","","null"
"image-button-response","587","837849","0.0-13.0-0.176","3","Low_HMMActual","","","","","","1480.8650000049965","","","","Images/NewTrialWC.png","","0"
"image-button-response","588","838155","0.0-13.0-1.176","3","Low_HMMActual","","","","","","null","","","","Images/BlackBeadChoice.png","","null"
"image-button-response","589","838659","0.0-13.0-2.176","3","Low_HMMActual","","","","","","null","","","","Images/BlackBeadChoiceCorrect.png","","null"
"image-button-response","590","839779","0.0-13.0-0.177","3","Low_HMMActual","","","","","","1115.15500000678","","","","Images/NewTrialBC.png","","0"
"image-button-response","591","840088","0.0-13.0-1.177","3","Low_HMMActual","","","","","","null","","","","Images/BlackBeadChoice.png","","null"
"image-button-response","592","840598","0.0-13.0-2.177","3","Low_HMMActual","","","","","","null","","","","Images/BlackBeadChoiceCorrect.png","","null"
"image-button-response","593","844098","0.0-13.0-0.178","3","Low_HMMActual","","","","","","3481.6699999937555","","","","Images/NewTrialBC.png","","0"
"image-button-response","594","844408","0.0-13.0-1.178","3","Low_HMMActual","","","","","","null","","","","Images/BlackBeadChoice.png","","null"
"image-button-response","595","844918","0.0-13.0-2.178","3","Low_HMMActual","","","","","","null","","","","Images/BlackBeadChoiceWrong.png","","null"
"image-button-response","596","845444","0.0-13.0-0.179","3","Low_HMMActual","","","","","","520.3199999959907","","","","Images/NewTrialWC.png","","2"
"image-button-response","597","845759","0.0-13.0-1.179","3","Low_HMMActual","","","","","","null","","","","Images/WhiteBeadChoice.png","","null"
"image-button-response","598","846265","0.0-13.0-2.179","3","Low_HMMActual","","","","","","null","","","","Images/WhiteBeadChoiceWrong.png","","null"
"image-button-response","599","846987","0.0-13.0-0.180","3","Low_HMMActual","","","","","","701.2599999870872","","","","Images/NewTrialBC.png","","0"
"image-button-response","600","847297","0.0-13.0-1.180","3","Low_HMMActual","","","","","","null","","","","Images/BlackBeadChoice.png","","null"
"image-button-response","601","847812","0.0-13.0-2.180","3","Low_HMMActual","","","","","","null","","","","Images/BlackBeadChoiceWrong.png","","null"
"image-button-response","602","852850","0.0-13.0-0.181","3","Low_HMMActual","","","","","","5027.874999999767","","","","Images/NewTrialWC.png","","0"
"image-button-response","603","853164","0.0-13.0-1.181","3","Low_HMMActual","","","","","","null","","","","Images/BlackBeadChoice.png","","null"
"image-button-response","604","853682","0.0-13.0-2.181","3","Low_HMMActual","","","","","","null","","","","Images/BlackBeadChoiceWrong.png","","null"
"image-button-response","605","854324","0.0-13.0-0.182","3","Low_HMMActual","","","","","","634.8699999944074","","","","Images/NewTrialWC.png","","2"
"image-button-response","606","854635","0.0-13.0-1.182","3","Low_HMMActual","","","","","","null","","","","Images/WhiteBeadChoice.png","","null"
"image-button-response","607","855146","0.0-13.0-2.182","3","Low_HMMActual","","","","","","null","","","","Images/WhiteBeadChoiceCorrect.png","","null"
"image-button-response","608","855941","0.0-13.0-0.183","3","Low_HMMActual","","","","","","774.6749999932945","","","","Images/NewTrialWC.png","","2"
"image-button-response","609","856254","0.0-13.0-1.183","3","Low_HMMActual","","","","","","null","","","","Images/WhiteBeadChoice.png","","null"
"image-button-response","610","856796","0.0-13.0-2.183","3","Low_HMMActual","","","","","","null","","","","Images/WhiteBeadChoiceCorrect.png","","null"
"image-button-response","611","857546","0.0-13.0-0.184","3","Low_HMMActual","","","","","","732.70500000217","","","","Images/NewTrialWC.png","","2"
"image-button-response","612","857852","0.0-13.0-1.184","3","Low_HMMActual","","","","","","null","","","","Images/WhiteBeadChoice.png","","null"
"image-button-response","613","858380","0.0-13.0-2.184","3","Low_HMMActual","","","","","","null","","","","Images/WhiteBeadChoiceCorrect.png","","null"
"image-button-response","614","858860","0.0-13.0-0.185","3","Low_HMMActual","","","","","","462.4949999997625","","","","Images/NewTrialWC.png","","2"
"image-button-response","615","859175","0.0-13.0-1.185","3","Low_HMMActual","","","","","","null","","","","Images/WhiteBeadChoice.png","","null"
"image-button-response","616","859682","0.0-13.0-2.185","3","Low_HMMActual","","","","","","null","","","","Images/WhiteBeadChoiceWrong.png","","null"
"image-button-response","617","892387","0.0-13.0-0.186","3","Low_HMMActual","","","","","","32693.350000001374","","","","Images/NewTrialBC.png","","0"
"image-button-response","618","892716","0.0-13.0-1.186","3","Low_HMMActual","","","","","","null","","","","Images/BlackBeadChoice.png","","null"
"image-button-response","619","893229","0.0-13.0-2.186","3","Low_HMMActual","","","","","","null","","","","Images/BlackBeadChoiceWrong.png","","null"
"image-button-response","620","893941","0.0-13.0-0.187","3","Low_HMMActual","","","","","","696.6350000002421","","","","Images/NewTrialWC.png","","0"
"image-button-response","621","894248","0.0-13.0-1.187","3","Low_HMMActual","","","","","","null","","","","Images/BlackBeadChoice.png","","null"
"image-button-response","622","894759","0.0-13.0-2.187","3","Low_HMMActual","","","","","","null","","","","Images/BlackBeadChoiceCorrect.png","","null"
"image-button-response","623","895326","0.0-13.0-0.188","3","Low_HMMActual","","","","","","559.8200000094948","","","","Images/NewTrialBC.png","","0"
"image-button-response","624","895638","0.0-13.0-1.188","3","Low_HMMActual","","","","","","null","","","","Images/BlackBeadChoice.png","","null"
"image-button-response","625","896154","0.0-13.0-2.188","3","Low_HMMActual","","","","","","null","","","","Images/BlackBeadChoiceWrong.png","","null"
"image-button-response","626","897263","0.0-13.0-0.189","3","Low_HMMActual","","","","","","1092.9599999944912","","","","Images/NewTrialWC.png","","2"
"image-button-response","627","897580","0.0-13.0-1.189","3","Low_HMMActual","","","","","","null","","","","Images/WhiteBeadChoice.png","","null"
"image-button-response","628","898094","0.0-13.0-2.189","3","Low_HMMActual","","","","","","null","","","","Images/WhiteBeadChoiceCorrect.png","","null"
"image-button-response","629","902229","0.0-13.0-0.190","3","Low_HMMActual","","","","","","4127.520000009099","","","","Images/NewTrialWC.png","","2"
"image-button-response","630","902538","0.0-13.0-1.190","3","Low_HMMActual","","","","","","null","","","","Images/WhiteBeadChoice.png","","null"
"image-button-response","631","903053","0.0-13.0-2.190","3","Low_HMMActual","","","","","","null","","","","Images/WhiteBeadChoiceCorrect.png","","null"
"image-button-response","632","903694","0.0-13.0-0.191","3","Low_HMMActual","","","","","","634.6800000028452","","","","Images/NewTrialWC.png","","2"
"image-button-response","633","904003","0.0-13.0-1.191","3","Low_HMMActual","","","","","","null","","","","Images/WhiteBeadChoice.png","","null"
"image-button-response","634","904522","0.0-13.0-2.191","3","Low_HMMActual","","","","","","null","","","","Images/WhiteBeadChoiceCorrect.png","","null"
"image-button-response","635","904948","0.0-13.0-0.192","3","Low_HMMActual","","","","","","419.3349999986822","","","","Images/NewTrialWC.png","","2"
"image-button-response","636","905272","0.0-13.0-1.192","3","Low_HMMActual","","","","","","null","","","","Images/WhiteBeadChoice.png","","null"
"image-button-response","637","905777","0.0-13.0-2.192","3","Low_HMMActual","","","","","","486.64499999722466","","","","Images/WhiteBeadChoiceCorrect.png","","2"
"image-button-response","638","906341","0.0-13.0-0.193","3","Low_HMMActual","","","","","","559.2850000102771","","","","Images/NewTrialWC.png","","2"
"image-button-response","639","906707","0.0-13.0-1.193","3","Low_HMMActual","","","","","","null","","","","Images/WhiteBeadChoice.png","","null"
"image-button-response","640","907224","0.0-13.0-2.193","3","Low_HMMActual","","","","","","null","","","","Images/WhiteBeadChoiceCorrect.png","","null"
"image-button-response","641","908276","0.0-13.0-0.194","3","Low_HMMActual","","","","","","1046.7499999940628","","","","Images/NewTrialWC.png","","2"
"image-button-response","642","908582","0.0-13.0-1.194","3","Low_HMMActual","","","","","","null","","","","Images/WhiteBeadChoice.png","","null"
"image-button-response","643","909116","0.0-13.0-2.194","3","Low_HMMActual","","","","","","null","","","","Images/WhiteBeadChoiceWrong.png","","null"
"image-button-response","644","910245","0.0-13.0-0.195","3","Low_HMMActual","","","","","","1115.9950000001118","","","","Images/NewTrialBC.png","","0"
"image-button-response","645","910561","0.0-13.0-1.195","3","Low_HMMActual","","","","","","null","","","","Images/BlackBeadChoice.png","","null"
"image-button-response","646","911081","0.0-13.0-2.195","3","Low_HMMActual","","","","","","null","","","","Images/BlackBeadChoiceCorrect.png","","null"
"image-button-response","647","912423","0.0-13.0-0.196","3","Low_HMMActual","","","","","","1327.9750000074273","","","","Images/NewTrialBC.png","","0"
"image-button-response","648","912731","0.0-13.0-1.196","3","Low_HMMActual","","","","","","null","","","","Images/BlackBeadChoice.png","","null"
"image-button-response","649","913236","0.0-13.0-2.196","3","Low_HMMActual","","","","","","null","","","","Images/BlackBeadChoiceWrong.png","","null"
"image-button-response","650","914109","0.0-13.0-0.197","3","Low_HMMActual","","","","","","857.4249999946915","","","","Images/NewTrialWC.png","","2"
"image-button-response","651","914421","0.0-13.0-1.197","3","Low_HMMActual","","","","","","null","","","","Images/WhiteBeadChoice.png","","null"
"image-button-response","652","914941","0.0-13.0-2.197","3","Low_HMMActual","","","","","","null","","","","Images/WhiteBeadChoiceCorrect.png","","null"
"image-button-response","653","915863","0.0-13.0-0.198","3","Low_HMMActual","","","","","","915.9450000006473","","","","Images/NewTrialWC.png","","2"
"image-button-response","654","916172","0.0-13.0-1.198","3","Low_HMMActual","","","","","","null","","","","Images/WhiteBeadChoice.png","","null"
"image-button-response","655","916693","0.0-13.0-2.198","3","Low_HMMActual","","","","","","null","","","","Images/WhiteBeadChoiceCorrect.png","","null"
"image-button-response","656","917349","0.0-13.0-0.199","3","Low_HMMActual","","","","","","646.8699999968521","","","","Images/NewTrialWC.png","","2"
"image-button-response","657","917660","0.0-13.0-1.199","3","Low_HMMActual","","","","","","null","","","","Images/WhiteBeadChoice.png","","null"
"image-button-response","658","918172","0.0-13.0-2.199","3","Low_HMMActual","","","","","","null","","","","Images/WhiteBeadChoiceCorrect.png","","null"
"image-button-response","659","918806","0.0-13.0-0.200","3","Low_HMMActual","","","","","","626.4800000062678","","","","Images/NewTrialWC.png","","2"
"image-button-response","660","919120","0.0-13.0-1.200","3","Low_HMMActual","","","","","","null","","","","Images/WhiteBeadChoice.png","","null"
"image-button-response","661","919630","0.0-13.0-2.200","3","Low_HMMActual","","","","","","null","","","","Images/WhiteBeadChoiceCorrect.png","","null"
"image-button-response","662","920359","0.0-13.0-0.201","3","Low_HMMActual","","","","","","710.2199999935692","","","","Images/NewTrialWC.png","","2"
"image-button-response","663","920669","0.0-13.0-1.201","3","Low_HMMActual","","","","","","null","","","","Images/WhiteBeadChoice.png","","null"
