"trial_type","trial_index","time_elapsed","internal_node_id","Script_Picker","Block_Type","success","timeout","failed_images","failed_audio","failed_video","rt","url","responses","question_order","stimulus","key_press","response"
"pavlovia","0","25","0.0-0.0","17","Low_HMMActual","","","","","","","","","","","",""
"preload","1","27","0.0-1.0","17","Low_HMMActual","true","false","[]","[]","[]","","","","","","",""
"external-html","2","27970","0.0-2.0-0.0","17","Low_HMMActual","","","","","","27550.600000023842","consent.html","","","","",""
"survey-multi-choice","3","34765","0.0-2.0-1.0","17","Low_HMMActual","","","","","","6792.5","","{""Q0"":""Female"",""Q1"":""White""}","[0,1]","","",""
"survey-text","4","37876","0.0-2.0-2.0","17","Low_HMMActual","","","","","","3108.899999976158","","{""Q0"":""27""}","","","",""
"survey-text","5","44126","0.0-2.0-3.0","17","Low_HMMActual","","","","","","6135.5","","{""Q0"":""60fe3a75817c3792ea847c8e""}","","","",""
"image-keyboard-response","6","55101","0.0-3.0-0.0","17","Low_HMMActual","","","","","","10862.100000023842","","","","tutorial/tutorial1.png"," ",""
"image-keyboard-response","7","63465","0.0-3.0-0.1","17","Low_HMMActual","","","","","","8363.100000023842","","","","tutorial/tutorial2.png"," ",""
"image-keyboard-response","8","67191","0.0-3.0-0.2","17","Low_HMMActual","","","","","","3725.7999999523163","","","","tutorial/tutorial3.png"," ",""
"image-keyboard-response","9","70148","0.0-3.0-0.3","17","Low_HMMActual","","","","","","2955.2000000476837","","","","tutorial/tutorial4.png"," ",""
"image-keyboard-response","10","72080","0.0-3.0-0.4","17","Low_HMMActual","","","","","","1931.3999999761581","","","","tutorial/tutorial5.png"," ",""
"image-keyboard-response","11","78096","0.0-3.0-0.5","17","Low_HMMActual","","","","","","6016.100000023842","","","","tutorial/tutorial6.png"," ",""
"image-keyboard-response","12","83846","0.0-3.0-0.6","17","Low_HMMActual","","","","","","5749.200000047684","","","","tutorial/tutorial7.png"," ",""
"image-keyboard-response","13","108531","0.0-3.0-0.7","17","Low_HMMActual","","","","","","24684.300000071526","","","","tutorial/tutorial8.png"," ",""
"image-keyboard-response","14","110807","0.0-3.0-0.8","17","Low_HMMActual","","","","","","2275","","","","tutorial/tutorial9.png"," ",""
"image-keyboard-response","15","115875","0.0-3.0-0.9","17","Low_HMMActual","","","","","","5068","","","","tutorial/tutorial10.png"," ",""
"image-keyboard-response","16","120393","0.0-3.0-0.10","17","Low_HMMActual","","","","","","4517.100000023842","","","","tutorial/tutorial11.png"," ",""
"image-keyboard-response","17","132343","0.0-3.0-0.11","17","Low_HMMActual","","","","","","11949.600000023842","","","","tutorial/tutorial12.png"," ",""
"image-keyboard-response","18","139520","0.0-3.0-0.12","17","Low_HMMActual","","","","","","7175.899999976158","","","","tutorial/tutorial13.png"," ",""
"image-keyboard-response","19","145135","0.0-3.0-0.13","17","Low_HMMActual","","","","","","5614.100000023842","","","","tutorial/tutorial14.png"," ",""
"image-keyboard-response","20","148040","0.0-3.0-0.14","17","Low_HMMActual","","","","","","2904.100000023842","","","","tutorial/tutorial15.png"," ",""
"image-keyboard-response","21","153468","0.0-4.0","17","Low_HMMActual","","","","","","5425.900000095367","","","","tutorial/tutorial16.png","arrowup",""
"image-keyboard-response","22","161594","0.0-5.0","17","Low_HMMActual","","","","","","6449.300000071526","","","","tutorial/tutorial17.png","arrowright",""
"image-keyboard-response","23","166275","0.0-6.0","17","Low_HMMActual","","","","","","3500.7000000476837","","","","tutorial/tutorial18.png","arrowleft",""
"image-keyboard-response","24","173190","0.0-7.0","17","Low_HMMActual","","","","","","6167.5","","","","tutorial/tutorial19.png"," ",""
"html-keyboard-response","25","176865","0.0-8.0","18","Low_HMMActual","","","","","","3671.9000000953674","","","","<div class=""container"" style=""height:800px;width:800px;display:flex;flex-direction:column;justify-content:center;align-items:center;text-align:center;font-weight:normal;font-family:Arial;font-size:20px""><p>Loading episode&hellip;</p><div>"," ",""
"image-button-response","26","183488","0.0-9.0-0.0","18","Low_HMMActual","","","","","","6619.100000023842","","","","Images/NoChoice.png","","0"
"image-button-response","27","183802","0.0-9.0-1.0","18","Low_HMMActual","","","","","","null","","","","Images/BlackBeadChoice.png","","null"
"image-button-response","28","184305","0.0-9.0-2.0","18","Low_HMMActual","","","","","","null","","","","Images/BlackBeadChoiceWrong.png","","null"
"image-button-response","29","189244","0.0-9.0-0.1","18","Low_HMMActual","","","","","","4937.099999904633","","","","Images/NewTrialWC.png","","2"
"image-button-response","30","189550","0.0-9.0-1.1","18","Low_HMMActual","","","","","","null","","","","Images/WhiteBeadChoice.png","","null"
"image-button-response","31","190067","0.0-9.0-2.1","18","Low_HMMActual","","","","","","null","","","","Images/WhiteBeadChoiceCorrect.png","","null"
"image-button-response","32","191212","0.0-9.0-0.2","18","Low_HMMActual","","","","","","1143.6000000238419","","","","Images/NewTrialWC.png","","2"
"image-button-response","33","191524","0.0-9.0-1.2","18","Low_HMMActual","","","","","","null","","","","Images/WhiteBeadChoice.png","","null"
"image-button-response","34","192040","0.0-9.0-2.2","18","Low_HMMActual","","","","","","null","","","","Images/WhiteBeadChoiceCorrect.png","","null"
"image-button-response","35","194090","0.0-9.0-0.3","18","Low_HMMActual","","","","","","2048.3000000715256","","","","Images/NewTrialWC.png","","2"
"image-button-response","36","194404","0.0-9.0-1.3","18","Low_HMMActual","","","","","","null","","","","Images/WhiteBeadChoice.png","","null"
"image-button-response","37","194919","0.0-9.0-2.3","18","Low_HMMActual","","","","","","null","","","","Images/WhiteBeadChoiceWrong.png","","null"
"image-button-response","38","198846","0.0-9.0-0.4","18","Low_HMMActual","","","","","","3925.4000000953674","","","","Images/NewTrialBC.png","","0"
"image-button-response","39","199148","0.0-9.0-1.4","18","Low_HMMActual","","","","","","null","","","","Images/BlackBeadChoice.png","","null"
"image-button-response","40","199661","0.0-9.0-2.4","18","Low_HMMActual","","","","","","null","","","","Images/BlackBeadChoiceWrong.png","","null"
"image-button-response","41","201472","0.0-9.0-0.5","18","Low_HMMActual","","","","","","1809","","","","Images/NewTrialWC.png","","2"
"image-button-response","42","201776","0.0-9.0-1.5","18","Low_HMMActual","","","","","","null","","","","Images/WhiteBeadChoice.png","","null"
"image-button-response","43","202278","0.0-9.0-2.5","18","Low_HMMActual","","","","","","null","","","","Images/WhiteBeadChoiceCorrect.png","","null"
"image-button-response","44","202536","0.0-9.0-0.6","18","Low_HMMActual","","","","","","256.39999997615814","","","","Images/NewTrialWC.png","","2"
"image-button-response","45","202844","0.0-9.0-1.6","18","Low_HMMActual","","","","","","null","","","","Images/WhiteBeadChoice.png","","null"
"image-button-response","46","203360","0.0-9.0-2.6","18","Low_HMMActual","","","","","","null","","","","Images/WhiteBeadChoiceWrong.png","","null"
"image-button-response","47","207108","0.0-9.0-0.7","18","Low_HMMActual","","","","","","3746.7999999523163","","","","Images/NewTrialBC.png","","0"
"image-button-response","48","207419","0.0-9.0-1.7","18","Low_HMMActual","","","","","","null","","","","Images/BlackBeadChoice.png","","null"
"image-button-response","49","207925","0.0-9.0-2.7","18","Low_HMMActual","","","","","","null","","","","Images/BlackBeadChoiceWrong.png","","null"
"image-button-response","50","208582","0.0-9.0-0.8","18","Low_HMMActual","","","","","","656","","","","Images/NewTrialWC.png","","2"
"image-button-response","51","208885","0.0-9.0-1.8","18","Low_HMMActual","","","","","","null","","","","Images/WhiteBeadChoice.png","","null"
"image-button-response","52","209388","0.0-9.0-2.8","18","Low_HMMActual","","","","","","null","","","","Images/WhiteBeadChoiceCorrect.png","","null"
"image-button-response","53","209911","0.0-9.0-0.9","18","Low_HMMActual","","","","","","521","","","","Images/NewTrialWC.png","","2"
"image-button-response","54","210222","0.0-9.0-1.9","18","Low_HMMActual","","","","","","null","","","","Images/WhiteBeadChoice.png","","null"
"image-button-response","55","210738","0.0-9.0-2.9","18","Low_HMMActual","","","","","","null","","","","Images/WhiteBeadChoiceWrong.png","","null"
"html-keyboard-response","56","212967","0.0-10.0","18","Low_HMMActual","","","","","","2228.1999999284744","","","",""," ",""
"image-keyboard-response","57","215038","0.0-11.0","18","Low_HMMActual","","","","","","2070.899999976158","","","","tutorial/tutorial20.png"," ",""
"html-keyboard-response","58","235321","0.0-12.0","19","Low_HMMActual","","","","","","20280.600000023842","","","","<div class=""container"" style=""height:800px;width:800px;display:flex;flex-direction:column;justify-content:center;align-items:center;text-align:center;font-weight:normal;font-family:Arial;font-size:20px""><p>Loading episode&hellip;</p><div>"," ",""
"image-button-response","59","240952","0.0-13.0-0.0","19","Low_HMMActual","","","","","","5630.100000023842","","","","Images/NoChoice.png","","1"
"image-button-response","60","241258","0.0-13.0-1.0","19","Low_HMMActual","","","","","","null","","","","Images/BlackBeadChoice.png","","null"
"image-button-response","61","241761","0.0-13.0-2.0","19","Low_HMMActual","","","","","","null","","","","Images/BlackBeadChoiceWrong.png","","null"
"image-button-response","62","243895","0.0-13.0-0.1","19","Low_HMMActual","","","","","","2132.1999999284744","","","","Images/NewTrialWC.png","","2"
"image-button-response","63","244210","0.0-13.0-1.1","19","Low_HMMActual","","","","","","null","","","","Images/WhiteBeadChoice.png","","null"
"image-button-response","64","244713","0.0-13.0-2.1","19","Low_HMMActual","","","","","","null","","","","Images/WhiteBeadChoiceCorrect.png","","null"
"image-button-response","65","245653","0.0-13.0-0.2","19","Low_HMMActual","","","","","","937.8000000715256","","","","Images/NewTrialWC.png","","2"
"image-button-response","66","245970","0.0-13.0-1.2","19","Low_HMMActual","","","","","","null","","","","Images/WhiteBeadChoice.png","","null"
"image-button-response","67","246472","0.0-13.0-2.2","19","Low_HMMActual","","","","","","null","","","","Images/WhiteBeadChoiceCorrect.png","","null"
"image-button-response","68","247327","0.0-13.0-0.3","19","Low_HMMActual","","","","","","853","","","","Images/NewTrialWC.png","","2"
"image-button-response","69","247630","0.0-13.0-1.3","19","Low_HMMActual","","","","","","null","","","","Images/WhiteBeadChoice.png","","null"
"image-button-response","70","248135","0.0-13.0-2.3","19","Low_HMMActual","","","","","","null","","","","Images/WhiteBeadChoiceCorrect.png","","null"
"image-button-response","71","248745","0.0-13.0-0.4","19","Low_HMMActual","","","","","","608","","","","Images/NewTrialWC.png","","2"
"image-button-response","72","249050","0.0-13.0-1.4","19","Low_HMMActual","","","","","","null","","","","Images/WhiteBeadChoice.png","","null"
"image-button-response","73","249555","0.0-13.0-2.4","19","Low_HMMActual","","","","","","null","","","","Images/WhiteBeadChoiceCorrect.png","","null"
"image-button-response","74","250197","0.0-13.0-0.5","19","Low_HMMActual","","","","","","640","","","","Images/NewTrialWC.png","","2"
"image-button-response","75","250505","0.0-13.0-1.5","19","Low_HMMActual","","","","","","null","","","","Images/WhiteBeadChoice.png","","null"
"image-button-response","76","251020","0.0-13.0-2.5","19","Low_HMMActual","","","","","","null","","","","Images/WhiteBeadChoiceWrong.png","","null"
"image-button-response","77","255731","0.0-13.0-0.6","19","Low_HMMActual","","","","","","4710.5","","","","Images/NewTrialBC.png","","3"
"image-button-response","78","256033","0.0-13.0-1.6","19","Low_HMMActual","","","","","","null","","","","Images/WhiteBeadChoice.png","","null"
"image-button-response","79","256549","0.0-13.0-2.6","19","Low_HMMActual","","","","","","null","","","","Images/WhiteBeadChoiceWrong.png","","null"
"image-button-response","80","257689","0.0-13.0-0.7","19","Low_HMMActual","","","","","","1138.8000000715256","","","","Images/NewTrialBC.png","","0"
"image-button-response","81","257991","0.0-13.0-1.7","19","Low_HMMActual","","","","","","null","","","","Images/BlackBeadChoice.png","","null"
"image-button-response","82","258501","0.0-13.0-2.7","19","Low_HMMActual","","","","","","null","","","","Images/BlackBeadChoiceCorrect.png","","null"
"image-button-response","83","259843","0.0-13.0-0.8","19","Low_HMMActual","","","","","","1339.6000000238419","","","","Images/NewTrialBC.png","","0"
"image-button-response","84","260144","0.0-13.0-1.8","19","Low_HMMActual","","","","","","null","","","","Images/BlackBeadChoice.png","","null"
"image-button-response","85","260649","0.0-13.0-2.8","19","Low_HMMActual","","","","","","null","","","","Images/BlackBeadChoiceCorrect.png","","null"
"image-button-response","86","261327","0.0-13.0-0.9","19","Low_HMMActual","","","","","","676.4000000953674","","","","Images/NewTrialBC.png","","0"
"image-button-response","87","261638","0.0-13.0-1.9","19","Low_HMMActual","","","","","","null","","","","Images/BlackBeadChoice.png","","null"
"image-button-response","88","262144","0.0-13.0-2.9","19","Low_HMMActual","","","","","","null","","","","Images/BlackBeadChoiceCorrect.png","","null"
"image-button-response","89","262593","0.0-13.0-0.10","19","Low_HMMActual","","","","","","447","","","","Images/NewTrialBC.png","","0"
"image-button-response","90","262900","0.0-13.0-1.10","19","Low_HMMActual","","","","","","null","","","","Images/BlackBeadChoice.png","","null"
"image-button-response","91","263408","0.0-13.0-2.10","19","Low_HMMActual","","","","","","null","","","","Images/BlackBeadChoiceWrong.png","","null"
"image-button-response","92","265641","0.0-13.0-0.11","19","Low_HMMActual","","","","","","2231.2000000476837","","","","Images/NewTrialWC.png","","1"
"image-button-response","93","265953","0.0-13.0-1.11","19","Low_HMMActual","","","","","","null","","","","Images/BlackBeadChoice.png","","null"
"image-button-response","94","266458","0.0-13.0-2.11","19","Low_HMMActual","","","","","","null","","","","Images/BlackBeadChoiceCorrect.png","","null"
"image-button-response","95","267410","0.0-13.0-0.12","19","Low_HMMActual","","","","","","951.1000000238419","","","","Images/NewTrialBC.png","","0"
"image-button-response","96","267725","0.0-13.0-1.12","19","Low_HMMActual","","","","","","null","","","","Images/BlackBeadChoice.png","","null"
"image-button-response","97","268242","0.0-13.0-2.12","19","Low_HMMActual","","","","","","null","","","","Images/BlackBeadChoiceWrong.png","","null"
"image-button-response","98","269751","0.0-13.0-0.13","19","Low_HMMActual","","","","","","1507.7999999523163","","","","Images/NewTrialWC.png","","1"
"image-button-response","99","270067","0.0-13.0-1.13","19","Low_HMMActual","","","","","","null","","","","Images/BlackBeadChoice.png","","null"
"image-button-response","100","270569","0.0-13.0-2.13","19","Low_HMMActual","","","","","","null","","","","Images/BlackBeadChoiceWrong.png","","null"
"image-button-response","101","271273","0.0-13.0-0.14","19","Low_HMMActual","","","","","","701.7999999523163","","","","Images/NewTrialWC.png","","2"
"image-button-response","102","271580","0.0-13.0-1.14","19","Low_HMMActual","","","","","","null","","","","Images/WhiteBeadChoice.png","","null"
"image-button-response","103","272082","0.0-13.0-2.14","19","Low_HMMActual","","","","","","null","","","","Images/WhiteBeadChoiceCorrect.png","","null"
"image-button-response","104","272399","0.0-13.0-0.15","19","Low_HMMActual","","","","","","314.6999999284744","","","","Images/NewTrialWC.png","","2"
"image-button-response","105","272708","0.0-13.0-1.15","19","Low_HMMActual","","","","","","null","","","","Images/WhiteBeadChoice.png","","null"
"image-button-response","106","273224","0.0-13.0-2.15","19","Low_HMMActual","","","","","","null","","","","Images/WhiteBeadChoiceCorrect.png","","null"
"image-button-response","107","273777","0.0-13.0-0.16","19","Low_HMMActual","","","","","","550.9000000953674","","","","Images/NewTrialWC.png","","2"
"image-button-response","108","274079","0.0-13.0-1.16","19","Low_HMMActual","","","","","","null","","","","Images/WhiteBeadChoice.png","","null"
"image-button-response","109","274580","0.0-13.0-2.16","19","Low_HMMActual","","","","","","null","","","","Images/WhiteBeadChoiceWrong.png","","null"
"image-button-response","110","276323","0.0-13.0-0.17","19","Low_HMMActual","","","","","","1741.6999999284744","","","","Images/NewTrialBC.png","","3"
"image-button-response","111","276632","0.0-13.0-1.17","19","Low_HMMActual","","","","","","null","","","","Images/WhiteBeadChoice.png","","null"
"image-button-response","112","277135","0.0-13.0-2.17","19","Low_HMMActual","","","","","","null","","","","Images/WhiteBeadChoiceWrong.png","","null"
"image-button-response","113","278002","0.0-13.0-0.18","19","Low_HMMActual","","","","","","866.1000000238419","","","","Images/NewTrialBC.png","","0"
"image-button-response","114","278304","0.0-13.0-1.18","19","Low_HMMActual","","","","","","null","","","","Images/BlackBeadChoice.png","","null"
"image-button-response","115","278809","0.0-13.0-2.18","19","Low_HMMActual","","","","","","null","","","","Images/BlackBeadChoiceCorrect.png","","null"
"image-button-response","116","279009","0.0-13.0-0.19","19","Low_HMMActual","","","","","","193.10000002384186","","","","Images/NewTrialBC.png","","0"
"image-button-response","117","279324","0.0-13.0-1.19","19","Low_HMMActual","","","","","","null","","","","Images/BlackBeadChoice.png","","null"
"image-button-response","118","279840","0.0-13.0-2.19","19","Low_HMMActual","","","","","","null","","","","Images/BlackBeadChoiceCorrect.png","","null"
"image-button-response","119","280265","0.0-13.0-0.20","19","Low_HMMActual","","","","","","423.3000000715256","","","","Images/NewTrialBC.png","","0"
"image-button-response","120","280575","0.0-13.0-1.20","19","Low_HMMActual","","","","","","null","","","","Images/BlackBeadChoice.png","","null"
"image-button-response","121","281091","0.0-13.0-2.20","19","Low_HMMActual","","","","","","null","","","","Images/BlackBeadChoiceCorrect.png","","null"
"image-button-response","122","281757","0.0-13.0-0.21","19","Low_HMMActual","","","","","","664.2999999523163","","","","Images/NewTrialBC.png","","0"
"image-button-response","123","282064","0.0-13.0-1.21","19","Low_HMMActual","","","","","","null","","","","Images/BlackBeadChoice.png","","null"
"image-button-response","124","282570","0.0-13.0-2.21","19","Low_HMMActual","","","","","","null","","","","Images/BlackBeadChoiceWrong.png","","null"
"image-button-response","125","283663","0.0-13.0-0.22","19","Low_HMMActual","","","","","","1091","","","","Images/NewTrialWC.png","","1"
"image-button-response","126","283965","0.0-13.0-1.22","19","Low_HMMActual","","","","","","null","","","","Images/BlackBeadChoice.png","","null"
"image-button-response","127","284477","0.0-13.0-2.22","19","Low_HMMActual","","","","","","null","","","","Images/BlackBeadChoiceCorrect.png","","null"
"image-button-response","128","285136","0.0-13.0-0.23","19","Low_HMMActual","","","","","","657.6000000238419","","","","Images/NewTrialBC.png","","0"
"image-button-response","129","285440","0.0-13.0-1.23","19","Low_HMMActual","","","","","","null","","","","Images/BlackBeadChoice.png","","null"
"image-button-response","130","285947","0.0-13.0-2.23","19","Low_HMMActual","","","","","","null","","","","Images/BlackBeadChoiceWrong.png","","null"
"image-button-response","131","287223","0.0-13.0-0.24","19","Low_HMMActual","","","","","","1274.2999999523163","","","","Images/NewTrialWC.png","","1"
"image-button-response","132","287530","0.0-13.0-1.24","19","Low_HMMActual","","","","","","null","","","","Images/BlackBeadChoice.png","","null"
"image-button-response","133","288033","0.0-13.0-2.24","19","Low_HMMActual","","","","","","null","","","","Images/BlackBeadChoiceCorrect.png","","null"
"image-button-response","134","288651","0.0-13.0-0.25","19","Low_HMMActual","","","","","","610.6000000238419","","","","Images/NewTrialBC.png","","0"
"image-button-response","135","288953","0.0-13.0-1.25","19","Low_HMMActual","","","","","","null","","","","Images/BlackBeadChoice.png","","null"
"image-button-response","136","289468","0.0-13.0-2.25","19","Low_HMMActual","","","","","","null","","","","Images/BlackBeadChoiceWrong.png","","null"
"image-button-response","137","291339","0.0-13.0-0.26","19","Low_HMMActual","","","","","","1869.1000000238419","","","","Images/NewTrialWC.png","","1"
"image-button-response","138","291652","0.0-13.0-1.26","19","Low_HMMActual","","","","","","null","","","","Images/BlackBeadChoice.png","","null"
"image-button-response","139","292165","0.0-13.0-2.26","19","Low_HMMActual","","","","","","null","","","","Images/BlackBeadChoiceCorrect.png","","null"
"image-button-response","140","294585","0.0-13.0-0.27","19","Low_HMMActual","","","","","","2418.6999999284744","","","","Images/NewTrialBC.png","","1"
"image-button-response","141","294889","0.0-13.0-1.27","19","Low_HMMActual","","","","","","null","","","","Images/BlackBeadChoice.png","","null"
"image-button-response","142","295396","0.0-13.0-2.27","19","Low_HMMActual","","","","","","null","","","","Images/BlackBeadChoiceCorrect.png","","null"
"image-button-response","143","296039","0.0-13.0-0.28","19","Low_HMMActual","","","","","","641.3999999761581","","","","Images/NewTrialBC.png","","0"
"image-button-response","144","296342","0.0-13.0-1.28","19","Low_HMMActual","","","","","","null","","","","Images/BlackBeadChoice.png","","null"
"image-button-response","145","296859","0.0-13.0-2.28","19","Low_HMMActual","","","","","","null","","","","Images/BlackBeadChoiceWrong.png","","null"
"image-button-response","146","299091","0.0-13.0-0.29","19","Low_HMMActual","","","","","","2230.899999976158","","","","Images/NewTrialWC.png","","1"
"image-button-response","147","299403","0.0-13.0-1.29","19","Low_HMMActual","","","","","","null","","","","Images/BlackBeadChoice.png","","null"
"image-button-response","148","299917","0.0-13.0-2.29","19","Low_HMMActual","","","","","","null","","","","Images/BlackBeadChoiceCorrect.png","","null"
"image-button-response","149","301271","0.0-13.0-0.30","19","Low_HMMActual","","","","","","1351.7000000476837","","","","Images/NewTrialBC.png","","0"
"image-button-response","150","301575","0.0-13.0-1.30","19","Low_HMMActual","","","","","","null","","","","Images/BlackBeadChoice.png","","null"
"image-button-response","151","302079","0.0-13.0-2.30","19","Low_HMMActual","","","","","","null","","","","Images/BlackBeadChoiceWrong.png","","null"
"image-button-response","152","304676","0.0-13.0-0.31","19","Low_HMMActual","","","","","","2590","","","","Images/NewTrialWC.png","","1"
"image-button-response","153","304986","0.0-13.0-1.31","19","Low_HMMActual","","","","","","null","","","","Images/BlackBeadChoice.png","","null"
"image-button-response","154","305502","0.0-13.0-2.31","19","Low_HMMActual","","","","","","null","","","","Images/BlackBeadChoiceWrong.png","","null"
"image-button-response","155","307060","0.0-13.0-0.32","19","Low_HMMActual","","","","","","1556.5","","","","Images/NewTrialWC.png","","2"
"image-button-response","156","307362","0.0-13.0-1.32","19","Low_HMMActual","","","","","","null","","","","Images/WhiteBeadChoice.png","","null"
"image-button-response","157","307873","0.0-13.0-2.32","19","Low_HMMActual","","","","","","null","","","","Images/WhiteBeadChoiceCorrect.png","","null"
"image-button-response","158","309533","0.0-13.0-0.33","19","Low_HMMActual","","","","","","1657.8999999761581","","","","Images/NewTrialWC.png","","2"
"image-button-response","159","309838","0.0-13.0-1.33","19","Low_HMMActual","","","","","","null","","","","Images/WhiteBeadChoice.png","","null"
"image-button-response","160","310341","0.0-13.0-2.33","19","Low_HMMActual","","","","","","null","","","","Images/WhiteBeadChoiceCorrect.png","","null"
"image-button-response","161","310859","0.0-13.0-0.34","19","Low_HMMActual","","","","","","515.5999999046326","","","","Images/NewTrialWC.png","","2"
"image-button-response","162","311161","0.0-13.0-1.34","19","Low_HMMActual","","","","","","null","","","","Images/WhiteBeadChoice.png","","null"
"image-button-response","163","311666","0.0-13.0-2.34","19","Low_HMMActual","","","","","","null","","","","Images/WhiteBeadChoiceWrong.png","","null"
"image-button-response","164","312837","0.0-13.0-0.35","19","Low_HMMActual","","","","","","1169.1999999284744","","","","Images/NewTrialBC.png","","3"
"image-button-response","165","313144","0.0-13.0-1.35","19","Low_HMMActual","","","","","","null","","","","Images/WhiteBeadChoice.png","","null"
"image-button-response","166","313646","0.0-13.0-2.35","19","Low_HMMActual","","","","","","null","","","","Images/WhiteBeadChoiceCorrect.png","","null"
"image-button-response","167","314477","0.0-13.0-0.36","19","Low_HMMActual","","","","","","828.7000000476837","","","","Images/NewTrialWC.png","","2"
"image-button-response","168","314788","0.0-13.0-1.36","19","Low_HMMActual","","","","","","null","","","","Images/WhiteBeadChoice.png","","null"
"image-button-response","169","315291","0.0-13.0-2.36","19","Low_HMMActual","","","","","","null","","","","Images/WhiteBeadChoiceWrong.png","","null"
"image-button-response","170","316169","0.0-13.0-0.37","19","Low_HMMActual","","","","","","876","","","","Images/NewTrialBC.png","","3"
"image-button-response","171","316470","0.0-13.0-1.37","19","Low_HMMActual","","","","","","null","","","","Images/WhiteBeadChoice.png","","null"
"image-button-response","172","316984","0.0-13.0-2.37","19","Low_HMMActual","","","","","","null","","","","Images/WhiteBeadChoiceWrong.png","","null"
"image-button-response","173","318253","0.0-13.0-0.38","19","Low_HMMActual","","","","","","1267.5","","","","Images/NewTrialBC.png","","0"
"image-button-response","174","318555","0.0-13.0-1.38","19","Low_HMMActual","","","","","","null","","","","Images/BlackBeadChoice.png","","null"
"image-button-response","175","319062","0.0-13.0-2.38","19","Low_HMMActual","","","","","","null","","","","Images/BlackBeadChoiceCorrect.png","","null"
"image-button-response","176","319491","0.0-13.0-0.39","19","Low_HMMActual","","","","","","427.2999999523163","","","","Images/NewTrialBC.png","","0"
"image-button-response","177","319805","0.0-13.0-1.39","19","Low_HMMActual","","","","","","null","","","","Images/BlackBeadChoice.png","","null"
"image-button-response","178","320310","0.0-13.0-2.39","19","Low_HMMActual","","","","","","null","","","","Images/BlackBeadChoiceWrong.png","","null"
"image-button-response","179","321043","0.0-13.0-0.40","19","Low_HMMActual","","","","","","731.0999999046326","","","","Images/NewTrialWC.png","","1"
"image-button-response","180","321344","0.0-13.0-1.40","19","Low_HMMActual","","","","","","null","","","","Images/BlackBeadChoice.png","","null"
"image-button-response","181","321849","0.0-13.0-2.40","19","Low_HMMActual","","","","","","null","","","","Images/BlackBeadChoiceWrong.png","","null"
"image-button-response","182","322755","0.0-13.0-0.41","19","Low_HMMActual","","","","","","904.3000000715256","","","","Images/NewTrialWC.png","","2"
"image-button-response","183","323065","0.0-13.0-1.41","19","Low_HMMActual","","","","","","null","","","","Images/WhiteBeadChoice.png","","null"
"image-button-response","184","323572","0.0-13.0-2.41","19","Low_HMMActual","","","","","","null","","","","Images/WhiteBeadChoiceCorrect.png","","null"
"image-button-response","185","323767","0.0-13.0-0.42","19","Low_HMMActual","","","","","","192.89999997615814","","","","Images/NewTrialWC.png","","2"
"image-button-response","186","324072","0.0-13.0-1.42","19","Low_HMMActual","","","","","","null","","","","Images/WhiteBeadChoice.png","","null"
"image-button-response","187","324589","0.0-13.0-2.42","19","Low_HMMActual","","","","","","null","","","","Images/WhiteBeadChoiceWrong.png","","null"
"image-button-response","188","330837","0.0-13.0-0.43","19","Low_HMMActual","","","","","","6246","","","","Images/NewTrialBC.png","","3"
"image-button-response","189","331147","0.0-13.0-1.43","19","Low_HMMActual","","","","","","null","","","","Images/WhiteBeadChoice.png","","null"
"image-button-response","190","331651","0.0-13.0-2.43","19","Low_HMMActual","","","","","","null","","","","Images/WhiteBeadChoiceCorrect.png","","null"
"image-button-response","191","332271","0.0-13.0-0.44","19","Low_HMMActual","","","","","","618.2999999523163","","","","Images/NewTrialWC.png","","2"
"image-button-response","192","332576","0.0-13.0-1.44","19","Low_HMMActual","","","","","","null","","","","Images/WhiteBeadChoice.png","","null"
"image-button-response","193","333078","0.0-13.0-2.44","19","Low_HMMActual","","","","","","null","","","","Images/WhiteBeadChoiceWrong.png","","null"
"image-button-response","194","334992","0.0-13.0-0.45","19","Low_HMMActual","","","","","","1912.2000000476837","","","","Images/NewTrialBC.png","","3"
"image-button-response","195","335305","0.0-13.0-1.45","19","Low_HMMActual","","","","","","null","","","","Images/WhiteBeadChoice.png","","null"
"image-button-response","196","335808","0.0-13.0-2.45","19","Low_HMMActual","","","","","","null","","","","Images/WhiteBeadChoiceWrong.png","","null"
"image-button-response","197","336507","0.0-13.0-0.46","19","Low_HMMActual","","","","","","697.0999999046326","","","","Images/NewTrialBC.png","","0"
"image-button-response","198","336823","0.0-13.0-1.46","19","Low_HMMActual","","","","","","null","","","","Images/BlackBeadChoice.png","","null"
"image-button-response","199","337330","0.0-13.0-2.46","19","Low_HMMActual","","","","","","null","","","","Images/BlackBeadChoiceWrong.png","","null"
"image-button-response","200","341487","0.0-13.0-0.47","19","Low_HMMActual","","","","","","4156","","","","Images/NewTrialWC.png","","1"
"image-button-response","201","341789","0.0-13.0-1.47","19","Low_HMMActual","","","","","","null","","","","Images/BlackBeadChoice.png","","null"
"image-button-response","202","342292","0.0-13.0-2.47","19","Low_HMMActual","","","","","","null","","","","Images/BlackBeadChoiceWrong.png","","null"
"image-button-response","203","342655","0.0-13.0-0.48","19","Low_HMMActual","","","","","","361.10000002384186","","","","Images/NewTrialWC.png","","2"
"image-button-response","204","342962","0.0-13.0-1.48","19","Low_HMMActual","","","","","","null","","","","Images/WhiteBeadChoice.png","","null"
"image-button-response","205","343472","0.0-13.0-2.48","19","Low_HMMActual","","","","","","null","","","","Images/WhiteBeadChoiceCorrect.png","","null"
"image-button-response","206","343653","0.0-13.0-0.49","19","Low_HMMActual","","","","","","179.09999990463257","","","","Images/NewTrialWC.png","","2"
"image-button-response","207","343975","0.0-13.0-1.49","19","Low_HMMActual","","","","","","null","","","","Images/WhiteBeadChoice.png","","null"
"image-button-response","208","344478","0.0-13.0-2.49","19","Low_HMMActual","","","","","","null","","","","Images/WhiteBeadChoiceCorrect.png","","null"
"image-button-response","209","346155","0.0-13.0-0.50","19","Low_HMMActual","","","","","","1674.9000000953674","","","","Images/NewTrialWC.png","","2"
"image-button-response","210","346467","0.0-13.0-1.50","19","Low_HMMActual","","","","","","null","","","","Images/WhiteBeadChoice.png","","null"
"image-button-response","211","346973","0.0-13.0-2.50","19","Low_HMMActual","","","","","","null","","","","Images/WhiteBeadChoiceWrong.png","","null"
"image-button-response","212","348660","0.0-13.0-0.51","19","Low_HMMActual","","","","","","1685.6000000238419","","","","Images/NewTrialBC.png","","3"
"image-button-response","213","348968","0.0-13.0-1.51","19","Low_HMMActual","","","","","","null","","","","Images/WhiteBeadChoice.png","","null"
"image-button-response","214","349471","0.0-13.0-2.51","19","Low_HMMActual","","","","","","null","","","","Images/WhiteBeadChoiceWrong.png","","null"
"image-button-response","215","351375","0.0-13.0-0.52","19","Low_HMMActual","","","","","","1902.3000000715256","","","","Images/NewTrialBC.png","","1"
"image-button-response","216","351683","0.0-13.0-1.52","19","Low_HMMActual","","","","","","null","","","","Images/BlackBeadChoice.png","","null"
"image-button-response","217","352185","0.0-13.0-2.52","19","Low_HMMActual","","","","","","null","","","","Images/BlackBeadChoiceCorrect.png","","null"
"image-button-response","218","352787","0.0-13.0-0.53","19","Low_HMMActual","","","","","","599.5","","","","Images/NewTrialBC.png","","0"
"image-button-response","219","353091","0.0-13.0-1.53","19","Low_HMMActual","","","","","","null","","","","Images/BlackBeadChoice.png","","null"
"image-button-response","220","353594","0.0-13.0-2.53","19","Low_HMMActual","","","","","","null","","","","Images/BlackBeadChoiceWrong.png","","null"
"image-button-response","221","356247","0.0-13.0-0.54","19","Low_HMMActual","","","","","","2650.2000000476837","","","","Images/NewTrialWC.png","","1"
"image-button-response","222","356551","0.0-13.0-1.54","19","Low_HMMActual","","","","","","null","","","","Images/BlackBeadChoice.png","","null"
"image-button-response","223","357059","0.0-13.0-2.54","19","Low_HMMActual","","","","","","null","","","","Images/BlackBeadChoiceCorrect.png","","null"
"image-button-response","224","358141","0.0-13.0-0.55","19","Low_HMMActual","","","","","","1080.0999999046326","","","","Images/NewTrialBC.png","","0"
"image-button-response","225","358443","0.0-13.0-1.55","19","Low_HMMActual","","","","","","null","","","","Images/BlackBeadChoice.png","","null"
"image-button-response","226","358957","0.0-13.0-2.55","19","Low_HMMActual","","","","","","null","","","","Images/BlackBeadChoiceCorrect.png","","null"
"image-button-response","227","359319","0.0-13.0-0.56","19","Low_HMMActual","","","","","","360.10000002384186","","","","Images/NewTrialBC.png","","0"
"image-button-response","228","359630","0.0-13.0-1.56","19","Low_HMMActual","","","","","","null","","","","Images/BlackBeadChoice.png","","null"
"image-button-response","229","360146","0.0-13.0-2.56","19","Low_HMMActual","","","","","","null","","","","Images/BlackBeadChoiceCorrect.png","","null"
"image-button-response","230","360635","0.0-13.0-0.57","19","Low_HMMActual","","","","","","487.10000002384186","","","","Images/NewTrialBC.png","","0"
"image-button-response","231","360951","0.0-13.0-1.57","19","Low_HMMActual","","","","","","null","","","","Images/BlackBeadChoice.png","","null"
"image-button-response","232","361453","0.0-13.0-2.57","19","Low_HMMActual","","","","","","null","","","","Images/BlackBeadChoiceCorrect.png","","null"
"image-button-response","233","361985","0.0-13.0-0.58","19","Low_HMMActual","","","","","","529.7000000476837","","","","Images/NewTrialBC.png","","0"
"image-button-response","234","362299","0.0-13.0-1.58","19","Low_HMMActual","","","","","","null","","","","Images/BlackBeadChoice.png","","null"
"image-button-response","235","362802","0.0-13.0-2.58","19","Low_HMMActual","","","","","","null","","","","Images/BlackBeadChoiceCorrect.png","","null"
"image-button-response","236","363301","0.0-13.0-0.59","19","Low_HMMActual","","","","","","497.40000009536743","","","","Images/NewTrialBC.png","","0"
"image-button-response","237","363606","0.0-13.0-1.59","19","Low_HMMActual","","","","","","null","","","","Images/BlackBeadChoice.png","","null"
"image-button-response","238","364109","0.0-13.0-2.59","19","Low_HMMActual","","","","","","null","","","","Images/BlackBeadChoiceWrong.png","","null"
"image-button-response","239","370208","0.0-13.0-0.60","19","Low_HMMActual","","","","","","6098.100000023842","","","","Images/NewTrialWC.png","","1"
"image-button-response","240","370512","0.0-13.0-1.60","19","Low_HMMActual","","","","","","null","","","","Images/BlackBeadChoice.png","","null"
"image-button-response","241","371014","0.0-13.0-2.60","19","Low_HMMActual","","","","","","null","","","","Images/BlackBeadChoiceWrong.png","","null"
"image-button-response","242","372731","0.0-13.0-0.61","19","Low_HMMActual","","","","","","1714.6999999284744","","","","Images/NewTrialWC.png","","3"
"image-button-response","243","373032","0.0-13.0-1.61","19","Low_HMMActual","","","","","","null","","","","Images/WhiteBeadChoice.png","","null"
"image-button-response","244","373547","0.0-13.0-2.61","19","Low_HMMActual","","","","","","null","","","","Images/WhiteBeadChoiceCorrect.png","","null"
"image-button-response","245","374068","0.0-13.0-0.62","19","Low_HMMActual","","","","","","518.8999999761581","","","","Images/NewTrialWC.png","","2"
"image-button-response","246","374383","0.0-13.0-1.62","19","Low_HMMActual","","","","","","null","","","","Images/WhiteBeadChoice.png","","null"
"image-button-response","247","374893","0.0-13.0-2.62","19","Low_HMMActual","","","","","","null","","","","Images/WhiteBeadChoiceWrong.png","","null"
"image-button-response","248","375557","0.0-13.0-0.63","19","Low_HMMActual","","","","","","661.8000000715256","","","","Images/NewTrialBC.png","","3"
"image-button-response","249","375867","0.0-13.0-1.63","19","Low_HMMActual","","","","","","null","","","","Images/WhiteBeadChoice.png","","null"
"image-button-response","250","376371","0.0-13.0-2.63","19","Low_HMMActual","","","","","","null","","","","Images/WhiteBeadChoiceWrong.png","","null"
"image-button-response","251","377205","0.0-13.0-0.64","19","Low_HMMActual","","","","","","831.6000000238419","","","","Images/NewTrialBC.png","","1"
"image-button-response","252","377506","0.0-13.0-1.64","19","Low_HMMActual","","","","","","null","","","","Images/BlackBeadChoice.png","","null"
"image-button-response","253","378009","0.0-13.0-2.64","19","Low_HMMActual","","","","","","null","","","","Images/BlackBeadChoiceWrong.png","","null"
"image-button-response","254","379245","0.0-13.0-0.65","19","Low_HMMActual","","","","","","1234.1000000238419","","","","Images/NewTrialWC.png","","3"
"image-button-response","255","379547","0.0-13.0-1.65","19","Low_HMMActual","","","","","","null","","","","Images/WhiteBeadChoice.png","","null"
"image-button-response","256","380057","0.0-13.0-2.65","19","Low_HMMActual","","","","","","null","","","","Images/WhiteBeadChoiceWrong.png","","null"
"image-button-response","257","382197","0.0-13.0-0.66","19","Low_HMMActual","","","","","","2138.8000000715256","","","","Images/NewTrialBC.png","","1"
"image-button-response","258","382499","0.0-13.0-1.66","19","Low_HMMActual","","","","","","null","","","","Images/BlackBeadChoice.png","","null"
"image-button-response","259","383000","0.0-13.0-2.66","19","Low_HMMActual","","","","","","null","","","","Images/BlackBeadChoiceCorrect.png","","null"
"image-button-response","260","383214","0.0-13.0-0.67","19","Low_HMMActual","","","","","","213","","","","Images/NewTrialBC.png","","0"
"image-button-response","261","383517","0.0-13.0-1.67","19","Low_HMMActual","","","","","","null","","","","Images/BlackBeadChoice.png","","null"
"image-button-response","262","384025","0.0-13.0-2.67","19","Low_HMMActual","","","","","","null","","","","Images/BlackBeadChoiceCorrect.png","","null"
"image-button-response","263","384263","0.0-13.0-0.68","19","Low_HMMActual","","","","","","236","","","","Images/NewTrialBC.png","","0"
"image-button-response","264","384570","0.0-13.0-1.68","19","Low_HMMActual","","","","","","null","","","","Images/BlackBeadChoice.png","","null"
"image-button-response","265","385074","0.0-13.0-2.68","19","Low_HMMActual","","","","","","null","","","","Images/BlackBeadChoiceWrong.png","","null"
"image-button-response","266","387005","0.0-13.0-0.69","19","Low_HMMActual","","","","","","1929.5999999046326","","","","Images/NewTrialWC.png","","1"
"image-button-response","267","387312","0.0-13.0-1.69","19","Low_HMMActual","","","","","","null","","","","Images/BlackBeadChoice.png","","null"
"image-button-response","268","387816","0.0-13.0-2.69","19","Low_HMMActual","","","","","","null","","","","Images/BlackBeadChoiceCorrect.png","","null"
"image-button-response","269","388182","0.0-13.0-0.70","19","Low_HMMActual","","","","","","358.60000002384186","","","","Images/NewTrialBC.png","","0"
"image-button-response","270","388485","0.0-13.0-1.70","19","Low_HMMActual","","","","","","null","","","","Images/BlackBeadChoice.png","","null"
"image-button-response","271","388998","0.0-13.0-2.70","19","Low_HMMActual","","","","","","null","","","","Images/BlackBeadChoiceWrong.png","","null"
"image-button-response","272","390533","0.0-13.0-0.71","19","Low_HMMActual","","","","","","1533.5","","","","Images/NewTrialWC.png","","1"
"image-button-response","273","390839","0.0-13.0-1.71","19","Low_HMMActual","","","","","","null","","","","Images/BlackBeadChoice.png","","null"
"image-button-response","274","391350","0.0-13.0-2.71","19","Low_HMMActual","","","","","","null","","","","Images/BlackBeadChoiceCorrect.png","","null"
"image-button-response","275","391794","0.0-13.0-0.72","19","Low_HMMActual","","","","","","443","","","","Images/NewTrialBC.png","","0"
"image-button-response","276","392110","0.0-13.0-1.72","19","Low_HMMActual","","","","","","null","","","","Images/BlackBeadChoice.png","","null"
"image-button-response","277","392616","0.0-13.0-2.72","19","Low_HMMActual","","","","","","458.1999999284744","","","","Images/BlackBeadChoiceCorrect.png","","0"
"image-button-response","278","393813","0.0-13.0-0.73","19","Low_HMMActual","","","","","","1193.8999999761581","","","","Images/NewTrialBC.png","","0"
"image-button-response","279","394122","0.0-13.0-1.73","19","Low_HMMActual","","","","","","null","","","","Images/BlackBeadChoice.png","","null"
"image-button-response","280","394626","0.0-13.0-2.73","19","Low_HMMActual","","","","","","null","","","","Images/BlackBeadChoiceCorrect.png","","null"
"image-button-response","281","395314","0.0-13.0-0.74","19","Low_HMMActual","","","","","","687","","","","Images/NewTrialBC.png","","0"
"image-button-response","282","395630","0.0-13.0-1.74","19","Low_HMMActual","","","","","","null","","","","Images/BlackBeadChoice.png","","null"
"image-button-response","283","396132","0.0-13.0-2.74","19","Low_HMMActual","","","","","","null","","","","Images/BlackBeadChoiceCorrect.png","","null"
"image-button-response","284","396302","0.0-13.0-0.75","19","Low_HMMActual","","","","","","168.69999992847443","","","","Images/NewTrialBC.png","","0"
"image-button-response","285","396605","0.0-13.0-1.75","19","Low_HMMActual","","","","","","null","","","","Images/BlackBeadChoice.png","","null"
"image-button-response","286","397108","0.0-13.0-2.75","19","Low_HMMActual","","","","","","null","","","","Images/BlackBeadChoiceCorrect.png","","null"
"image-button-response","287","397335","0.0-13.0-0.76","19","Low_HMMActual","","","","","","223.40000009536743","","","","Images/NewTrialBC.png","","0"
"image-button-response","288","397644","0.0-13.0-1.76","19","Low_HMMActual","","","","","","null","","","","Images/BlackBeadChoice.png","","null"
"image-button-response","289","398146","0.0-13.0-2.76","19","Low_HMMActual","","","","","","null","","","","Images/BlackBeadChoiceCorrect.png","","null"
"image-button-response","290","399260","0.0-13.0-0.77","19","Low_HMMActual","","","","","","1113","","","","Images/NewTrialBC.png","","0"
"image-button-response","291","399575","0.0-13.0-1.77","19","Low_HMMActual","","","","","","null","","","","Images/BlackBeadChoice.png","","null"
"image-button-response","292","400077","0.0-13.0-2.77","19","Low_HMMActual","","","","","","null","","","","Images/BlackBeadChoiceWrong.png","","null"
"image-button-response","293","406329","0.0-13.0-0.78","19","Low_HMMActual","","","","","","6250.700000047684","","","","Images/NewTrialWC.png","","1"
"image-button-response","294","406630","0.0-13.0-1.78","19","Low_HMMActual","","","","","","null","","","","Images/BlackBeadChoice.png","","null"
"image-button-response","295","407134","0.0-13.0-2.78","19","Low_HMMActual","","","","","","null","","","","Images/BlackBeadChoiceCorrect.png","","null"
"image-button-response","296","408389","0.0-13.0-0.79","19","Low_HMMActual","","","","","","1253.2000000476837","","","","Images/NewTrialBC.png","","0"
"image-button-response","297","408691","0.0-13.0-1.79","19","Low_HMMActual","","","","","","null","","","","Images/BlackBeadChoice.png","","null"
"image-button-response","298","409204","0.0-13.0-2.79","19","Low_HMMActual","","","","","","null","","","","Images/BlackBeadChoiceCorrect.png","","null"
"image-button-response","299","410133","0.0-13.0-0.80","19","Low_HMMActual","","","","","","927","","","","Images/NewTrialBC.png","","0"
"image-button-response","300","410445","0.0-13.0-1.80","19","Low_HMMActual","","","","","","null","","","","Images/BlackBeadChoice.png","","null"
"image-button-response","301","410952","0.0-13.0-2.80","19","Low_HMMActual","","","","","","null","","","","Images/BlackBeadChoiceWrong.png","","null"
"image-button-response","302","413639","0.0-13.0-0.81","19","Low_HMMActual","","","","","","2684.5","","","","Images/NewTrialWC.png","","1"
"image-button-response","303","413948","0.0-13.0-1.81","19","Low_HMMActual","","","","","","null","","","","Images/BlackBeadChoice.png","","null"
"image-button-response","304","414452","0.0-13.0-2.81","19","Low_HMMActual","","","","","","null","","","","Images/BlackBeadChoiceWrong.png","","null"
"image-button-response","305","415545","0.0-13.0-0.82","19","Low_HMMActual","","","","","","1085.3999999761581","","","","Images/NewTrialWC.png","","2"
"image-button-response","306","415854","0.0-13.0-1.82","19","Low_HMMActual","","","","","","null","","","","Images/WhiteBeadChoice.png","","null"
"image-button-response","307","416371","0.0-13.0-2.82","19","Low_HMMActual","","","","","","null","","","","Images/WhiteBeadChoiceWrong.png","","null"
"image-button-response","308","419813","0.0-13.0-0.83","19","Low_HMMActual","","","","","","3440.5","","","","Images/NewTrialBC.png","","3"
"image-button-response","309","420116","0.0-13.0-1.83","19","Low_HMMActual","","","","","","null","","","","Images/WhiteBeadChoice.png","","null"
"image-button-response","310","420619","0.0-13.0-2.83","19","Low_HMMActual","","","","","","null","","","","Images/WhiteBeadChoiceWrong.png","","null"
"image-button-response","311","421791","0.0-13.0-0.84","19","Low_HMMActual","","","","","","1170.2000000476837","","","","Images/NewTrialBC.png","","1"
"image-button-response","312","422099","0.0-13.0-1.84","19","Low_HMMActual","","","","","","null","","","","Images/BlackBeadChoice.png","","null"
"image-button-response","313","422608","0.0-13.0-2.84","19","Low_HMMActual","","","","","","null","","","","Images/BlackBeadChoiceCorrect.png","","null"
"image-button-response","314","422823","0.0-13.0-0.85","19","Low_HMMActual","","","","","","212.79999995231628","","","","Images/NewTrialBC.png","","0"
"image-button-response","315","423134","0.0-13.0-1.85","19","Low_HMMActual","","","","","","null","","","","Images/BlackBeadChoice.png","","null"
"image-button-response","316","423640","0.0-13.0-2.85","19","Low_HMMActual","","","","","","431.60000002384186","","","","Images/BlackBeadChoiceCorrect.png","","0"
"image-button-response","317","424668","0.0-13.0-0.86","19","Low_HMMActual","","","","","","1026.8999999761581","","","","Images/NewTrialBC.png","","0"
"image-button-response","318","424978","0.0-13.0-1.86","19","Low_HMMActual","","","","","","null","","","","Images/BlackBeadChoice.png","","null"
"image-button-response","319","425493","0.0-13.0-2.86","19","Low_HMMActual","","","","","","null","","","","Images/BlackBeadChoiceWrong.png","","null"
"image-button-response","320","427929","0.0-13.0-0.87","19","Low_HMMActual","","","","","","2434.4000000953674","","","","Images/NewTrialWC.png","","1"
"image-button-response","321","428232","0.0-13.0-1.87","19","Low_HMMActual","","","","","","null","","","","Images/BlackBeadChoice.png","","null"
"image-button-response","322","428733","0.0-13.0-2.87","19","Low_HMMActual","","","","","","null","","","","Images/BlackBeadChoiceWrong.png","","null"
"image-button-response","323","429577","0.0-13.0-0.88","19","Low_HMMActual","","","","","","841.8000000715256","","","","Images/NewTrialWC.png","","3"
"image-button-response","324","429879","0.0-13.0-1.88","19","Low_HMMActual","","","","","","null","","","","Images/WhiteBeadChoice.png","","null"
"image-button-response","325","430380","0.0-13.0-2.88","19","Low_HMMActual","","","","","","null","","","","Images/WhiteBeadChoiceCorrect.png","","null"
"image-button-response","326","430775","0.0-13.0-0.89","19","Low_HMMActual","","","","","","392.7000000476837","","","","Images/NewTrialWC.png","","2"
"image-button-response","327","431088","0.0-13.0-1.89","19","Low_HMMActual","","","","","","null","","","","Images/WhiteBeadChoice.png","","null"
"image-button-response","328","431599","0.0-13.0-2.89","19","Low_HMMActual","","","","","","null","","","","Images/WhiteBeadChoiceWrong.png","","null"
"image-button-response","329","432912","0.0-13.0-0.90","19","Low_HMMActual","","","","","","1310.9000000953674","","","","Images/NewTrialBC.png","","3"
"image-button-response","330","433228","0.0-13.0-1.90","19","Low_HMMActual","","","","","","null","","","","Images/WhiteBeadChoice.png","","null"
"image-button-response","331","433729","0.0-13.0-2.90","19","Low_HMMActual","","","","","","null","","","","Images/WhiteBeadChoiceWrong.png","","null"
"image-button-response","332","434235","0.0-13.0-0.91","19","Low_HMMActual","","","","","","504.2000000476837","","","","Images/NewTrialBC.png","","0"
"image-button-response","333","434544","0.0-13.0-1.91","19","Low_HMMActual","","","","","","null","","","","Images/BlackBeadChoice.png","","null"
"image-button-response","334","435045","0.0-13.0-2.91","19","Low_HMMActual","","","","","","null","","","","Images/BlackBeadChoiceCorrect.png","","null"
"image-button-response","335","436145","0.0-13.0-0.92","19","Low_HMMActual","","","","","","1096.3999999761581","","","","Images/NewTrialBC.png","","0"
"image-button-response","336","436454","0.0-13.0-1.92","19","Low_HMMActual","","","","","","null","","","","Images/BlackBeadChoice.png","","null"
"image-button-response","337","436964","0.0-13.0-2.92","19","Low_HMMActual","","","","","","null","","","","Images/BlackBeadChoiceWrong.png","","null"
"image-button-response","338","438289","0.0-13.0-0.93","19","Low_HMMActual","","","","","","1322.7999999523163","","","","Images/NewTrialWC.png","","1"
"image-button-response","339","438600","0.0-13.0-1.93","19","Low_HMMActual","","","","","","null","","","","Images/BlackBeadChoice.png","","null"
"image-button-response","340","439102","0.0-13.0-2.93","19","Low_HMMActual","","","","","","null","","","","Images/BlackBeadChoiceWrong.png","","null"
"image-button-response","341","439497","0.0-13.0-0.94","19","Low_HMMActual","","","","","","394","","","","Images/NewTrialWC.png","","3"
"image-button-response","342","439814","0.0-13.0-1.94","19","Low_HMMActual","","","","","","null","","","","Images/WhiteBeadChoice.png","","null"
"image-button-response","343","440316","0.0-13.0-2.94","19","Low_HMMActual","","","","","","null","","","","Images/WhiteBeadChoiceWrong.png","","null"
"image-button-response","344","443629","0.0-13.0-0.95","19","Low_HMMActual","","","","","","3310.600000023842","","","","Images/NewTrialBC.png","","1"
"image-button-response","345","443948","0.0-13.0-1.95","19","Low_HMMActual","","","","","","null","","","","Images/BlackBeadChoice.png","","null"
"image-button-response","346","444453","0.0-13.0-2.95","19","Low_HMMActual","","","","","","null","","","","Images/BlackBeadChoiceCorrect.png","","null"
"image-button-response","347","445459","0.0-13.0-0.96","19","Low_HMMActual","","","","","","1004.2999999523163","","","","Images/NewTrialBC.png","","0"
"image-button-response","348","445762","0.0-13.0-1.96","19","Low_HMMActual","","","","","","null","","","","Images/BlackBeadChoice.png","","null"
"image-button-response","349","446270","0.0-13.0-2.96","19","Low_HMMActual","","","","","","null","","","","Images/BlackBeadChoiceCorrect.png","","null"
"image-button-response","350","447683","0.0-13.0-0.97","19","Low_HMMActual","","","","","","1411","","","","Images/NewTrialBC.png","","0"
"image-button-response","351","447990","0.0-13.0-1.97","19","Low_HMMActual","","","","","","null","","","","Images/BlackBeadChoice.png","","null"
"image-button-response","352","448492","0.0-13.0-2.97","19","Low_HMMActual","","","","","","483.39999997615814","","","","Images/BlackBeadChoiceCorrect.png","","0"
"image-button-response","353","449011","0.0-13.0-0.98","19","Low_HMMActual","","","","","","517.5","","","","Images/NewTrialBC.png","","0"
"image-button-response","354","449325","0.0-13.0-1.98","19","Low_HMMActual","","","","","","null","","","","Images/BlackBeadChoice.png","","null"
"image-button-response","355","449830","0.0-13.0-2.98","19","Low_HMMActual","","","","","","null","","","","Images/BlackBeadChoiceWrong.png","","null"
"image-button-response","356","456725","0.0-13.0-0.99","19","Low_HMMActual","","","","","","6893.600000023842","","","","Images/NewTrialWC.png","","3"
"image-button-response","357","457035","0.0-13.0-1.99","19","Low_HMMActual","","","","","","null","","","","Images/WhiteBeadChoice.png","","null"
"image-button-response","358","457538","0.0-13.0-2.99","19","Low_HMMActual","","","","","","null","","","","Images/WhiteBeadChoiceWrong.png","","null"
"image-button-response","359","459297","0.0-13.0-0.100","19","Low_HMMActual","","","","","","1756.8000000715256","","","","Images/NewTrialBC.png","","1"
"image-button-response","360","459599","0.0-13.0-1.100","19","Low_HMMActual","","","","","","null","","","","Images/BlackBeadChoice.png","","null"
"image-button-response","361","460102","0.0-13.0-2.100","19","Low_HMMActual","","","","","","null","","","","Images/BlackBeadChoiceWrong.png","","null"
"image-button-response","362","461262","0.0-13.0-0.101","19","Low_HMMActual","","","","","","1157.6000000238419","","","","Images/NewTrialWC.png","","1"
"image-button-response","363","461577","0.0-13.0-1.101","19","Low_HMMActual","","","","","","null","","","","Images/BlackBeadChoice.png","","null"
"image-button-response","364","462084","0.0-13.0-2.101","19","Low_HMMActual","","","","","","null","","","","Images/BlackBeadChoiceWrong.png","","null"
"image-button-response","365","462980","0.0-13.0-0.102","19","Low_HMMActual","","","","","","893.3999999761581","","","","Images/NewTrialWC.png","","3"
"image-button-response","366","463282","0.0-13.0-1.102","19","Low_HMMActual","","","","","","null","","","","Images/WhiteBeadChoice.png","","null"
"image-button-response","367","463784","0.0-13.0-2.102","19","Low_HMMActual","","","","","","null","","","","Images/WhiteBeadChoiceCorrect.png","","null"
"image-button-response","368","463965","0.0-13.0-0.103","19","Low_HMMActual","","","","","","179.60000002384186","","","","Images/NewTrialWC.png","","2"
"image-button-response","369","464276","0.0-13.0-1.103","19","Low_HMMActual","","","","","","null","","","","Images/WhiteBeadChoice.png","","null"
"image-button-response","370","464787","0.0-13.0-2.103","19","Low_HMMActual","","","","","","null","","","","Images/WhiteBeadChoiceWrong.png","","null"
"image-button-response","371","470787","0.0-13.0-0.104","19","Low_HMMActual","","","","","","5996.800000071526","","","","Images/NewTrialBC.png","","3"
"image-button-response","372","471096","0.0-13.0-1.104","19","Low_HMMActual","","","","","","null","","","","Images/WhiteBeadChoice.png","","null"
"image-button-response","373","471600","0.0-13.0-2.104","19","Low_HMMActual","","","","","","null","","","","Images/WhiteBeadChoiceCorrect.png","","null"
"image-button-response","374","472845","0.0-13.0-0.105","19","Low_HMMActual","","","","","","1243.2999999523163","","","","Images/NewTrialWC.png","","2"
"image-button-response","375","473158","0.0-13.0-1.105","19","Low_HMMActual","","","","","","null","","","","Images/WhiteBeadChoice.png","","null"
"image-button-response","376","473663","0.0-13.0-2.105","19","Low_HMMActual","","","","","","null","","","","Images/WhiteBeadChoiceCorrect.png","","null"
"image-button-response","377","474081","0.0-13.0-0.106","19","Low_HMMActual","","","","","","416","","","","Images/NewTrialWC.png","","2"
"image-button-response","378","474386","0.0-13.0-1.106","19","Low_HMMActual","","","","","","null","","","","Images/WhiteBeadChoice.png","","null"
"image-button-response","379","474902","0.0-13.0-2.106","19","Low_HMMActual","","","","","","null","","","","Images/WhiteBeadChoiceCorrect.png","","null"
"image-button-response","380","475325","0.0-13.0-0.107","19","Low_HMMActual","","","","","","421","","","","Images/NewTrialWC.png","","2"
"image-button-response","381","475639","0.0-13.0-1.107","19","Low_HMMActual","","","","","","null","","","","Images/WhiteBeadChoice.png","","null"
"image-button-response","382","476157","0.0-13.0-2.107","19","Low_HMMActual","","","","","","null","","","","Images/WhiteBeadChoiceCorrect.png","","null"
"image-button-response","383","476745","0.0-13.0-0.108","19","Low_HMMActual","","","","","","586.3999999761581","","","","Images/NewTrialWC.png","","2"
"image-button-response","384","477054","0.0-13.0-1.108","19","Low_HMMActual","","","","","","null","","","","Images/WhiteBeadChoice.png","","null"
"image-button-response","385","477568","0.0-13.0-2.108","19","Low_HMMActual","","","","","","null","","","","Images/WhiteBeadChoiceCorrect.png","","null"
"image-button-response","386","478083","0.0-13.0-0.109","19","Low_HMMActual","","","","","","513.4000000953674","","","","Images/NewTrialWC.png","","2"
"image-button-response","387","478386","0.0-13.0-1.109","19","Low_HMMActual","","","","","","null","","","","Images/WhiteBeadChoice.png","","null"
"image-button-response","388","478888","0.0-13.0-2.109","19","Low_HMMActual","","","","","","null","","","","Images/WhiteBeadChoiceCorrect.png","","null"
"image-button-response","389","479394","0.0-13.0-0.110","19","Low_HMMActual","","","","","","504.7000000476837","","","","Images/NewTrialWC.png","","2"
"image-button-response","390","479702","0.0-13.0-1.110","19","Low_HMMActual","","","","","","null","","","","Images/WhiteBeadChoice.png","","null"
"image-button-response","391","480207","0.0-13.0-2.110","19","Low_HMMActual","","","","","","null","","","","Images/WhiteBeadChoiceWrong.png","","null"
"image-button-response","392","484279","0.0-13.0-0.111","19","Low_HMMActual","","","","","","4071.100000023842","","","","Images/NewTrialBC.png","","3"
"image-button-response","393","484581","0.0-13.0-1.111","19","Low_HMMActual","","","","","","null","","","","Images/WhiteBeadChoice.png","","null"
"image-button-response","394","485083","0.0-13.0-2.111","19","Low_HMMActual","","","","","","null","","","","Images/WhiteBeadChoiceWrong.png","","null"
"image-button-response","395","486964","0.0-13.0-0.112","19","Low_HMMActual","","","","","","1879.3999999761581","","","","Images/NewTrialBC.png","","1"
"image-button-response","396","487267","0.0-13.0-1.112","19","Low_HMMActual","","","","","","null","","","","Images/BlackBeadChoice.png","","null"
"image-button-response","397","487768","0.0-13.0-2.112","19","Low_HMMActual","","","","","","null","","","","Images/BlackBeadChoiceWrong.png","","null"
"image-button-response","398","488284","0.0-13.0-0.113","19","Low_HMMActual","","","","","","512.7999999523163","","","","Images/NewTrialWC.png","","3"
"image-button-response","399","488596","0.0-13.0-1.113","19","Low_HMMActual","","","","","","null","","","","Images/WhiteBeadChoice.png","","null"
"image-button-response","400","489112","0.0-13.0-2.113","19","Low_HMMActual","","","","","","null","","","","Images/WhiteBeadChoiceCorrect.png","","null"
"image-button-response","401","489681","0.0-13.0-0.114","19","Low_HMMActual","","","","","","566.7000000476837","","","","Images/NewTrialWC.png","","2"
"image-button-response","402","489995","0.0-13.0-1.114","19","Low_HMMActual","","","","","","null","","","","Images/WhiteBeadChoice.png","","null"
"image-button-response","403","490500","0.0-13.0-2.114","19","Low_HMMActual","","","","","","null","","","","Images/WhiteBeadChoiceCorrect.png","","null"
"image-button-response","404","491495","0.0-13.0-0.115","19","Low_HMMActual","","","","","","992.8999999761581","","","","Images/NewTrialWC.png","","2"
"image-button-response","405","491803","0.0-13.0-1.115","19","Low_HMMActual","","","","","","null","","","","Images/WhiteBeadChoice.png","","null"
"image-button-response","406","492305","0.0-13.0-2.115","19","Low_HMMActual","","","","","","null","","","","Images/WhiteBeadChoiceCorrect.png","","null"
"image-button-response","407","492857","0.0-13.0-0.116","19","Low_HMMActual","","","","","","548.6999999284744","","","","Images/NewTrialWC.png","","2"
"image-button-response","408","493169","0.0-13.0-1.116","19","Low_HMMActual","","","","","","null","","","","Images/WhiteBeadChoice.png","","null"
"image-button-response","409","493674","0.0-13.0-2.116","19","Low_HMMActual","","","","","","null","","","","Images/WhiteBeadChoiceWrong.png","","null"
"image-button-response","410","495295","0.0-13.0-0.117","19","Low_HMMActual","","","","","","1619.2000000476837","","","","Images/NewTrialBC.png","","3"
"image-button-response","411","495601","0.0-13.0-1.117","19","Low_HMMActual","","","","","","null","","","","Images/WhiteBeadChoice.png","","null"
"image-button-response","412","496104","0.0-13.0-2.117","19","Low_HMMActual","","","","","","null","","","","Images/WhiteBeadChoiceWrong.png","","null"
"image-button-response","413","496985","0.0-13.0-0.118","19","Low_HMMActual","","","","","","878.7000000476837","","","","Images/NewTrialBC.png","","1"
"image-button-response","414","497286","0.0-13.0-1.118","19","Low_HMMActual","","","","","","null","","","","Images/BlackBeadChoice.png","","null"
"image-button-response","415","497788","0.0-13.0-2.118","19","Low_HMMActual","","","","","","null","","","","Images/BlackBeadChoiceCorrect.png","","null"
"image-button-response","416","498064","0.0-13.0-0.119","19","Low_HMMActual","","","","","","273.89999997615814","","","","Images/NewTrialBC.png","","0"
"image-button-response","417","498370","0.0-13.0-1.119","19","Low_HMMActual","","","","","","null","","","","Images/BlackBeadChoice.png","","null"
"image-button-response","418","498872","0.0-13.0-2.119","19","Low_HMMActual","","","","","","null","","","","Images/BlackBeadChoiceCorrect.png","","null"
"image-button-response","419","499837","0.0-13.0-0.120","19","Low_HMMActual","","","","","","954.3999999761581","","","","Images/NewTrialBC.png","","0"
"image-button-response","420","500146","0.0-13.0-1.120","19","Low_HMMActual","","","","","","null","","","","Images/BlackBeadChoice.png","","null"
"image-button-response","421","500648","0.0-13.0-2.120","19","Low_HMMActual","","","","","","null","","","","Images/BlackBeadChoiceWrong.png","","null"
"image-button-response","422","501766","0.0-13.0-0.121","19","Low_HMMActual","","","","","","1116.3999999761581","","","","Images/NewTrialWC.png","","1"
"image-button-response","423","502078","0.0-13.0-1.121","19","Low_HMMActual","","","","","","null","","","","Images/BlackBeadChoice.png","","null"
"image-button-response","424","502580","0.0-13.0-2.121","19","Low_HMMActual","","","","","","null","","","","Images/BlackBeadChoiceWrong.png","","null"
"image-button-response","425","503479","0.0-13.0-0.122","19","Low_HMMActual","","","","","","895","","","","Images/NewTrialWC.png","","3"
"image-button-response","426","503794","0.0-13.0-1.122","19","Low_HMMActual","","","","","","null","","","","Images/WhiteBeadChoice.png","","null"
"image-button-response","427","504296","0.0-13.0-2.122","19","Low_HMMActual","","","","","","null","","","","Images/WhiteBeadChoiceCorrect.png","","null"
"image-button-response","428","504760","0.0-13.0-0.123","19","Low_HMMActual","","","","","","462.39999997615814","","","","Images/NewTrialWC.png","","2"
"image-button-response","429","505062","0.0-13.0-1.123","19","Low_HMMActual","","","","","","null","","","","Images/WhiteBeadChoice.png","","null"
"image-button-response","430","505564","0.0-13.0-2.123","19","Low_HMMActual","","","","","","null","","","","Images/WhiteBeadChoiceWrong.png","","null"
"image-button-response","431","506355","0.0-13.0-0.124","19","Low_HMMActual","","","","","","789","","","","Images/NewTrialBC.png","","3"
"image-button-response","432","506672","0.0-13.0-1.124","19","Low_HMMActual","","","","","","null","","","","Images/WhiteBeadChoice.png","","null"
"image-button-response","433","507189","0.0-13.0-2.124","19","Low_HMMActual","","","","","","null","","","","Images/WhiteBeadChoiceWrong.png","","null"
"image-button-response","434","508863","0.0-13.0-0.125","19","Low_HMMActual","","","","","","1671.5","","","","Images/NewTrialBC.png","","1"
"image-button-response","435","509172","0.0-13.0-1.125","19","Low_HMMActual","","","","","","null","","","","Images/BlackBeadChoice.png","","null"
"image-button-response","436","509676","0.0-13.0-2.125","19","Low_HMMActual","","","","","","null","","","","Images/BlackBeadChoiceWrong.png","","null"
"image-button-response","437","511008","0.0-13.0-0.126","19","Low_HMMActual","","","","","","1331.6000000238419","","","","Images/NewTrialWC.png","","3"
"image-button-response","438","511310","0.0-13.0-1.126","19","Low_HMMActual","","","","","","null","","","","Images/WhiteBeadChoice.png","","null"
"image-button-response","439","511811","0.0-13.0-2.126","19","Low_HMMActual","","","","","","null","","","","Images/WhiteBeadChoiceWrong.png","","null"
"image-button-response","440","512464","0.0-13.0-0.127","19","Low_HMMActual","","","","","","651.1000000238419","","","","Images/NewTrialBC.png","","1"
"image-button-response","441","512773","0.0-13.0-1.127","19","Low_HMMActual","","","","","","null","","","","Images/BlackBeadChoice.png","","null"
"image-button-response","442","513283","0.0-13.0-2.127","19","Low_HMMActual","","","","","","null","","","","Images/BlackBeadChoiceCorrect.png","","null"
"image-button-response","443","514623","0.0-13.0-0.128","19","Low_HMMActual","","","","","","1337.7999999523163","","","","Images/NewTrialBC.png","","1"
"image-button-response","444","514931","0.0-13.0-1.128","19","Low_HMMActual","","","","","","null","","","","Images/BlackBeadChoice.png","","null"
"image-button-response","445","515432","0.0-13.0-2.128","19","Low_HMMActual","","","","","","null","","","","Images/BlackBeadChoiceCorrect.png","","null"
"image-button-response","446","515718","0.0-13.0-0.129","19","Low_HMMActual","","","","","","284.40000009536743","","","","Images/NewTrialBC.png","","0"
"image-button-response","447","516022","0.0-13.0-1.129","19","Low_HMMActual","","","","","","null","","","","Images/BlackBeadChoice.png","","null"
"image-button-response","448","516524","0.0-13.0-2.129","19","Low_HMMActual","","","","","","482.7999999523163","","","","Images/BlackBeadChoiceCorrect.png","","0"
"image-button-response","449","517230","0.0-13.0-0.130","19","Low_HMMActual","","","","","","703.1000000238419","","","","Images/NewTrialBC.png","","0"
"image-button-response","450","517533","0.0-13.0-1.130","19","Low_HMMActual","","","","","","null","","","","Images/BlackBeadChoice.png","","null"
"image-button-response","451","518043","0.0-13.0-2.130","19","Low_HMMActual","","","","","","null","","","","Images/BlackBeadChoiceCorrect.png","","null"
"image-button-response","452","518605","0.0-13.0-0.131","19","Low_HMMActual","","","","","","559.1999999284744","","","","Images/NewTrialBC.png","","0"
"image-button-response","453","518925","0.0-13.0-1.131","19","Low_HMMActual","","","","","","null","","","","Images/BlackBeadChoice.png","","null"
"image-button-response","454","519433","0.0-13.0-2.131","19","Low_HMMActual","","","","","","null","","","","Images/BlackBeadChoiceCorrect.png","","null"
"image-button-response","455","520069","0.0-13.0-0.132","19","Low_HMMActual","","","","","","631.6999999284744","","","","Images/NewTrialBC.png","","0"
"image-button-response","456","520378","0.0-13.0-1.132","19","Low_HMMActual","","","","","","null","","","","Images/BlackBeadChoice.png","","null"
"image-button-response","457","520895","0.0-13.0-2.132","19","Low_HMMActual","","","","","","null","","","","Images/BlackBeadChoiceCorrect.png","","null"
"image-button-response","458","521082","0.0-13.0-0.133","19","Low_HMMActual","","","","","","185.70000004768372","","","","Images/NewTrialBC.png","","0"
"image-button-response","459","521392","0.0-13.0-1.133","19","Low_HMMActual","","","","","","null","","","","Images/BlackBeadChoice.png","","null"
"image-button-response","460","521899","0.0-13.0-2.133","19","Low_HMMActual","","","","","","492.7000000476837","","","","Images/BlackBeadChoiceCorrect.png","","0"
"image-button-response","461","522610","0.0-13.0-0.134","19","Low_HMMActual","","","","","","709.8000000715256","","","","Images/NewTrialBC.png","","0"
"image-button-response","462","522926","0.0-13.0-1.134","19","Low_HMMActual","","","","","","null","","","","Images/BlackBeadChoice.png","","null"
"image-button-response","463","523442","0.0-13.0-2.134","19","Low_HMMActual","","","","","","null","","","","Images/BlackBeadChoiceCorrect.png","","null"
"image-button-response","464","523640","0.0-13.0-0.135","19","Low_HMMActual","","","","","","196.79999995231628","","","","Images/NewTrialBC.png","","0"
"image-button-response","465","523949","0.0-13.0-1.135","19","Low_HMMActual","","","","","","null","","","","Images/BlackBeadChoice.png","","null"
"image-button-response","466","524456","0.0-13.0-2.135","19","Low_HMMActual","","","","","","null","","","","Images/BlackBeadChoiceWrong.png","","null"
"image-button-response","467","525408","0.0-13.0-0.136","19","Low_HMMActual","","","","","","951.5","","","","Images/NewTrialWC.png","","1"
"image-button-response","468","525716","0.0-13.0-1.136","19","Low_HMMActual","","","","","","null","","","","Images/BlackBeadChoice.png","","null"
"image-button-response","469","526219","0.0-13.0-2.136","19","Low_HMMActual","","","","","","null","","","","Images/BlackBeadChoiceWrong.png","","null"
"image-button-response","470","527338","0.0-13.0-0.137","19","Low_HMMActual","","","","","","1117.0999999046326","","","","Images/NewTrialWC.png","","3"
"image-button-response","471","527640","0.0-13.0-1.137","19","Low_HMMActual","","","","","","null","","","","Images/WhiteBeadChoice.png","","null"
"image-button-response","472","528142","0.0-13.0-2.137","19","Low_HMMActual","","","","","","null","","","","Images/WhiteBeadChoiceCorrect.png","","null"
"image-button-response","473","528517","0.0-13.0-0.138","19","Low_HMMActual","","","","","","373.60000002384186","","","","Images/NewTrialWC.png","","2"
"image-button-response","474","528830","0.0-13.0-1.138","19","Low_HMMActual","","","","","","null","","","","Images/WhiteBeadChoice.png","","null"
"image-button-response","475","529349","0.0-13.0-2.138","19","Low_HMMActual","","","","","","null","","","","Images/WhiteBeadChoiceCorrect.png","","null"
"image-button-response","476","529610","0.0-13.0-0.139","19","Low_HMMActual","","","","","","259.60000002384186","","","","Images/NewTrialWC.png","","2"
"image-button-response","477","529915","0.0-13.0-1.139","19","Low_HMMActual","","","","","","null","","","","Images/WhiteBeadChoice.png","","null"
"image-button-response","478","530418","0.0-13.0-2.139","19","Low_HMMActual","","","","","","null","","","","Images/WhiteBeadChoiceCorrect.png","","null"
"image-button-response","479","530952","0.0-13.0-0.140","19","Low_HMMActual","","","","","","527.6000000238419","","","","Images/NewTrialWC.png","","2"
"image-button-response","480","531255","0.0-13.0-1.140","19","Low_HMMActual","","","","","","null","","","","Images/WhiteBeadChoice.png","","null"
"image-button-response","481","531772","0.0-13.0-2.140","19","Low_HMMActual","","","","","","null","","","","Images/WhiteBeadChoiceCorrect.png","","null"
"image-button-response","482","532234","0.0-13.0-0.141","19","Low_HMMActual","","","","","","460.7000000476837","","","","Images/NewTrialWC.png","","2"
"image-button-response","483","532543","0.0-13.0-1.141","19","Low_HMMActual","","","","","","null","","","","Images/WhiteBeadChoice.png","","null"
"image-button-response","484","533047","0.0-13.0-2.141","19","Low_HMMActual","","","","","","null","","","","Images/WhiteBeadChoiceCorrect.png","","null"
"image-button-response","485","533515","0.0-13.0-0.142","19","Low_HMMActual","","","","","","464.89999997615814","","","","Images/NewTrialWC.png","","2"
"image-button-response","486","533822","0.0-13.0-1.142","19","Low_HMMActual","","","","","","null","","","","Images/WhiteBeadChoice.png","","null"
"image-button-response","487","534326","0.0-13.0-2.142","19","Low_HMMActual","","","","","","null","","","","Images/WhiteBeadChoiceWrong.png","","null"
"image-button-response","488","534907","0.0-13.0-0.143","19","Low_HMMActual","","","","","","578.8999999761581","","","","Images/NewTrialBC.png","","3"
"image-button-response","489","535220","0.0-13.0-1.143","19","Low_HMMActual","","","","","","null","","","","Images/WhiteBeadChoice.png","","null"
"image-button-response","490","535725","0.0-13.0-2.143","19","Low_HMMActual","","","","","","null","","","","Images/WhiteBeadChoiceCorrect.png","","null"
"image-button-response","491","537589","0.0-13.0-0.144","19","Low_HMMActual","","","","","","1861.5","","","","Images/NewTrialWC.png","","3"
"image-button-response","492","537906","0.0-13.0-1.144","19","Low_HMMActual","","","","","","null","","","","Images/WhiteBeadChoice.png","","null"
"image-button-response","493","538409","0.0-13.0-2.144","19","Low_HMMActual","","","","","","null","","","","Images/WhiteBeadChoiceCorrect.png","","null"
"image-button-response","494","538780","0.0-13.0-0.145","19","Low_HMMActual","","","","","","369","","","","Images/NewTrialWC.png","","2"
"image-button-response","495","539087","0.0-13.0-1.145","19","Low_HMMActual","","","","","","null","","","","Images/WhiteBeadChoice.png","","null"
"image-button-response","496","539591","0.0-13.0-2.145","19","Low_HMMActual","","","","","","null","","","","Images/WhiteBeadChoiceCorrect.png","","null"
"image-button-response","497","540374","0.0-13.0-0.146","19","Low_HMMActual","","","","","","781.8999999761581","","","","Images/NewTrialWC.png","","2"
"image-button-response","498","540678","0.0-13.0-1.146","19","Low_HMMActual","","","","","","null","","","","Images/WhiteBeadChoice.png","","null"
"image-button-response","499","541180","0.0-13.0-2.146","19","Low_HMMActual","","","","","","null","","","","Images/WhiteBeadChoiceWrong.png","","null"
"image-button-response","500","544539","0.0-13.0-0.147","19","Low_HMMActual","","","","","","3356.899999976158","","","","Images/NewTrialBC.png","","3"
"image-button-response","501","544842","0.0-13.0-1.147","19","Low_HMMActual","","","","","","null","","","","Images/WhiteBeadChoice.png","","null"
"image-button-response","502","545344","0.0-13.0-2.147","19","Low_HMMActual","","","","","","null","","","","Images/WhiteBeadChoiceCorrect.png","","null"
"image-button-response","503","545746","0.0-13.0-0.148","19","Low_HMMActual","","","","","","400.39999997615814","","","","Images/NewTrialWC.png","","2"
"image-button-response","504","546059","0.0-13.0-1.148","19","Low_HMMActual","","","","","","null","","","","Images/WhiteBeadChoice.png","","null"
"image-button-response","505","546563","0.0-13.0-2.148","19","Low_HMMActual","","","","","","null","","","","Images/WhiteBeadChoiceCorrect.png","","null"
"image-button-response","506","547269","0.0-13.0-0.149","19","Low_HMMActual","","","","","","702.7999999523163","","","","Images/NewTrialWC.png","","2"
"image-button-response","507","547584","0.0-13.0-1.149","19","Low_HMMActual","","","","","","null","","","","Images/WhiteBeadChoice.png","","null"
"image-button-response","508","548092","0.0-13.0-2.149","19","Low_HMMActual","","","","","","null","","","","Images/WhiteBeadChoiceWrong.png","","null"
"image-button-response","509","548526","0.0-13.0-0.150","19","Low_HMMActual","","","","","","432.89999997615814","","","","Images/NewTrialBC.png","","3"
"image-button-response","510","548828","0.0-13.0-1.150","19","Low_HMMActual","","","","","","null","","","","Images/WhiteBeadChoice.png","","null"
"image-button-response","511","549330","0.0-13.0-2.150","19","Low_HMMActual","","","","","","null","","","","Images/WhiteBeadChoiceCorrect.png","","null"
"image-button-response","512","549622","0.0-13.0-0.151","19","Low_HMMActual","","","","","","290.2000000476837","","","","Images/NewTrialWC.png","","2"
"image-button-response","513","549933","0.0-13.0-1.151","19","Low_HMMActual","","","","","","null","","","","Images/WhiteBeadChoice.png","","null"
"image-button-response","514","550439","0.0-13.0-2.151","19","Low_HMMActual","","","","","","null","","","","Images/WhiteBeadChoiceCorrect.png","","null"
"image-button-response","515","550688","0.0-13.0-0.152","19","Low_HMMActual","","","","","","248","","","","Images/NewTrialWC.png","","2"
"image-button-response","516","550994","0.0-13.0-1.152","19","Low_HMMActual","","","","","","null","","","","Images/WhiteBeadChoice.png","","null"
"image-button-response","517","551498","0.0-13.0-2.152","19","Low_HMMActual","","","","","","null","","","","Images/WhiteBeadChoiceCorrect.png","","null"
"image-button-response","518","551996","0.0-13.0-0.153","19","Low_HMMActual","","","","","","496.7999999523163","","","","Images/NewTrialWC.png","","2"
"image-button-response","519","552306","0.0-13.0-1.153","19","Low_HMMActual","","","","","","null","","","","Images/WhiteBeadChoice.png","","null"
"image-button-response","520","552814","0.0-13.0-2.153","19","Low_HMMActual","","","","","","null","","","","Images/WhiteBeadChoiceCorrect.png","","null"
"image-button-response","521","553490","0.0-13.0-0.154","19","Low_HMMActual","","","","","","674.4000000953674","","","","Images/NewTrialWC.png","","2"
"image-button-response","522","553798","0.0-13.0-1.154","19","Low_HMMActual","","","","","","null","","","","Images/WhiteBeadChoice.png","","null"
"image-button-response","523","554316","0.0-13.0-2.154","19","Low_HMMActual","","","","","","null","","","","Images/WhiteBeadChoiceCorrect.png","","null"
"image-button-response","524","554972","0.0-13.0-0.155","19","Low_HMMActual","","","","","","655.2000000476837","","","","Images/NewTrialWC.png","","2"
"image-button-response","525","555280","0.0-13.0-1.155","19","Low_HMMActual","","","","","","null","","","","Images/WhiteBeadChoice.png","","null"
"image-button-response","526","555785","0.0-13.0-2.155","19","Low_HMMActual","","","","","","null","","","","Images/WhiteBeadChoiceWrong.png","","null"
"image-button-response","527","556430","0.0-13.0-0.156","19","Low_HMMActual","","","","","","643.8999999761581","","","","Images/NewTrialBC.png","","3"
"image-button-response","528","556736","0.0-13.0-1.156","19","Low_HMMActual","","","","","","null","","","","Images/WhiteBeadChoice.png","","null"
"image-button-response","529","557238","0.0-13.0-2.156","19","Low_HMMActual","","","","","","null","","","","Images/WhiteBeadChoiceWrong.png","","null"
"image-button-response","530","557727","0.0-13.0-0.157","19","Low_HMMActual","","","","","","486.39999997615814","","","","Images/NewTrialBC.png","","1"
"image-button-response","531","558031","0.0-13.0-1.157","19","Low_HMMActual","","","","","","null","","","","Images/BlackBeadChoice.png","","null"
"image-button-response","532","558532","0.0-13.0-2.157","19","Low_HMMActual","","","","","","466.3000000715256","","","","Images/BlackBeadChoiceCorrect.png","","0"
"image-button-response","533","559346","0.0-13.0-0.158","19","Low_HMMActual","","","","","","812.3999999761581","","","","Images/NewTrialBC.png","","0"
"image-button-response","534","559658","0.0-13.0-1.158","19","Low_HMMActual","","","","","","null","","","","Images/BlackBeadChoice.png","","null"
"image-button-response","535","560171","0.0-13.0-2.158","19","Low_HMMActual","","","","","","510.8000000715256","","","","Images/BlackBeadChoiceCorrect.png","","0"
"image-button-response","536","560750","0.0-13.0-0.159","19","Low_HMMActual","","","","","","577.1000000238419","","","","Images/NewTrialBC.png","","0"
"image-button-response","537","561053","0.0-13.0-1.159","19","Low_HMMActual","","","","","","null","","","","Images/BlackBeadChoice.png","","null"
"image-button-response","538","561563","0.0-13.0-2.159","19","Low_HMMActual","","","","","","null","","","","Images/BlackBeadChoiceCorrect.png","","null"
"image-button-response","539","561940","0.0-13.0-0.160","19","Low_HMMActual","","","","","","375.6999999284744","","","","Images/NewTrialBC.png","","0"
"image-button-response","540","562251","0.0-13.0-1.160","19","Low_HMMActual","","","","","","null","","","","Images/BlackBeadChoice.png","","null"
"image-button-response","541","562753","0.0-13.0-2.160","19","Low_HMMActual","","","","","","null","","","","Images/BlackBeadChoiceCorrect.png","","null"
"image-button-response","542","563086","0.0-13.0-0.161","19","Low_HMMActual","","","","","","331.60000002384186","","","","Images/NewTrialBC.png","","0"
"image-button-response","543","563397","0.0-13.0-1.161","19","Low_HMMActual","","","","","","null","","","","Images/BlackBeadChoice.png","","null"
"image-button-response","544","563899","0.0-13.0-2.161","19","Low_HMMActual","","","","","","null","","","","Images/BlackBeadChoiceWrong.png","","null"
"image-button-response","545","564292","0.0-13.0-0.162","19","Low_HMMActual","","","","","","392.10000002384186","","","","Images/NewTrialWC.png","","1"
"image-button-response","546","564601","0.0-13.0-1.162","19","Low_HMMActual","","","","","","null","","","","Images/BlackBeadChoice.png","","null"
"image-button-response","547","565104","0.0-13.0-2.162","19","Low_HMMActual","","","","","","null","","","","Images/BlackBeadChoiceWrong.png","","null"
"image-button-response","548","565582","0.0-13.0-0.163","19","Low_HMMActual","","","","","","477","","","","Images/NewTrialWC.png","","3"
"image-button-response","549","565884","0.0-13.0-1.163","19","Low_HMMActual","","","","","","null","","","","Images/WhiteBeadChoice.png","","null"
"image-button-response","550","566398","0.0-13.0-2.163","19","Low_HMMActual","","","","","","null","","","","Images/WhiteBeadChoiceCorrect.png","","null"
"image-button-response","551","566569","0.0-13.0-0.164","19","Low_HMMActual","","","","","","168.89999997615814","","","","Images/NewTrialWC.png","","2"
"image-button-response","552","566880","0.0-13.0-1.164","19","Low_HMMActual","","","","","","null","","","","Images/WhiteBeadChoice.png","","null"
"image-button-response","553","567389","0.0-13.0-2.164","19","Low_HMMActual","","","","","","null","","","","Images/WhiteBeadChoiceCorrect.png","","null"
"image-button-response","554","567664","0.0-13.0-0.165","19","Low_HMMActual","","","","","","273.8000000715256","","","","Images/NewTrialWC.png","","2"
"image-button-response","555","567974","0.0-13.0-1.165","19","Low_HMMActual","","","","","","null","","","","Images/WhiteBeadChoice.png","","null"
"image-button-response","556","568479","0.0-13.0-2.165","19","Low_HMMActual","","","","","","null","","","","Images/WhiteBeadChoiceCorrect.png","","null"
"image-button-response","557","568801","0.0-13.0-0.166","19","Low_HMMActual","","","","","","320","","","","Images/NewTrialWC.png","","2"
"image-button-response","558","569107","0.0-13.0-1.166","19","Low_HMMActual","","","","","","null","","","","Images/WhiteBeadChoice.png","","null"
"image-button-response","559","569612","0.0-13.0-2.166","19","Low_HMMActual","","","","","","null","","","","Images/WhiteBeadChoiceCorrect.png","","null"
"image-button-response","560","570574","0.0-13.0-0.167","19","Low_HMMActual","","","","","","960.8000000715256","","","","Images/NewTrialWC.png","","2"
"image-button-response","561","570890","0.0-13.0-1.167","19","Low_HMMActual","","","","","","null","","","","Images/WhiteBeadChoice.png","","null"
"image-button-response","562","571396","0.0-13.0-2.167","19","Low_HMMActual","","","","","","null","","","","Images/WhiteBeadChoiceCorrect.png","","null"
"image-button-response","563","571866","0.0-13.0-0.168","19","Low_HMMActual","","","","","","466.90000009536743","","","","Images/NewTrialWC.png","","2"
"image-button-response","564","572184","0.0-13.0-1.168","19","Low_HMMActual","","","","","","null","","","","Images/WhiteBeadChoice.png","","null"
"image-button-response","565","572685","0.0-13.0-2.168","19","Low_HMMActual","","","","","","null","","","","Images/WhiteBeadChoiceWrong.png","","null"
"image-button-response","566","573258","0.0-13.0-0.169","19","Low_HMMActual","","","","","","571.7999999523163","","","","Images/NewTrialBC.png","","3"
"image-button-response","567","573560","0.0-13.0-1.169","19","Low_HMMActual","","","","","","null","","","","Images/WhiteBeadChoice.png","","null"
"image-button-response","568","574061","0.0-13.0-2.169","19","Low_HMMActual","","","","","","null","","","","Images/WhiteBeadChoiceCorrect.png","","null"
"image-button-response","569","574318","0.0-13.0-0.170","19","Low_HMMActual","","","","","","255","","","","Images/NewTrialWC.png","","2"
"image-button-response","570","574634","0.0-13.0-1.170","19","Low_HMMActual","","","","","","null","","","","Images/WhiteBeadChoice.png","","null"
"image-button-response","571","575151","0.0-13.0-2.170","19","Low_HMMActual","","","","","","null","","","","Images/WhiteBeadChoiceCorrect.png","","null"
"image-button-response","572","575304","0.0-13.0-0.171","19","Low_HMMActual","","","","","","151.60000002384186","","","","Images/NewTrialWC.png","","2"
"image-button-response","573","575613","0.0-13.0-1.171","19","Low_HMMActual","","","","","","null","","","","Images/WhiteBeadChoice.png","","null"
"image-button-response","574","576116","0.0-13.0-2.171","19","Low_HMMActual","","","","","","null","","","","Images/WhiteBeadChoiceCorrect.png","","null"
"image-button-response","575","576690","0.0-13.0-0.172","19","Low_HMMActual","","","","","","572.8999999761581","","","","Images/NewTrialWC.png","","2"
"image-button-response","576","576998","0.0-13.0-1.172","19","Low_HMMActual","","","","","","null","","","","Images/WhiteBeadChoice.png","","null"
"image-button-response","577","577500","0.0-13.0-2.172","19","Low_HMMActual","","","","","","496.5","","","","Images/WhiteBeadChoiceCorrect.png","","2"
"image-button-response","578","578008","0.0-13.0-0.173","19","Low_HMMActual","","","","","","506","","","","Images/NewTrialWC.png","","2"
"image-button-response","579","578317","0.0-13.0-1.173","19","Low_HMMActual","","","","","","null","","","","Images/WhiteBeadChoice.png","","null"
"image-button-response","580","578824","0.0-13.0-2.173","19","Low_HMMActual","","","","","","null","","","","Images/WhiteBeadChoiceCorrect.png","","null"
"image-button-response","581","579221","0.0-13.0-0.174","19","Low_HMMActual","","","","","","391.89999997615814","","","","Images/NewTrialWC.png","","2"
"image-button-response","582","579536","0.0-13.0-1.174","19","Low_HMMActual","","","","","","null","","","","Images/WhiteBeadChoice.png","","null"
"image-button-response","583","580038","0.0-13.0-2.174","19","Low_HMMActual","","","","","","490.5","","","","Images/WhiteBeadChoiceCorrect.png","","2"
"image-button-response","584","580270","0.0-13.0-0.175","19","Low_HMMActual","","","","","","229.69999992847443","","","","Images/NewTrialWC.png","","2"
"image-button-response","585","580575","0.0-13.0-1.175","19","Low_HMMActual","","","","","","null","","","","Images/WhiteBeadChoice.png","","null"
"image-button-response","586","581092","0.0-13.0-2.175","19","Low_HMMActual","","","","","","null","","","","Images/WhiteBeadChoiceWrong.png","","null"
"image-button-response","587","581502","0.0-13.0-0.176","19","Low_HMMActual","","","","","","407.6999999284744","","","","Images/NewTrialBC.png","","3"
"image-button-response","588","581813","0.0-13.0-1.176","19","Low_HMMActual","","","","","","null","","","","Images/WhiteBeadChoice.png","","null"
"image-button-response","589","582330","0.0-13.0-2.176","19","Low_HMMActual","","","","","","null","","","","Images/WhiteBeadChoiceWrong.png","","null"
"image-button-response","590","583408","0.0-13.0-0.177","19","Low_HMMActual","","","","","","1076.2000000476837","","","","Images/NewTrialBC.png","","1"
"image-button-response","591","583719","0.0-13.0-1.177","19","Low_HMMActual","","","","","","null","","","","Images/BlackBeadChoice.png","","null"
"image-button-response","592","584228","0.0-13.0-2.177","19","Low_HMMActual","","","","","","null","","","","Images/BlackBeadChoiceCorrect.png","","null"
"image-button-response","593","584834","0.0-13.0-0.178","19","Low_HMMActual","","","","","","604.5","","","","Images/NewTrialBC.png","","0"
"image-button-response","594","585137","0.0-13.0-1.178","19","Low_HMMActual","","","","","","null","","","","Images/BlackBeadChoice.png","","null"
"image-button-response","595","585641","0.0-13.0-2.178","19","Low_HMMActual","","","","","","null","","","","Images/BlackBeadChoiceWrong.png","","null"
"image-button-response","596","586950","0.0-13.0-0.179","19","Low_HMMActual","","","","","","1308.3000000715256","","","","Images/NewTrialWC.png","","1"
"image-button-response","597","587253","0.0-13.0-1.179","19","Low_HMMActual","","","","","","null","","","","Images/BlackBeadChoice.png","","null"
"image-button-response","598","587760","0.0-13.0-2.179","19","Low_HMMActual","","","","","","null","","","","Images/BlackBeadChoiceCorrect.png","","null"
"image-button-response","599","588684","0.0-13.0-0.180","19","Low_HMMActual","","","","","","922.5","","","","Images/NewTrialBC.png","","0"
"image-button-response","600","588990","0.0-13.0-1.180","19","Low_HMMActual","","","","","","null","","","","Images/BlackBeadChoice.png","","null"
"image-button-response","601","589508","0.0-13.0-2.180","19","Low_HMMActual","","","","","","null","","","","Images/BlackBeadChoiceCorrect.png","","null"
"image-button-response","602","589726","0.0-13.0-0.181","19","Low_HMMActual","","","","","","217","","","","Images/NewTrialBC.png","","0"
"image-button-response","603","590036","0.0-13.0-1.181","19","Low_HMMActual","","","","","","null","","","","Images/BlackBeadChoice.png","","null"
"image-button-response","604","590540","0.0-13.0-2.181","19","Low_HMMActual","","","","","","null","","","","Images/BlackBeadChoiceCorrect.png","","null"
"image-button-response","605","590946","0.0-13.0-0.182","19","Low_HMMActual","","","","","","405.60000002384186","","","","Images/NewTrialBC.png","","0"
"image-button-response","606","591262","0.0-13.0-1.182","19","Low_HMMActual","","","","","","null","","","","Images/BlackBeadChoice.png","","null"
"image-button-response","607","591765","0.0-13.0-2.182","19","Low_HMMActual","","","","","","null","","","","Images/BlackBeadChoiceCorrect.png","","null"
"image-button-response","608","592008","0.0-13.0-0.183","19","Low_HMMActual","","","","","","241.30000007152557","","","","Images/NewTrialBC.png","","0"
"image-button-response","609","592315","0.0-13.0-1.183","19","Low_HMMActual","","","","","","null","","","","Images/BlackBeadChoice.png","","null"
"image-button-response","610","592819","0.0-13.0-2.183","19","Low_HMMActual","","","","","","null","","","","Images/BlackBeadChoiceCorrect.png","","null"
"image-button-response","611","593010","0.0-13.0-0.184","19","Low_HMMActual","","","","","","189.80000007152557","","","","Images/NewTrialBC.png","","0"
"image-button-response","612","593320","0.0-13.0-1.184","19","Low_HMMActual","","","","","","null","","","","Images/BlackBeadChoice.png","","null"
"image-button-response","613","593836","0.0-13.0-2.184","19","Low_HMMActual","","","","","","null","","","","Images/BlackBeadChoiceCorrect.png","","null"
"image-button-response","614","594472","0.0-13.0-0.185","19","Low_HMMActual","","","","","","633.8000000715256","","","","Images/NewTrialBC.png","","0"
"image-button-response","615","594780","0.0-13.0-1.185","19","Low_HMMActual","","","","","","null","","","","Images/BlackBeadChoice.png","","null"
"image-button-response","616","595286","0.0-13.0-2.185","19","Low_HMMActual","","","","","","452.7000000476837","","","","Images/BlackBeadChoiceCorrect.png","","0"
"image-button-response","617","595816","0.0-13.0-0.186","19","Low_HMMActual","","","","","","528.6000000238419","","","","Images/NewTrialBC.png","","0"
"image-button-response","618","596119","0.0-13.0-1.186","19","Low_HMMActual","","","","","","null","","","","Images/BlackBeadChoice.png","","null"
"image-button-response","619","596623","0.0-13.0-2.186","19","Low_HMMActual","","","","","","null","","","","Images/BlackBeadChoiceCorrect.png","","null"
"image-button-response","620","596836","0.0-13.0-0.187","19","Low_HMMActual","","","","","","212.10000002384186","","","","Images/NewTrialBC.png","","0"
"image-button-response","621","597147","0.0-13.0-1.187","19","Low_HMMActual","","","","","","null","","","","Images/BlackBeadChoice.png","","null"
"image-button-response","622","597648","0.0-13.0-2.187","19","Low_HMMActual","","","","","","null","","","","Images/BlackBeadChoiceWrong.png","","null"
"image-button-response","623","598116","0.0-13.0-0.188","19","Low_HMMActual","","","","","","467","","","","Images/NewTrialWC.png","","1"
"image-button-response","624","598430","0.0-13.0-1.188","19","Low_HMMActual","","","","","","null","","","","Images/BlackBeadChoice.png","","null"
"image-button-response","625","598934","0.0-13.0-2.188","19","Low_HMMActual","","","","","","null","","","","Images/BlackBeadChoiceWrong.png","","null"
"image-button-response","626","599591","0.0-13.0-0.189","19","Low_HMMActual","","","","","","655.1999999284744","","","","Images/NewTrialWC.png","","3"
"image-button-response","627","599894","0.0-13.0-1.189","19","Low_HMMActual","","","","","","null","","","","Images/WhiteBeadChoice.png","","null"
"image-button-response","628","600397","0.0-13.0-2.189","19","Low_HMMActual","","","","","","null","","","","Images/WhiteBeadChoiceCorrect.png","","null"
"image-button-response","629","600686","0.0-13.0-0.190","19","Low_HMMActual","","","","","","287.39999997615814","","","","Images/NewTrialWC.png","","2"
"image-button-response","630","600998","0.0-13.0-1.190","19","Low_HMMActual","","","","","","null","","","","Images/WhiteBeadChoice.png","","null"
"image-button-response","631","601502","0.0-13.0-2.190","19","Low_HMMActual","","","","","","461.89999997615814","","","","Images/WhiteBeadChoiceCorrect.png","","2"
"image-button-response","632","602014","0.0-13.0-0.191","19","Low_HMMActual","","","","","","510","","","","Images/NewTrialWC.png","","2"
"image-button-response","633","602319","0.0-13.0-1.191","19","Low_HMMActual","","","","","","null","","","","Images/WhiteBeadChoice.png","","null"
"image-button-response","634","602822","0.0-13.0-2.191","19","Low_HMMActual","","","","","","null","","","","Images/WhiteBeadChoiceCorrect.png","","null"
"image-button-response","635","603238","0.0-13.0-0.192","19","Low_HMMActual","","","","","","414.39999997615814","","","","Images/NewTrialWC.png","","2"
"image-button-response","636","603540","0.0-13.0-1.192","19","Low_HMMActual","","","","","","null","","","","Images/WhiteBeadChoice.png","","null"
"image-button-response","637","604042","0.0-13.0-2.192","19","Low_HMMActual","","","","","","496","","","","Images/WhiteBeadChoiceCorrect.png","","2"
"image-button-response","638","604478","0.0-13.0-0.193","19","Low_HMMActual","","","","","","434","","","","Images/NewTrialWC.png","","2"
"image-button-response","639","604799","0.0-13.0-1.193","19","Low_HMMActual","","","","","","null","","","","Images/WhiteBeadChoice.png","","null"
"image-button-response","640","605302","0.0-13.0-2.193","19","Low_HMMActual","","","","","","489.6999999284744","","","","Images/WhiteBeadChoiceCorrect.png","","2"
"image-button-response","641","605632","0.0-13.0-0.194","19","Low_HMMActual","","","","","","327.2999999523163","","","","Images/NewTrialWC.png","","2"
"image-button-response","642","605942","0.0-13.0-1.194","19","Low_HMMActual","","","","","","null","","","","Images/WhiteBeadChoice.png","","null"
"image-button-response","643","606449","0.0-13.0-2.194","19","Low_HMMActual","","","","","","449.39999997615814","","","","Images/WhiteBeadChoiceCorrect.png","","2"
"image-button-response","644","606712","0.0-13.0-0.195","19","Low_HMMActual","","","","","","261.5","","","","Images/NewTrialWC.png","","2"
"image-button-response","645","607019","0.0-13.0-1.195","19","Low_HMMActual","","","","","","null","","","","Images/WhiteBeadChoice.png","","null"
"image-button-response","646","607539","0.0-13.0-2.195","19","Low_HMMActual","","","","","","457.89999997615814","","","","Images/WhiteBeadChoiceCorrect.png","","2"
"image-button-response","647","607837","0.0-13.0-0.196","19","Low_HMMActual","","","","","","295.7999999523163","","","","Images/NewTrialWC.png","","2"
"image-button-response","648","608150","0.0-13.0-1.196","19","Low_HMMActual","","","","","","null","","","","Images/WhiteBeadChoice.png","","null"
"image-button-response","649","608651","0.0-13.0-2.196","19","Low_HMMActual","","","","","","491.10000002384186","","","","Images/WhiteBeadChoiceCorrect.png","","2"
"image-button-response","650","609028","0.0-13.0-0.197","19","Low_HMMActual","","","","","","375.39999997615814","","","","Images/NewTrialWC.png","","2"
"image-button-response","651","609347","0.0-13.0-1.197","19","Low_HMMActual","","","","","","null","","","","Images/WhiteBeadChoice.png","","null"
"image-button-response","652","609857","0.0-13.0-2.197","19","Low_HMMActual","","","","","","415.90000009536743","","","","Images/WhiteBeadChoiceCorrect.png","","2"
"image-button-response","653","610192","0.0-13.0-0.198","19","Low_HMMActual","","","","","","334","","","","Images/NewTrialWC.png","","2"
"image-button-response","654","610504","0.0-13.0-1.198","19","Low_HMMActual","","","","","","null","","","","Images/WhiteBeadChoice.png","","null"
"image-button-response","655","611020","0.0-13.0-2.198","19","Low_HMMActual","","","","","","null","","","","Images/WhiteBeadChoiceWrong.png","","null"
"image-button-response","656","612046","0.0-13.0-0.199","19","Low_HMMActual","","","","","","1025","","","","Images/NewTrialBC.png","","3"
"image-button-response","657","612348","0.0-13.0-1.199","19","Low_HMMActual","","","","","","null","","","","Images/WhiteBeadChoice.png","","null"
"image-button-response","658","612850","0.0-13.0-2.199","19","Low_HMMActual","","","","","","null","","","","Images/WhiteBeadChoiceCorrect.png","","null"
"image-button-response","659","613384","0.0-13.0-0.200","19","Low_HMMActual","","","","","","531.3999999761581","","","","Images/NewTrialWC.png","","2"
"image-button-response","660","613701","0.0-13.0-1.200","19","Low_HMMActual","","","","","","null","","","","Images/WhiteBeadChoice.png","","null"
"image-button-response","661","614206","0.0-13.0-2.200","19","Low_HMMActual","","","","","","null","","","","Images/WhiteBeadChoiceCorrect.png","","null"
"image-button-response","662","614596","0.0-13.0-0.201","19","Low_HMMActual","","","","","","382.60000002384186","","","","Images/NewTrialWC.png","","2"
"image-button-response","663","614913","0.0-13.0-1.201","19","Low_HMMActual","","","","","","null","","","","Images/WhiteBeadChoice.png","","null"
"image-button-response","664","615424","0.0-13.0-2.201","19","Low_HMMActual","","","","","","null","","","","Images/WhiteBeadChoiceWrong.png","","null"
"image-button-response","665","616182","0.0-13.0-0.202","19","Low_HMMActual","","","","","","756.6000000238419","","","","Images/NewTrialBC.png","","3"
