"trial_type","trial_index","time_elapsed","internal_node_id","Script_Picker","Block_Type","success","timeout","failed_images","failed_audio","failed_video","rt","url","responses","question_order","stimulus","key_press","response"
"pavlovia","0","16","0.0-0.0","17","Low_HMMActual","","","","","","","","","","","",""
"preload","1","18","0.0-1.0","17","Low_HMMActual","true","false","[]","[]","[]","","","","","","",""
"external-html","2","48061","0.0-2.0-0.0","17","Low_HMMActual","","","","","","47942.40000000596","consent.html","","","","",""
"survey-multi-choice","3","54952","0.0-2.0-1.0","17","Low_HMMActual","","","","","","6886.19999999553","","{""Q0"":""Female"",""Q1"":""White""}","[0,1]","","",""
"survey-text","4","57923","0.0-2.0-2.0","17","Low_HMMActual","","","","","","2966.5","","{""Q0"":""19""}","","","",""
"survey-text","5","65126","0.0-2.0-3.0","17","Low_HMMActual","","","","","","7097.10000000149","","{""Q0"":""60fdd1d643ddeccb4c6e5200""}","","","",""
"image-keyboard-response","6","86075","0.0-3.0-0.0","17","Low_HMMActual","","","","","","20845.39999999851","","","","tutorial/tutorial1.png"," ",""
"image-keyboard-response","7","106267","0.0-3.0-0.1","17","Low_HMMActual","","","","","","20191.5","","","","tutorial/tutorial2.png"," ",""
"image-keyboard-response","8","113656","0.0-3.0-0.2","17","Low_HMMActual","","","","","","7387.69999999553","","","","tutorial/tutorial3.png"," ",""
"image-keyboard-response","9","117643","0.0-3.0-0.3","17","Low_HMMActual","","","","","","3985","","","","tutorial/tutorial4.png"," ",""
"image-keyboard-response","10","120223","0.0-3.0-0.4","17","Low_HMMActual","","","","","","2579","","","","tutorial/tutorial5.png"," ",""
"image-keyboard-response","11","132982","0.0-3.0-0.5","17","Low_HMMActual","","","","","","12758.89999999851","","","","tutorial/tutorial6.png"," ",""
"image-keyboard-response","12","140475","0.0-3.0-0.6","17","Low_HMMActual","","","","","","7491.4000000059605","","","","tutorial/tutorial7.png"," ",""
"image-keyboard-response","13","170880","0.0-3.0-0.7","17","Low_HMMActual","","","","","","30403","","","","tutorial/tutorial8.png"," ",""
"image-keyboard-response","14","183705","0.0-3.0-0.8","17","Low_HMMActual","","","","","","12823.79999999702","","","","tutorial/tutorial9.png"," ",""
"image-keyboard-response","15","195979","0.0-3.0-0.9","17","Low_HMMActual","","","","","","12273.39999999851","","","","tutorial/tutorial10.png"," ",""
"image-keyboard-response","16","204034","0.0-3.0-0.10","17","Low_HMMActual","","","","","","8053.39999999851","","","","tutorial/tutorial11.png"," ",""
"image-keyboard-response","17","211297","0.0-3.0-0.11","17","Low_HMMActual","","","","","","7261.5","","","","tutorial/tutorial12.png"," ",""
"image-keyboard-response","18","223843","0.0-3.0-0.12","17","Low_HMMActual","","","","","","12545.20000000298","","","","tutorial/tutorial13.png"," ",""
"image-keyboard-response","19","245135","0.0-3.0-0.13","17","Low_HMMActual","","","","","","21290.5","","","","tutorial/tutorial14.png"," ",""
"image-keyboard-response","20","249870","0.0-3.0-0.14","17","Low_HMMActual","","","","","","4733.19999999553","","","","tutorial/tutorial15.png"," ",""
"image-keyboard-response","21","258703","0.0-4.0","17","Low_HMMActual","","","","","","8831.10000000149","","","","tutorial/tutorial16.png","arrowup",""
"image-keyboard-response","22","267637","0.0-5.0","17","Low_HMMActual","","","","","","6222.79999999702","","","","tutorial/tutorial17.png","arrowright",""
"image-keyboard-response","23","273832","0.0-6.0","17","Low_HMMActual","","","","","","4041","","","","tutorial/tutorial18.png","arrowleft",""
"image-keyboard-response","24","284611","0.0-7.0","17","Low_HMMActual","","","","","","9221.90000000596","","","","tutorial/tutorial19.png"," ",""
"html-keyboard-response","25","296744","0.0-8.0","18","Low_HMMActual","","","","","","12128.79999999702","","","","<div class=""container"" style=""height:800px;width:800px;display:flex;flex-direction:column;justify-content:center;align-items:center;text-align:center;font-weight:normal;font-family:Arial;font-size:20px""><p>Loading episode&hellip;</p><div>"," ",""
"image-button-response","26","305862","0.0-9.0-0.0","18","Low_HMMActual","","","","","","9112","","","","Images/NoChoice.png","","0"
"image-button-response","27","306168","0.0-9.0-1.0","18","Low_HMMActual","","","","","","null","","","","Images/BlackBeadChoice.png","","null"
"image-button-response","28","306671","0.0-9.0-2.0","18","Low_HMMActual","","","","","","null","","","","Images/BlackBeadChoiceWrong.png","","null"
"image-button-response","29","310704","0.0-9.0-0.1","18","Low_HMMActual","","","","","","4022.5","","","","Images/NewTrialWC.png","","2"
"image-button-response","30","311010","0.0-9.0-1.1","18","Low_HMMActual","","","","","","null","","","","Images/WhiteBeadChoice.png","","null"
"image-button-response","31","311513","0.0-9.0-2.1","18","Low_HMMActual","","","","","","null","","","","Images/WhiteBeadChoiceCorrect.png","","null"
"image-button-response","32","314004","0.0-9.0-0.2","18","Low_HMMActual","","","","","","2487.5","","","","Images/NewTrialWC.png","","2"
"image-button-response","33","314310","0.0-9.0-1.2","18","Low_HMMActual","","","","","","null","","","","Images/WhiteBeadChoice.png","","null"
"image-button-response","34","314819","0.0-9.0-2.2","18","Low_HMMActual","","","","","","null","","","","Images/WhiteBeadChoiceCorrect.png","","null"
"image-button-response","35","316875","0.0-9.0-0.3","18","Low_HMMActual","","","","","","2051.89999999851","","","","Images/NewTrialWC.png","","2"
"image-button-response","36","317179","0.0-9.0-1.3","18","Low_HMMActual","","","","","","null","","","","Images/WhiteBeadChoice.png","","null"
"image-button-response","37","317682","0.0-9.0-2.3","18","Low_HMMActual","","","","","","null","","","","Images/WhiteBeadChoiceWrong.png","","null"
"image-button-response","38","323913","0.0-9.0-0.4","18","Low_HMMActual","","","","","","6228.5","","","","Images/NewTrialBC.png","","2"
"image-button-response","39","324220","0.0-9.0-1.4","18","Low_HMMActual","","","","","","null","","","","Images/WhiteBeadChoice.png","","null"
"image-button-response","40","324723","0.0-9.0-2.4","18","Low_HMMActual","","","","","","null","","","","Images/WhiteBeadChoiceCorrect.png","","null"
"image-button-response","41","325917","0.0-9.0-0.5","18","Low_HMMActual","","","","","","1191.2999999970198","","","","Images/NewTrialWC.png","","2"
"image-button-response","42","326225","0.0-9.0-1.5","18","Low_HMMActual","","","","","","null","","","","Images/WhiteBeadChoice.png","","null"
"image-button-response","43","326730","0.0-9.0-2.5","18","Low_HMMActual","","","","","","null","","","","Images/WhiteBeadChoiceCorrect.png","","null"
"image-button-response","44","327732","0.0-9.0-0.6","18","Low_HMMActual","","","","","","997.6999999955297","","","","Images/NewTrialWC.png","","2"
"image-button-response","45","328039","0.0-9.0-1.6","18","Low_HMMActual","","","","","","null","","","","Images/WhiteBeadChoice.png","","null"
"image-button-response","46","328543","0.0-9.0-2.6","18","Low_HMMActual","","","","","","null","","","","Images/WhiteBeadChoiceWrong.png","","null"
"image-button-response","47","329931","0.0-9.0-0.7","18","Low_HMMActual","","","","","","1385.0999999940395","","","","Images/NewTrialBC.png","","2"
"image-button-response","48","330237","0.0-9.0-1.7","18","Low_HMMActual","","","","","","null","","","","Images/WhiteBeadChoice.png","","null"
"image-button-response","49","330740","0.0-9.0-2.7","18","Low_HMMActual","","","","","","null","","","","Images/WhiteBeadChoiceCorrect.png","","null"
"image-button-response","50","332312","0.0-9.0-0.8","18","Low_HMMActual","","","","","","1567.7999999970198","","","","Images/NewTrialWC.png","","2"
"image-button-response","51","332618","0.0-9.0-1.8","18","Low_HMMActual","","","","","","null","","","","Images/WhiteBeadChoice.png","","null"
"image-button-response","52","333122","0.0-9.0-2.8","18","Low_HMMActual","","","","","","null","","","","Images/WhiteBeadChoiceCorrect.png","","null"
"image-button-response","53","334221","0.0-9.0-0.9","18","Low_HMMActual","","","","","","1095.6000000014901","","","","Images/NewTrialWC.png","","2"
"image-button-response","54","334536","0.0-9.0-1.9","18","Low_HMMActual","","","","","","null","","","","Images/WhiteBeadChoice.png","","null"
"image-button-response","55","335039","0.0-9.0-2.9","18","Low_HMMActual","","","","","","null","","","","Images/WhiteBeadChoiceWrong.png","","null"
"html-keyboard-response","56","339109","0.0-10.0","18","Low_HMMActual","","","","","","4066.1999999955297","","","",""," ",""
"image-keyboard-response","57","344749","0.0-11.0","18","Low_HMMActual","","","","","","5638.10000000149","","","","tutorial/tutorial20.png"," ",""
"html-keyboard-response","58","356474","0.0-12.0","19","Low_HMMActual","","","","","","11719.19999999553","","","","<div class=""container"" style=""height:800px;width:800px;display:flex;flex-direction:column;justify-content:center;align-items:center;text-align:center;font-weight:normal;font-family:Arial;font-size:20px""><p>Loading episode&hellip;</p><div>"," ",""
"image-button-response","59","358571","0.0-13.0-0.0","19","Low_HMMActual","","","","","","2094.39999999851","","","","Images/NoChoice.png","","3"
"image-button-response","60","358873","0.0-13.0-1.0","19","Low_HMMActual","","","","","","null","","","","Images/WhiteBeadChoice.png","","null"
"image-button-response","61","359376","0.0-13.0-2.0","19","Low_HMMActual","","","","","","null","","","","Images/WhiteBeadChoiceCorrect.png","","null"
"image-button-response","62","360665","0.0-13.0-0.1","19","Low_HMMActual","","","","","","1286.3999999985099","","","","Images/NewTrialWC.png","","2"
"image-button-response","63","360971","0.0-13.0-1.1","19","Low_HMMActual","","","","","","null","","","","Images/WhiteBeadChoice.png","","null"
"image-button-response","64","361475","0.0-13.0-2.1","19","Low_HMMActual","","","","","","null","","","","Images/WhiteBeadChoiceCorrect.png","","null"
"image-button-response","65","362272","0.0-13.0-0.2","19","Low_HMMActual","","","","","","792.8000000044703","","","","Images/NewTrialWC.png","","2"
"image-button-response","66","362578","0.0-13.0-1.2","19","Low_HMMActual","","","","","","null","","","","Images/WhiteBeadChoice.png","","null"
"image-button-response","67","363081","0.0-13.0-2.2","19","Low_HMMActual","","","","","","null","","","","Images/WhiteBeadChoiceCorrect.png","","null"
"image-button-response","68","363814","0.0-13.0-0.3","19","Low_HMMActual","","","","","","728.6000000014901","","","","Images/NewTrialWC.png","","2"
"image-button-response","69","364120","0.0-13.0-1.3","19","Low_HMMActual","","","","","","null","","","","Images/WhiteBeadChoice.png","","null"
"image-button-response","70","364624","0.0-13.0-2.3","19","Low_HMMActual","","","","","","null","","","","Images/WhiteBeadChoiceCorrect.png","","null"
"image-button-response","71","365332","0.0-13.0-0.4","19","Low_HMMActual","","","","","","704.1999999955297","","","","Images/NewTrialWC.png","","2"
"image-button-response","72","365636","0.0-13.0-1.4","19","Low_HMMActual","","","","","","null","","","","Images/WhiteBeadChoice.png","","null"
"image-button-response","73","366150","0.0-13.0-2.4","19","Low_HMMActual","","","","","","null","","","","Images/WhiteBeadChoiceCorrect.png","","null"
"image-button-response","74","366883","0.0-13.0-0.5","19","Low_HMMActual","","","","","","728","","","","Images/NewTrialWC.png","","2"
"image-button-response","75","367189","0.0-13.0-1.5","19","Low_HMMActual","","","","","","null","","","","Images/WhiteBeadChoice.png","","null"
"image-button-response","76","367693","0.0-13.0-2.5","19","Low_HMMActual","","","","","","null","","","","Images/WhiteBeadChoiceWrong.png","","null"
"image-button-response","77","368377","0.0-13.0-0.6","19","Low_HMMActual","","","","","","681.7999999970198","","","","Images/NewTrialBC.png","","2"
"image-button-response","78","368684","0.0-13.0-1.6","19","Low_HMMActual","","","","","","null","","","","Images/WhiteBeadChoice.png","","null"
"image-button-response","79","369188","0.0-13.0-2.6","19","Low_HMMActual","","","","","","null","","","","Images/WhiteBeadChoiceWrong.png","","null"
"image-button-response","80","371135","0.0-13.0-0.7","19","Low_HMMActual","","","","","","1943.6000000014901","","","","Images/NewTrialBC.png","","0"
"image-button-response","81","371441","0.0-13.0-1.7","19","Low_HMMActual","","","","","","null","","","","Images/BlackBeadChoice.png","","null"
"image-button-response","82","371949","0.0-13.0-2.7","19","Low_HMMActual","","","","","","null","","","","Images/BlackBeadChoiceCorrect.png","","null"
"image-button-response","83","373468","0.0-13.0-0.8","19","Low_HMMActual","","","","","","1515.2000000029802","","","","Images/NewTrialBC.png","","0"
"image-button-response","84","373771","0.0-13.0-1.8","19","Low_HMMActual","","","","","","null","","","","Images/BlackBeadChoice.png","","null"
"image-button-response","85","374278","0.0-13.0-2.8","19","Low_HMMActual","","","","","","null","","","","Images/BlackBeadChoiceCorrect.png","","null"
"image-button-response","86","375250","0.0-13.0-0.9","19","Low_HMMActual","","","","","","969","","","","Images/NewTrialBC.png","","0"
"image-button-response","87","375554","0.0-13.0-1.9","19","Low_HMMActual","","","","","","null","","","","Images/BlackBeadChoice.png","","null"
"image-button-response","88","376056","0.0-13.0-2.9","19","Low_HMMActual","","","","","","null","","","","Images/BlackBeadChoiceCorrect.png","","null"
"image-button-response","89","379326","0.0-13.0-0.10","19","Low_HMMActual","","","","","","3266.89999999851","","","","Images/NewTrialBC.png","","1"
"image-button-response","90","379632","0.0-13.0-1.10","19","Low_HMMActual","","","","","","null","","","","Images/BlackBeadChoice.png","","null"
"image-button-response","91","380135","0.0-13.0-2.10","19","Low_HMMActual","","","","","","null","","","","Images/BlackBeadChoiceWrong.png","","null"
"image-button-response","92","382211","0.0-13.0-0.11","19","Low_HMMActual","","","","","","2073.2999999970198","","","","Images/NewTrialWC.png","","2"
"image-button-response","93","382515","0.0-13.0-1.11","19","Low_HMMActual","","","","","","null","","","","Images/WhiteBeadChoice.png","","null"
"image-button-response","94","383020","0.0-13.0-2.11","19","Low_HMMActual","","","","","","null","","","","Images/WhiteBeadChoiceWrong.png","","null"
"image-button-response","95","385232","0.0-13.0-0.12","19","Low_HMMActual","","","","","","2208.2999999970198","","","","Images/NewTrialBC.png","","1"
"image-button-response","96","385536","0.0-13.0-1.12","19","Low_HMMActual","","","","","","null","","","","Images/BlackBeadChoice.png","","null"
"image-button-response","97","386039","0.0-13.0-2.12","19","Low_HMMActual","","","","","","null","","","","Images/BlackBeadChoiceWrong.png","","null"
"image-button-response","98","388842","0.0-13.0-0.13","19","Low_HMMActual","","","","","","2798.5","","","","Images/NewTrialWC.png","","3"
"image-button-response","99","389145","0.0-13.0-1.13","19","Low_HMMActual","","","","","","null","","","","Images/WhiteBeadChoice.png","","null"
"image-button-response","100","389648","0.0-13.0-2.13","19","Low_HMMActual","","","","","","null","","","","Images/WhiteBeadChoiceCorrect.png","","null"
"image-button-response","101","390505","0.0-13.0-0.14","19","Low_HMMActual","","","","","","853.5999999940395","","","","Images/NewTrialWC.png","","2"
"image-button-response","102","390811","0.0-13.0-1.14","19","Low_HMMActual","","","","","","null","","","","Images/WhiteBeadChoice.png","","null"
"image-button-response","103","391315","0.0-13.0-2.14","19","Low_HMMActual","","","","","","null","","","","Images/WhiteBeadChoiceCorrect.png","","null"
"image-button-response","104","393670","0.0-13.0-0.15","19","Low_HMMActual","","","","","","2350.5","","","","Images/NewTrialWC.png","","2"
"image-button-response","105","393976","0.0-13.0-1.15","19","Low_HMMActual","","","","","","null","","","","Images/WhiteBeadChoice.png","","null"
"image-button-response","106","394479","0.0-13.0-2.15","19","Low_HMMActual","","","","","","null","","","","Images/WhiteBeadChoiceCorrect.png","","null"
"image-button-response","107","395290","0.0-13.0-0.16","19","Low_HMMActual","","","","","","807","","","","Images/NewTrialWC.png","","2"
"image-button-response","108","395598","0.0-13.0-1.16","19","Low_HMMActual","","","","","","null","","","","Images/WhiteBeadChoice.png","","null"
"image-button-response","109","396101","0.0-13.0-2.16","19","Low_HMMActual","","","","","","null","","","","Images/WhiteBeadChoiceWrong.png","","null"
"image-button-response","110","397793","0.0-13.0-0.17","19","Low_HMMActual","","","","","","1688.7000000029802","","","","Images/NewTrialBC.png","","1"
"image-button-response","111","398100","0.0-13.0-1.17","19","Low_HMMActual","","","","","","null","","","","Images/BlackBeadChoice.png","","null"
"image-button-response","112","398602","0.0-13.0-2.17","19","Low_HMMActual","","","","","","null","","","","Images/BlackBeadChoiceCorrect.png","","null"
"image-button-response","113","399495","0.0-13.0-0.18","19","Low_HMMActual","","","","","","888.5","","","","Images/NewTrialBC.png","","0"
"image-button-response","114","399802","0.0-13.0-1.18","19","Low_HMMActual","","","","","","null","","","","Images/BlackBeadChoice.png","","null"
"image-button-response","115","400306","0.0-13.0-2.18","19","Low_HMMActual","","","","","","null","","","","Images/BlackBeadChoiceCorrect.png","","null"
"image-button-response","116","401046","0.0-13.0-0.19","19","Low_HMMActual","","","","","","735.8999999985099","","","","Images/NewTrialBC.png","","0"
"image-button-response","117","401349","0.0-13.0-1.19","19","Low_HMMActual","","","","","","null","","","","Images/BlackBeadChoice.png","","null"
"image-button-response","118","401852","0.0-13.0-2.19","19","Low_HMMActual","","","","","","null","","","","Images/BlackBeadChoiceCorrect.png","","null"
"image-button-response","119","403171","0.0-13.0-0.20","19","Low_HMMActual","","","","","","1315.8000000044703","","","","Images/NewTrialBC.png","","0"
"image-button-response","120","403478","0.0-13.0-1.20","19","Low_HMMActual","","","","","","null","","","","Images/BlackBeadChoice.png","","null"
"image-button-response","121","403987","0.0-13.0-2.20","19","Low_HMMActual","","","","","","null","","","","Images/BlackBeadChoiceCorrect.png","","null"
"image-button-response","122","404903","0.0-13.0-0.21","19","Low_HMMActual","","","","","","912.2999999970198","","","","Images/NewTrialBC.png","","0"
"image-button-response","123","405211","0.0-13.0-1.21","19","Low_HMMActual","","","","","","null","","","","Images/BlackBeadChoice.png","","null"
"image-button-response","124","405716","0.0-13.0-2.21","19","Low_HMMActual","","","","","","null","","","","Images/BlackBeadChoiceWrong.png","","null"
"image-button-response","125","407215","0.0-13.0-0.22","19","Low_HMMActual","","","","","","1496.1000000014901","","","","Images/NewTrialWC.png","","3"
"image-button-response","126","407517","0.0-13.0-1.22","19","Low_HMMActual","","","","","","null","","","","Images/WhiteBeadChoice.png","","null"
"image-button-response","127","408023","0.0-13.0-2.22","19","Low_HMMActual","","","","","","null","","","","Images/WhiteBeadChoiceWrong.png","","null"
"image-button-response","128","409611","0.0-13.0-0.23","19","Low_HMMActual","","","","","","1584.3999999985099","","","","Images/NewTrialBC.png","","0"
"image-button-response","129","409914","0.0-13.0-1.23","19","Low_HMMActual","","","","","","null","","","","Images/BlackBeadChoice.png","","null"
"image-button-response","130","410421","0.0-13.0-2.23","19","Low_HMMActual","","","","","","null","","","","Images/BlackBeadChoiceWrong.png","","null"
"image-button-response","131","412335","0.0-13.0-0.24","19","Low_HMMActual","","","","","","1910.1999999955297","","","","Images/NewTrialWC.png","","3"
"image-button-response","132","412643","0.0-13.0-1.24","19","Low_HMMActual","","","","","","null","","","","Images/WhiteBeadChoice.png","","null"
"image-button-response","133","413147","0.0-13.0-2.24","19","Low_HMMActual","","","","","","null","","","","Images/WhiteBeadChoiceWrong.png","","null"
"image-button-response","134","414374","0.0-13.0-0.25","19","Low_HMMActual","","","","","","1223.1000000014901","","","","Images/NewTrialBC.png","","1"
"image-button-response","135","414681","0.0-13.0-1.25","19","Low_HMMActual","","","","","","null","","","","Images/BlackBeadChoice.png","","null"
"image-button-response","136","415188","0.0-13.0-2.25","19","Low_HMMActual","","","","","","null","","","","Images/BlackBeadChoiceWrong.png","","null"
"image-button-response","137","416242","0.0-13.0-0.26","19","Low_HMMActual","","","","","","1051.5","","","","Images/NewTrialWC.png","","3"
"image-button-response","138","416545","0.0-13.0-1.26","19","Low_HMMActual","","","","","","null","","","","Images/WhiteBeadChoice.png","","null"
"image-button-response","139","417048","0.0-13.0-2.26","19","Low_HMMActual","","","","","","null","","","","Images/WhiteBeadChoiceWrong.png","","null"
"image-button-response","140","417994","0.0-13.0-0.27","19","Low_HMMActual","","","","","","943.1999999955297","","","","Images/NewTrialBC.png","","1"
"image-button-response","141","418300","0.0-13.0-1.27","19","Low_HMMActual","","","","","","null","","","","Images/BlackBeadChoice.png","","null"
"image-button-response","142","418802","0.0-13.0-2.27","19","Low_HMMActual","","","","","","null","","","","Images/BlackBeadChoiceCorrect.png","","null"
"image-button-response","143","419413","0.0-13.0-0.28","19","Low_HMMActual","","","","","","606.8999999985099","","","","Images/NewTrialBC.png","","0"
"image-button-response","144","419719","0.0-13.0-1.28","19","Low_HMMActual","","","","","","null","","","","Images/BlackBeadChoice.png","","null"
"image-button-response","145","420224","0.0-13.0-2.28","19","Low_HMMActual","","","","","","null","","","","Images/BlackBeadChoiceWrong.png","","null"
"image-button-response","146","424604","0.0-13.0-0.29","19","Low_HMMActual","","","","","","4376.80000000447","","","","Images/NewTrialWC.png","","3"
"image-button-response","147","424907","0.0-13.0-1.29","19","Low_HMMActual","","","","","","null","","","","Images/WhiteBeadChoice.png","","null"
"image-button-response","148","425411","0.0-13.0-2.29","19","Low_HMMActual","","","","","","null","","","","Images/WhiteBeadChoiceWrong.png","","null"
"image-button-response","149","426326","0.0-13.0-0.30","19","Low_HMMActual","","","","","","911.7000000029802","","","","Images/NewTrialBC.png","","1"
"image-button-response","150","426631","0.0-13.0-1.30","19","Low_HMMActual","","","","","","null","","","","Images/BlackBeadChoice.png","","null"
"image-button-response","151","427135","0.0-13.0-2.30","19","Low_HMMActual","","","","","","null","","","","Images/BlackBeadChoiceWrong.png","","null"
"image-button-response","152","428725","0.0-13.0-0.31","19","Low_HMMActual","","","","","","1585.2000000029802","","","","Images/NewTrialWC.png","","3"
"image-button-response","153","429028","0.0-13.0-1.31","19","Low_HMMActual","","","","","","null","","","","Images/WhiteBeadChoice.png","","null"
"image-button-response","154","429531","0.0-13.0-2.31","19","Low_HMMActual","","","","","","null","","","","Images/WhiteBeadChoiceCorrect.png","","null"
"image-button-response","155","429963","0.0-13.0-0.32","19","Low_HMMActual","","","","","","428.69999999552965","","","","Images/NewTrialWC.png","","2"
"image-button-response","156","430269","0.0-13.0-1.32","19","Low_HMMActual","","","","","","null","","","","Images/WhiteBeadChoice.png","","null"
"image-button-response","157","430773","0.0-13.0-2.32","19","Low_HMMActual","","","","","","null","","","","Images/WhiteBeadChoiceCorrect.png","","null"
"image-button-response","158","431209","0.0-13.0-0.33","19","Low_HMMActual","","","","","","432","","","","Images/NewTrialWC.png","","2"
"image-button-response","159","431520","0.0-13.0-1.33","19","Low_HMMActual","","","","","","null","","","","Images/WhiteBeadChoice.png","","null"
"image-button-response","160","432027","0.0-13.0-2.33","19","Low_HMMActual","","","","","","null","","","","Images/WhiteBeadChoiceCorrect.png","","null"
"image-button-response","161","432480","0.0-13.0-0.34","19","Low_HMMActual","","","","","","449.29999999701977","","","","Images/NewTrialWC.png","","2"
"image-button-response","162","432786","0.0-13.0-1.34","19","Low_HMMActual","","","","","","null","","","","Images/WhiteBeadChoice.png","","null"
"image-button-response","163","433289","0.0-13.0-2.34","19","Low_HMMActual","","","","","","null","","","","Images/WhiteBeadChoiceWrong.png","","null"
"image-button-response","164","434238","0.0-13.0-0.35","19","Low_HMMActual","","","","","","945.7000000029802","","","","Images/NewTrialBC.png","","1"
"image-button-response","165","434544","0.0-13.0-1.35","19","Low_HMMActual","","","","","","null","","","","Images/BlackBeadChoice.png","","null"
"image-button-response","166","435048","0.0-13.0-2.35","19","Low_HMMActual","","","","","","null","","","","Images/BlackBeadChoiceWrong.png","","null"
"image-button-response","167","437243","0.0-13.0-0.36","19","Low_HMMActual","","","","","","2191.5","","","","Images/NewTrialWC.png","","3"
"image-button-response","168","437549","0.0-13.0-1.36","19","Low_HMMActual","","","","","","null","","","","Images/WhiteBeadChoice.png","","null"
"image-button-response","169","438052","0.0-13.0-2.36","19","Low_HMMActual","","","","","","null","","","","Images/WhiteBeadChoiceWrong.png","","null"
"image-button-response","170","438641","0.0-13.0-0.37","19","Low_HMMActual","","","","","","584.1000000014901","","","","Images/NewTrialBC.png","","1"
"image-button-response","171","438945","0.0-13.0-1.37","19","Low_HMMActual","","","","","","null","","","","Images/BlackBeadChoice.png","","null"
"image-button-response","172","439448","0.0-13.0-2.37","19","Low_HMMActual","","","","","","null","","","","Images/BlackBeadChoiceCorrect.png","","null"
"image-button-response","173","440063","0.0-13.0-0.38","19","Low_HMMActual","","","","","","611.6000000014901","","","","Images/NewTrialBC.png","","0"
"image-button-response","174","440369","0.0-13.0-1.38","19","Low_HMMActual","","","","","","null","","","","Images/BlackBeadChoice.png","","null"
"image-button-response","175","440875","0.0-13.0-2.38","19","Low_HMMActual","","","","","","null","","","","Images/BlackBeadChoiceCorrect.png","","null"
"image-button-response","176","441190","0.0-13.0-0.39","19","Low_HMMActual","","","","","","304.5","","","","Images/NewTrialBC.png","","0"
"image-button-response","177","441494","0.0-13.0-1.39","19","Low_HMMActual","","","","","","null","","","","Images/BlackBeadChoice.png","","null"
"image-button-response","178","441998","0.0-13.0-2.39","19","Low_HMMActual","","","","","","null","","","","Images/BlackBeadChoiceWrong.png","","null"
"image-button-response","179","442748","0.0-13.0-0.40","19","Low_HMMActual","","","","","","747.3999999985099","","","","Images/NewTrialWC.png","","3"
"image-button-response","180","443054","0.0-13.0-1.40","19","Low_HMMActual","","","","","","null","","","","Images/WhiteBeadChoice.png","","null"
"image-button-response","181","443558","0.0-13.0-2.40","19","Low_HMMActual","","","","","","null","","","","Images/WhiteBeadChoiceCorrect.png","","null"
"image-button-response","182","443786","0.0-13.0-0.41","19","Low_HMMActual","","","","","","225.19999999552965","","","","Images/NewTrialWC.png","","2"
"image-button-response","183","444091","0.0-13.0-1.41","19","Low_HMMActual","","","","","","null","","","","Images/WhiteBeadChoice.png","","null"
"image-button-response","184","444596","0.0-13.0-2.41","19","Low_HMMActual","","","","","","null","","","","Images/WhiteBeadChoiceCorrect.png","","null"
"image-button-response","185","444865","0.0-13.0-0.42","19","Low_HMMActual","","","","","","264.29999999701977","","","","Images/NewTrialWC.png","","2"
"image-button-response","186","445170","0.0-13.0-1.42","19","Low_HMMActual","","","","","","null","","","","Images/WhiteBeadChoice.png","","null"
"image-button-response","187","445674","0.0-13.0-2.42","19","Low_HMMActual","","","","","","null","","","","Images/WhiteBeadChoiceWrong.png","","null"
"image-button-response","188","446412","0.0-13.0-0.43","19","Low_HMMActual","","","","","","734.6000000014901","","","","Images/NewTrialBC.png","","1"
"image-button-response","189","446714","0.0-13.0-1.43","19","Low_HMMActual","","","","","","null","","","","Images/BlackBeadChoice.png","","null"
"image-button-response","190","447218","0.0-13.0-2.43","19","Low_HMMActual","","","","","","null","","","","Images/BlackBeadChoiceWrong.png","","null"
"image-button-response","191","448054","0.0-13.0-0.44","19","Low_HMMActual","","","","","","832.3999999985099","","","","Images/NewTrialWC.png","","3"
"image-button-response","192","448360","0.0-13.0-1.44","19","Low_HMMActual","","","","","","null","","","","Images/WhiteBeadChoice.png","","null"
"image-button-response","193","448863","0.0-13.0-2.44","19","Low_HMMActual","","","","","","null","","","","Images/WhiteBeadChoiceWrong.png","","null"
"image-button-response","194","450139","0.0-13.0-0.45","19","Low_HMMActual","","","","","","1272.3999999985099","","","","Images/NewTrialBC.png","","1"
"image-button-response","195","450442","0.0-13.0-1.45","19","Low_HMMActual","","","","","","null","","","","Images/BlackBeadChoice.png","","null"
"image-button-response","196","450944","0.0-13.0-2.45","19","Low_HMMActual","","","","","","null","","","","Images/BlackBeadChoiceCorrect.png","","null"
"image-button-response","197","451529","0.0-13.0-0.46","19","Low_HMMActual","","","","","","582.2000000029802","","","","Images/NewTrialBC.png","","0"
"image-button-response","198","451833","0.0-13.0-1.46","19","Low_HMMActual","","","","","","null","","","","Images/BlackBeadChoice.png","","null"
"image-button-response","199","452336","0.0-13.0-2.46","19","Low_HMMActual","","","","","","null","","","","Images/BlackBeadChoiceWrong.png","","null"
"image-button-response","200","453375","0.0-13.0-0.47","19","Low_HMMActual","","","","","","1035.2999999970198","","","","Images/NewTrialWC.png","","3"
"image-button-response","201","453677","0.0-13.0-1.47","19","Low_HMMActual","","","","","","null","","","","Images/WhiteBeadChoice.png","","null"
"image-button-response","202","454179","0.0-13.0-2.47","19","Low_HMMActual","","","","","","null","","","","Images/WhiteBeadChoiceCorrect.png","","null"
"image-button-response","203","454506","0.0-13.0-0.48","19","Low_HMMActual","","","","","","322.8999999985099","","","","Images/NewTrialWC.png","","2"
"image-button-response","204","454808","0.0-13.0-1.48","19","Low_HMMActual","","","","","","null","","","","Images/WhiteBeadChoice.png","","null"
"image-button-response","205","455311","0.0-13.0-2.48","19","Low_HMMActual","","","","","","null","","","","Images/WhiteBeadChoiceCorrect.png","","null"
"image-button-response","206","455444","0.0-13.0-0.49","19","Low_HMMActual","","","","","","128.5","","","","Images/NewTrialWC.png","","2"
"image-button-response","207","455751","0.0-13.0-1.49","19","Low_HMMActual","","","","","","null","","","","Images/WhiteBeadChoice.png","","null"
"image-button-response","208","456254","0.0-13.0-2.49","19","Low_HMMActual","","","","","","null","","","","Images/WhiteBeadChoiceCorrect.png","","null"
"image-button-response","209","457802","0.0-13.0-0.50","19","Low_HMMActual","","","","","","1545","","","","Images/NewTrialWC.png","","2"
"image-button-response","210","458108","0.0-13.0-1.50","19","Low_HMMActual","","","","","","null","","","","Images/WhiteBeadChoice.png","","null"
"image-button-response","211","458611","0.0-13.0-2.50","19","Low_HMMActual","","","","","","null","","","","Images/WhiteBeadChoiceWrong.png","","null"
"image-button-response","212","459697","0.0-13.0-0.51","19","Low_HMMActual","","","","","","1078.7999999970198","","","","Images/NewTrialBC.png","","1"
"image-button-response","213","460002","0.0-13.0-1.51","19","Low_HMMActual","","","","","","null","","","","Images/BlackBeadChoice.png","","null"
"image-button-response","214","460510","0.0-13.0-2.51","19","Low_HMMActual","","","","","","null","","","","Images/BlackBeadChoiceCorrect.png","","null"
"image-button-response","215","461358","0.0-13.0-0.52","19","Low_HMMActual","","","","","","844.5","","","","Images/NewTrialBC.png","","0"
"image-button-response","216","461662","0.0-13.0-1.52","19","Low_HMMActual","","","","","","null","","","","Images/BlackBeadChoice.png","","null"
"image-button-response","217","462166","0.0-13.0-2.52","19","Low_HMMActual","","","","","","null","","","","Images/BlackBeadChoiceCorrect.png","","null"
"image-button-response","218","463555","0.0-13.0-0.53","19","Low_HMMActual","","","","","","1383.1999999955297","","","","Images/NewTrialBC.png","","0"
"image-button-response","219","463861","0.0-13.0-1.53","19","Low_HMMActual","","","","","","null","","","","Images/BlackBeadChoice.png","","null"
"image-button-response","220","464367","0.0-13.0-2.53","19","Low_HMMActual","","","","","","null","","","","Images/BlackBeadChoiceWrong.png","","null"
"image-button-response","221","465257","0.0-13.0-0.54","19","Low_HMMActual","","","","","","887.6000000014901","","","","Images/NewTrialWC.png","","3"
"image-button-response","222","465562","0.0-13.0-1.54","19","Low_HMMActual","","","","","","null","","","","Images/WhiteBeadChoice.png","","null"
"image-button-response","223","466067","0.0-13.0-2.54","19","Low_HMMActual","","","","","","null","","","","Images/WhiteBeadChoiceWrong.png","","null"
"image-button-response","224","467109","0.0-13.0-0.55","19","Low_HMMActual","","","","","","1038.8999999985099","","","","Images/NewTrialBC.png","","1"
"image-button-response","225","467411","0.0-13.0-1.55","19","Low_HMMActual","","","","","","null","","","","Images/BlackBeadChoice.png","","null"
"image-button-response","226","467919","0.0-13.0-2.55","19","Low_HMMActual","","","","","","null","","","","Images/BlackBeadChoiceCorrect.png","","null"
"image-button-response","227","468598","0.0-13.0-0.56","19","Low_HMMActual","","","","","","674.8000000044703","","","","Images/NewTrialBC.png","","0"
"image-button-response","228","468902","0.0-13.0-1.56","19","Low_HMMActual","","","","","","null","","","","Images/BlackBeadChoice.png","","null"
"image-button-response","229","469406","0.0-13.0-2.56","19","Low_HMMActual","","","","","","null","","","","Images/BlackBeadChoiceCorrect.png","","null"
"image-button-response","230","470763","0.0-13.0-0.57","19","Low_HMMActual","","","","","","1352.8999999985099","","","","Images/NewTrialBC.png","","0"
"image-button-response","231","471069","0.0-13.0-1.57","19","Low_HMMActual","","","","","","null","","","","Images/BlackBeadChoice.png","","null"
"image-button-response","232","471573","0.0-13.0-2.57","19","Low_HMMActual","","","","","","null","","","","Images/BlackBeadChoiceCorrect.png","","null"
"image-button-response","233","471810","0.0-13.0-0.58","19","Low_HMMActual","","","","","","233.60000000149012","","","","Images/NewTrialBC.png","","0"
"image-button-response","234","472115","0.0-13.0-1.58","19","Low_HMMActual","","","","","","null","","","","Images/BlackBeadChoice.png","","null"
"image-button-response","235","472620","0.0-13.0-2.58","19","Low_HMMActual","","","","","","null","","","","Images/BlackBeadChoiceCorrect.png","","null"
"image-button-response","236","473783","0.0-13.0-0.59","19","Low_HMMActual","","","","","","1159.6999999955297","","","","Images/NewTrialBC.png","","0"
"image-button-response","237","474090","0.0-13.0-1.59","19","Low_HMMActual","","","","","","null","","","","Images/BlackBeadChoice.png","","null"
"image-button-response","238","474593","0.0-13.0-2.59","19","Low_HMMActual","","","","","","null","","","","Images/BlackBeadChoiceWrong.png","","null"
"image-button-response","239","475534","0.0-13.0-0.60","19","Low_HMMActual","","","","","","934.8999999985099","","","","Images/NewTrialWC.png","","3"
"image-button-response","240","475841","0.0-13.0-1.60","19","Low_HMMActual","","","","","","null","","","","Images/WhiteBeadChoice.png","","null"
"image-button-response","241","476344","0.0-13.0-2.60","19","Low_HMMActual","","","","","","null","","","","Images/WhiteBeadChoiceCorrect.png","","null"
"image-button-response","242","476691","0.0-13.0-0.61","19","Low_HMMActual","","","","","","343.8999999985099","","","","Images/NewTrialWC.png","","2"
"image-button-response","243","476998","0.0-13.0-1.61","19","Low_HMMActual","","","","","","null","","","","Images/WhiteBeadChoice.png","","null"
"image-button-response","244","477502","0.0-13.0-2.61","19","Low_HMMActual","","","","","","null","","","","Images/WhiteBeadChoiceCorrect.png","","null"
"image-button-response","245","477706","0.0-13.0-0.62","19","Low_HMMActual","","","","","","199.89999999850988","","","","Images/NewTrialWC.png","","2"
"image-button-response","246","478009","0.0-13.0-1.62","19","Low_HMMActual","","","","","","null","","","","Images/WhiteBeadChoice.png","","null"
"image-button-response","247","478511","0.0-13.0-2.62","19","Low_HMMActual","","","","","","null","","","","Images/WhiteBeadChoiceWrong.png","","null"
"image-button-response","248","479304","0.0-13.0-0.63","19","Low_HMMActual","","","","","","790.2000000029802","","","","Images/NewTrialBC.png","","1"
"image-button-response","249","479611","0.0-13.0-1.63","19","Low_HMMActual","","","","","","null","","","","Images/BlackBeadChoice.png","","null"
"image-button-response","250","480114","0.0-13.0-2.63","19","Low_HMMActual","","","","","","null","","","","Images/BlackBeadChoiceCorrect.png","","null"
"image-button-response","251","480575","0.0-13.0-0.64","19","Low_HMMActual","","","","","","456.5","","","","Images/NewTrialBC.png","","0"
"image-button-response","252","480879","0.0-13.0-1.64","19","Low_HMMActual","","","","","","null","","","","Images/BlackBeadChoice.png","","null"
"image-button-response","253","481381","0.0-13.0-2.64","19","Low_HMMActual","","","","","","null","","","","Images/BlackBeadChoiceWrong.png","","null"
"image-button-response","254","482133","0.0-13.0-0.65","19","Low_HMMActual","","","","","","749.3999999985099","","","","Images/NewTrialWC.png","","3"
"image-button-response","255","482440","0.0-13.0-1.65","19","Low_HMMActual","","","","","","null","","","","Images/WhiteBeadChoice.png","","null"
"image-button-response","256","482945","0.0-13.0-2.65","19","Low_HMMActual","","","","","","null","","","","Images/WhiteBeadChoiceWrong.png","","null"
"image-button-response","257","483924","0.0-13.0-0.66","19","Low_HMMActual","","","","","","975.5","","","","Images/NewTrialBC.png","","1"
"image-button-response","258","484229","0.0-13.0-1.66","19","Low_HMMActual","","","","","","null","","","","Images/BlackBeadChoice.png","","null"
"image-button-response","259","484732","0.0-13.0-2.66","19","Low_HMMActual","","","","","","null","","","","Images/BlackBeadChoiceCorrect.png","","null"
"image-button-response","260","485042","0.0-13.0-0.67","19","Low_HMMActual","","","","","","306.6000000014901","","","","Images/NewTrialBC.png","","0"
"image-button-response","261","485349","0.0-13.0-1.67","19","Low_HMMActual","","","","","","null","","","","Images/BlackBeadChoice.png","","null"
"image-button-response","262","485851","0.0-13.0-2.67","19","Low_HMMActual","","","","","","null","","","","Images/BlackBeadChoiceCorrect.png","","null"
"image-button-response","263","486961","0.0-13.0-0.68","19","Low_HMMActual","","","","","","1106.8999999985099","","","","Images/NewTrialBC.png","","0"
"image-button-response","264","487266","0.0-13.0-1.68","19","Low_HMMActual","","","","","","null","","","","Images/BlackBeadChoice.png","","null"
"image-button-response","265","487769","0.0-13.0-2.68","19","Low_HMMActual","","","","","","null","","","","Images/BlackBeadChoiceWrong.png","","null"
"image-button-response","266","488395","0.0-13.0-0.69","19","Low_HMMActual","","","","","","620.3000000044703","","","","Images/NewTrialWC.png","","3"
"image-button-response","267","488697","0.0-13.0-1.69","19","Low_HMMActual","","","","","","null","","","","Images/WhiteBeadChoice.png","","null"
"image-button-response","268","489200","0.0-13.0-2.69","19","Low_HMMActual","","","","","","null","","","","Images/WhiteBeadChoiceWrong.png","","null"
"image-button-response","269","495450","0.0-13.0-0.70","19","Low_HMMActual","","","","","","6246.20000000298","","","","Images/NewTrialBC.png","","0"
"image-button-response","270","495754","0.0-13.0-1.70","19","Low_HMMActual","","","","","","null","","","","Images/BlackBeadChoice.png","","null"
"image-button-response","271","496259","0.0-13.0-2.70","19","Low_HMMActual","","","","","","null","","","","Images/BlackBeadChoiceWrong.png","","null"
"image-button-response","272","498254","0.0-13.0-0.71","19","Low_HMMActual","","","","","","1991.6999999955297","","","","Images/NewTrialWC.png","","3"
"image-button-response","273","498556","0.0-13.0-1.71","19","Low_HMMActual","","","","","","null","","","","Images/WhiteBeadChoice.png","","null"
"image-button-response","274","499064","0.0-13.0-2.71","19","Low_HMMActual","","","","","","null","","","","Images/WhiteBeadChoiceWrong.png","","null"
"image-button-response","275","499900","0.0-13.0-0.72","19","Low_HMMActual","","","","","","832.9000000059605","","","","Images/NewTrialBC.png","","0"
"image-button-response","276","500208","0.0-13.0-1.72","19","Low_HMMActual","","","","","","null","","","","Images/BlackBeadChoice.png","","null"
"image-button-response","277","500711","0.0-13.0-2.72","19","Low_HMMActual","","","","","","null","","","","Images/BlackBeadChoiceCorrect.png","","null"
"image-button-response","278","501019","0.0-13.0-0.73","19","Low_HMMActual","","","","","","304.80000000447035","","","","Images/NewTrialBC.png","","0"
"image-button-response","279","501326","0.0-13.0-1.73","19","Low_HMMActual","","","","","","null","","","","Images/BlackBeadChoice.png","","null"
"image-button-response","280","501831","0.0-13.0-2.73","19","Low_HMMActual","","","","","","null","","","","Images/BlackBeadChoiceCorrect.png","","null"
"image-button-response","281","503078","0.0-13.0-0.74","19","Low_HMMActual","","","","","","1243.5","","","","Images/NewTrialBC.png","","0"
"image-button-response","282","503385","0.0-13.0-1.74","19","Low_HMMActual","","","","","","null","","","","Images/BlackBeadChoice.png","","null"
"image-button-response","283","503890","0.0-13.0-2.74","19","Low_HMMActual","","","","","","null","","","","Images/BlackBeadChoiceCorrect.png","","null"
"image-button-response","284","504430","0.0-13.0-0.75","19","Low_HMMActual","","","","","","527.2000000029802","","","","Images/NewTrialBC.png","","0"
"image-button-response","285","504733","0.0-13.0-1.75","19","Low_HMMActual","","","","","","null","","","","Images/BlackBeadChoice.png","","null"
"image-button-response","286","505236","0.0-13.0-2.75","19","Low_HMMActual","","","","","","null","","","","Images/BlackBeadChoiceCorrect.png","","null"
"image-button-response","287","505718","0.0-13.0-0.76","19","Low_HMMActual","","","","","","478.80000000447035","","","","Images/NewTrialBC.png","","0"
"image-button-response","288","506024","0.0-13.0-1.76","19","Low_HMMActual","","","","","","null","","","","Images/BlackBeadChoice.png","","null"
"image-button-response","289","506528","0.0-13.0-2.76","19","Low_HMMActual","","","","","","null","","","","Images/BlackBeadChoiceCorrect.png","","null"
"image-button-response","290","507747","0.0-13.0-0.77","19","Low_HMMActual","","","","","","1214.6999999955297","","","","Images/NewTrialBC.png","","0"
"image-button-response","291","508054","0.0-13.0-1.77","19","Low_HMMActual","","","","","","null","","","","Images/BlackBeadChoice.png","","null"
"image-button-response","292","508556","0.0-13.0-2.77","19","Low_HMMActual","","","","","","null","","","","Images/BlackBeadChoiceWrong.png","","null"
"image-button-response","293","509529","0.0-13.0-0.78","19","Low_HMMActual","","","","","","970.5999999940395","","","","Images/NewTrialWC.png","","3"
"image-button-response","294","509833","0.0-13.0-1.78","19","Low_HMMActual","","","","","","null","","","","Images/WhiteBeadChoice.png","","null"
"image-button-response","295","510335","0.0-13.0-2.78","19","Low_HMMActual","","","","","","null","","","","Images/WhiteBeadChoiceWrong.png","","null"
"image-button-response","296","511343","0.0-13.0-0.79","19","Low_HMMActual","","","","","","1004.8999999985099","","","","Images/NewTrialBC.png","","0"
"image-button-response","297","511650","0.0-13.0-1.79","19","Low_HMMActual","","","","","","null","","","","Images/BlackBeadChoice.png","","null"
"image-button-response","298","512153","0.0-13.0-2.79","19","Low_HMMActual","","","","","","null","","","","Images/BlackBeadChoiceCorrect.png","","null"
"image-button-response","299","512366","0.0-13.0-0.80","19","Low_HMMActual","","","","","","208.79999999701977","","","","Images/NewTrialBC.png","","0"
"image-button-response","300","512669","0.0-13.0-1.80","19","Low_HMMActual","","","","","","null","","","","Images/BlackBeadChoice.png","","null"
"image-button-response","301","513173","0.0-13.0-2.80","19","Low_HMMActual","","","","","","null","","","","Images/BlackBeadChoiceWrong.png","","null"
"image-button-response","302","516777","0.0-13.0-0.81","19","Low_HMMActual","","","","","","3593.89999999851","","","","Images/NewTrialWC.png","","3"
"image-button-response","303","517081","0.0-13.0-1.81","19","Low_HMMActual","","","","","","null","","","","Images/WhiteBeadChoice.png","","null"
"image-button-response","304","517586","0.0-13.0-2.81","19","Low_HMMActual","","","","","","null","","","","Images/WhiteBeadChoiceCorrect.png","","null"
"image-button-response","305","518774","0.0-13.0-0.82","19","Low_HMMActual","","","","","","1184.1000000014901","","","","Images/NewTrialWC.png","","2"
"image-button-response","306","519078","0.0-13.0-1.82","19","Low_HMMActual","","","","","","null","","","","Images/WhiteBeadChoice.png","","null"
"image-button-response","307","519582","0.0-13.0-2.82","19","Low_HMMActual","","","","","","null","","","","Images/WhiteBeadChoiceWrong.png","","null"
"image-button-response","308","520181","0.0-13.0-0.83","19","Low_HMMActual","","","","","","594.6999999955297","","","","Images/NewTrialBC.png","","0"
"image-button-response","309","520487","0.0-13.0-1.83","19","Low_HMMActual","","","","","","null","","","","Images/BlackBeadChoice.png","","null"
"image-button-response","310","520994","0.0-13.0-2.83","19","Low_HMMActual","","","","","","null","","","","Images/BlackBeadChoiceCorrect.png","","null"
"image-button-response","311","522043","0.0-13.0-0.84","19","Low_HMMActual","","","","","","1045.6000000014901","","","","Images/NewTrialBC.png","","0"
"image-button-response","312","522348","0.0-13.0-1.84","19","Low_HMMActual","","","","","","null","","","","Images/BlackBeadChoice.png","","null"
"image-button-response","313","522852","0.0-13.0-2.84","19","Low_HMMActual","","","","","","null","","","","Images/BlackBeadChoiceCorrect.png","","null"
"image-button-response","314","523685","0.0-13.0-0.85","19","Low_HMMActual","","","","","","828.2000000029802","","","","Images/NewTrialBC.png","","0"
"image-button-response","315","523992","0.0-13.0-1.85","19","Low_HMMActual","","","","","","null","","","","Images/BlackBeadChoice.png","","null"
"image-button-response","316","524496","0.0-13.0-2.85","19","Low_HMMActual","","","","","","null","","","","Images/BlackBeadChoiceCorrect.png","","null"
"image-button-response","317","525422","0.0-13.0-0.86","19","Low_HMMActual","","","","","","920.3000000044703","","","","Images/NewTrialBC.png","","0"
"image-button-response","318","525729","0.0-13.0-1.86","19","Low_HMMActual","","","","","","null","","","","Images/BlackBeadChoice.png","","null"
"image-button-response","319","526231","0.0-13.0-2.86","19","Low_HMMActual","","","","","","null","","","","Images/BlackBeadChoiceWrong.png","","null"
"image-button-response","320","527004","0.0-13.0-0.87","19","Low_HMMActual","","","","","","768.2000000029802","","","","Images/NewTrialWC.png","","3"
"image-button-response","321","527309","0.0-13.0-1.87","19","Low_HMMActual","","","","","","null","","","","Images/WhiteBeadChoice.png","","null"
"image-button-response","322","527812","0.0-13.0-2.87","19","Low_HMMActual","","","","","","null","","","","Images/WhiteBeadChoiceCorrect.png","","null"
"image-button-response","323","527987","0.0-13.0-0.88","19","Low_HMMActual","","","","","","170","","","","Images/NewTrialWC.png","","2"
"image-button-response","324","528294","0.0-13.0-1.88","19","Low_HMMActual","","","","","","null","","","","Images/WhiteBeadChoice.png","","null"
"image-button-response","325","528799","0.0-13.0-2.88","19","Low_HMMActual","","","","","","null","","","","Images/WhiteBeadChoiceCorrect.png","","null"
"image-button-response","326","529602","0.0-13.0-0.89","19","Low_HMMActual","","","","","","799","","","","Images/NewTrialWC.png","","2"
"image-button-response","327","529906","0.0-13.0-1.89","19","Low_HMMActual","","","","","","null","","","","Images/WhiteBeadChoice.png","","null"
"image-button-response","328","530410","0.0-13.0-2.89","19","Low_HMMActual","","","","","","null","","","","Images/WhiteBeadChoiceWrong.png","","null"
"image-button-response","329","531703","0.0-13.0-0.90","19","Low_HMMActual","","","","","","1288.2999999970198","","","","Images/NewTrialBC.png","","1"
"image-button-response","330","532009","0.0-13.0-1.90","19","Low_HMMActual","","","","","","null","","","","Images/BlackBeadChoice.png","","null"
"image-button-response","331","532512","0.0-13.0-2.90","19","Low_HMMActual","","","","","","null","","","","Images/BlackBeadChoiceCorrect.png","","null"
"image-button-response","332","532901","0.0-13.0-0.91","19","Low_HMMActual","","","","","","384.3999999985099","","","","Images/NewTrialBC.png","","0"
"image-button-response","333","533205","0.0-13.0-1.91","19","Low_HMMActual","","","","","","null","","","","Images/BlackBeadChoice.png","","null"
"image-button-response","334","533710","0.0-13.0-2.91","19","Low_HMMActual","","","","","","null","","","","Images/BlackBeadChoiceCorrect.png","","null"
"image-button-response","335","534803","0.0-13.0-0.92","19","Low_HMMActual","","","","","","1088.7000000029802","","","","Images/NewTrialBC.png","","0"
"image-button-response","336","535113","0.0-13.0-1.92","19","Low_HMMActual","","","","","","null","","","","Images/BlackBeadChoice.png","","null"
"image-button-response","337","535616","0.0-13.0-2.92","19","Low_HMMActual","","","","","","null","","","","Images/BlackBeadChoiceWrong.png","","null"
"image-button-response","338","536825","0.0-13.0-0.93","19","Low_HMMActual","","","","","","1206.3000000044703","","","","Images/NewTrialWC.png","","3"
"image-button-response","339","537129","0.0-13.0-1.93","19","Low_HMMActual","","","","","","null","","","","Images/WhiteBeadChoice.png","","null"
"image-button-response","340","537634","0.0-13.0-2.93","19","Low_HMMActual","","","","","","null","","","","Images/WhiteBeadChoiceCorrect.png","","null"
"image-button-response","341","538039","0.0-13.0-0.94","19","Low_HMMActual","","","","","","400.5","","","","Images/NewTrialWC.png","","3"
"image-button-response","342","538343","0.0-13.0-1.94","19","Low_HMMActual","","","","","","null","","","","Images/WhiteBeadChoice.png","","null"
"image-button-response","343","538848","0.0-13.0-2.94","19","Low_HMMActual","","","","","","null","","","","Images/WhiteBeadChoiceWrong.png","","null"
"image-button-response","344","539854","0.0-13.0-0.95","19","Low_HMMActual","","","","","","1002.3999999985099","","","","Images/NewTrialBC.png","","0"
"image-button-response","345","540159","0.0-13.0-1.95","19","Low_HMMActual","","","","","","null","","","","Images/BlackBeadChoice.png","","null"
"image-button-response","346","540663","0.0-13.0-2.95","19","Low_HMMActual","","","","","","null","","","","Images/BlackBeadChoiceCorrect.png","","null"
"image-button-response","347","540828","0.0-13.0-0.96","19","Low_HMMActual","","","","","","152.79999999701977","","","","Images/NewTrialBC.png","","0"
"image-button-response","348","541134","0.0-13.0-1.96","19","Low_HMMActual","","","","","","null","","","","Images/BlackBeadChoice.png","","null"
"image-button-response","349","541638","0.0-13.0-2.96","19","Low_HMMActual","","","","","","null","","","","Images/BlackBeadChoiceCorrect.png","","null"
"image-button-response","350","542993","0.0-13.0-0.97","19","Low_HMMActual","","","","","","1350.8999999985099","","","","Images/NewTrialBC.png","","0"
"image-button-response","351","543300","0.0-13.0-1.97","19","Low_HMMActual","","","","","","null","","","","Images/BlackBeadChoice.png","","null"
"image-button-response","352","543804","0.0-13.0-2.97","19","Low_HMMActual","","","","","","null","","","","Images/BlackBeadChoiceCorrect.png","","null"
"image-button-response","353","544016","0.0-13.0-0.98","19","Low_HMMActual","","","","","","208.39999999850988","","","","Images/NewTrialBC.png","","0"
"image-button-response","354","544326","0.0-13.0-1.98","19","Low_HMMActual","","","","","","null","","","","Images/BlackBeadChoice.png","","null"
"image-button-response","355","544828","0.0-13.0-2.98","19","Low_HMMActual","","","","","","null","","","","Images/BlackBeadChoiceWrong.png","","null"
"image-button-response","356","546389","0.0-13.0-0.99","19","Low_HMMActual","","","","","","1558.7000000029802","","","","Images/NewTrialWC.png","","3"
"image-button-response","357","546695","0.0-13.0-1.99","19","Low_HMMActual","","","","","","null","","","","Images/WhiteBeadChoice.png","","null"
"image-button-response","358","547199","0.0-13.0-2.99","19","Low_HMMActual","","","","","","null","","","","Images/WhiteBeadChoiceWrong.png","","null"
"image-button-response","359","548435","0.0-13.0-0.100","19","Low_HMMActual","","","","","","1231.3999999985099","","","","Images/NewTrialBC.png","","0"
"image-button-response","360","548741","0.0-13.0-1.100","19","Low_HMMActual","","","","","","null","","","","Images/BlackBeadChoice.png","","null"
"image-button-response","361","549245","0.0-13.0-2.100","19","Low_HMMActual","","","","","","null","","","","Images/BlackBeadChoiceWrong.png","","null"
"image-button-response","362","550111","0.0-13.0-0.101","19","Low_HMMActual","","","","","","862.4000000059605","","","","Images/NewTrialWC.png","","2"
"image-button-response","363","550419","0.0-13.0-1.101","19","Low_HMMActual","","","","","","null","","","","Images/WhiteBeadChoice.png","","null"
"image-button-response","364","550922","0.0-13.0-2.101","19","Low_HMMActual","","","","","","null","","","","Images/WhiteBeadChoiceCorrect.png","","null"
"image-button-response","365","551094","0.0-13.0-0.102","19","Low_HMMActual","","","","","","168.69999999552965","","","","Images/NewTrialWC.png","","2"
"image-button-response","366","551400","0.0-13.0-1.102","19","Low_HMMActual","","","","","","null","","","","Images/WhiteBeadChoice.png","","null"
"image-button-response","367","551910","0.0-13.0-2.102","19","Low_HMMActual","","","","","","null","","","","Images/WhiteBeadChoiceCorrect.png","","null"
"image-button-response","368","552558","0.0-13.0-0.103","19","Low_HMMActual","","","","","","642.7999999970198","","","","Images/NewTrialWC.png","","2"
"image-button-response","369","552863","0.0-13.0-1.103","19","Low_HMMActual","","","","","","null","","","","Images/WhiteBeadChoice.png","","null"
"image-button-response","370","553367","0.0-13.0-2.103","19","Low_HMMActual","","","","","","null","","","","Images/WhiteBeadChoiceWrong.png","","null"
"image-button-response","371","554499","0.0-13.0-0.104","19","Low_HMMActual","","","","","","1128.4000000059605","","","","Images/NewTrialBC.png","","1"
"image-button-response","372","554801","0.0-13.0-1.104","19","Low_HMMActual","","","","","","null","","","","Images/BlackBeadChoice.png","","null"
"image-button-response","373","555307","0.0-13.0-2.104","19","Low_HMMActual","","","","","","null","","","","Images/BlackBeadChoiceWrong.png","","null"
"image-button-response","374","555952","0.0-13.0-0.105","19","Low_HMMActual","","","","","","641.8999999985099","","","","Images/NewTrialWC.png","","2"
"image-button-response","375","556259","0.0-13.0-1.105","19","Low_HMMActual","","","","","","null","","","","Images/WhiteBeadChoice.png","","null"
"image-button-response","376","556766","0.0-13.0-2.105","19","Low_HMMActual","","","","","","null","","","","Images/WhiteBeadChoiceCorrect.png","","null"
"image-button-response","377","556969","0.0-13.0-0.106","19","Low_HMMActual","","","","","","199.10000000149012","","","","Images/NewTrialWC.png","","2"
"image-button-response","378","557272","0.0-13.0-1.106","19","Low_HMMActual","","","","","","null","","","","Images/WhiteBeadChoice.png","","null"
"image-button-response","379","557776","0.0-13.0-2.106","19","Low_HMMActual","","","","","","null","","","","Images/WhiteBeadChoiceCorrect.png","","null"
"image-button-response","380","558095","0.0-13.0-0.107","19","Low_HMMActual","","","","","","313.19999999552965","","","","Images/NewTrialWC.png","","2"
"image-button-response","381","558400","0.0-13.0-1.107","19","Low_HMMActual","","","","","","null","","","","Images/WhiteBeadChoice.png","","null"
"image-button-response","382","558905","0.0-13.0-2.107","19","Low_HMMActual","","","","","","null","","","","Images/WhiteBeadChoiceCorrect.png","","null"
"image-button-response","383","560428","0.0-13.0-0.108","19","Low_HMMActual","","","","","","1519.1000000014901","","","","Images/NewTrialWC.png","","2"
"image-button-response","384","560732","0.0-13.0-1.108","19","Low_HMMActual","","","","","","null","","","","Images/WhiteBeadChoice.png","","null"
"image-button-response","385","561236","0.0-13.0-2.108","19","Low_HMMActual","","","","","","null","","","","Images/WhiteBeadChoiceCorrect.png","","null"
"image-button-response","386","562577","0.0-13.0-0.109","19","Low_HMMActual","","","","","","1336.6000000014901","","","","Images/NewTrialWC.png","","2"
"image-button-response","387","562883","0.0-13.0-1.109","19","Low_HMMActual","","","","","","null","","","","Images/WhiteBeadChoice.png","","null"
"image-button-response","388","563392","0.0-13.0-2.109","19","Low_HMMActual","","","","","","null","","","","Images/WhiteBeadChoiceCorrect.png","","null"
"image-button-response","389","563743","0.0-13.0-0.110","19","Low_HMMActual","","","","","","346.8999999985099","","","","Images/NewTrialWC.png","","2"
"image-button-response","390","564050","0.0-13.0-1.110","19","Low_HMMActual","","","","","","null","","","","Images/WhiteBeadChoice.png","","null"
"image-button-response","391","564553","0.0-13.0-2.110","19","Low_HMMActual","","","","","","null","","","","Images/WhiteBeadChoiceWrong.png","","null"
"image-button-response","392","565885","0.0-13.0-0.111","19","Low_HMMActual","","","","","","1327.1000000014901","","","","Images/NewTrialBC.png","","3"
"image-button-response","393","566191","0.0-13.0-1.111","19","Low_HMMActual","","","","","","null","","","","Images/WhiteBeadChoice.png","","null"
"image-button-response","394","566697","0.0-13.0-2.111","19","Low_HMMActual","","","","","","null","","","","Images/WhiteBeadChoiceWrong.png","","null"
"image-button-response","395","567482","0.0-13.0-0.112","19","Low_HMMActual","","","","","","783.3999999985099","","","","Images/NewTrialBC.png","","0"
"image-button-response","396","567788","0.0-13.0-1.112","19","Low_HMMActual","","","","","","null","","","","Images/BlackBeadChoice.png","","null"
"image-button-response","397","568296","0.0-13.0-2.112","19","Low_HMMActual","","","","","","null","","","","Images/BlackBeadChoiceWrong.png","","null"
"image-button-response","398","569408","0.0-13.0-0.113","19","Low_HMMActual","","","","","","1108.6000000014901","","","","Images/NewTrialWC.png","","3"
"image-button-response","399","569714","0.0-13.0-1.113","19","Low_HMMActual","","","","","","null","","","","Images/WhiteBeadChoice.png","","null"
"image-button-response","400","570220","0.0-13.0-2.113","19","Low_HMMActual","","","","","","null","","","","Images/WhiteBeadChoiceCorrect.png","","null"
"image-button-response","401","570799","0.0-13.0-0.114","19","Low_HMMActual","","","","","","575.3000000044703","","","","Images/NewTrialWC.png","","2"
"image-button-response","402","571105","0.0-13.0-1.114","19","Low_HMMActual","","","","","","null","","","","Images/WhiteBeadChoice.png","","null"
"image-button-response","403","571608","0.0-13.0-2.114","19","Low_HMMActual","","","","","","null","","","","Images/WhiteBeadChoiceCorrect.png","","null"
"image-button-response","404","572244","0.0-13.0-0.115","19","Low_HMMActual","","","","","","631.6000000014901","","","","Images/NewTrialWC.png","","2"
"image-button-response","405","572548","0.0-13.0-1.115","19","Low_HMMActual","","","","","","null","","","","Images/WhiteBeadChoice.png","","null"
"image-button-response","406","573063","0.0-13.0-2.115","19","Low_HMMActual","","","","","","null","","","","Images/WhiteBeadChoiceCorrect.png","","null"
"image-button-response","407","574082","0.0-13.0-0.116","19","Low_HMMActual","","","","","","1014.5","","","","Images/NewTrialWC.png","","2"
"image-button-response","408","574391","0.0-13.0-1.116","19","Low_HMMActual","","","","","","null","","","","Images/WhiteBeadChoice.png","","null"
"image-button-response","409","574895","0.0-13.0-2.116","19","Low_HMMActual","","","","","","null","","","","Images/WhiteBeadChoiceWrong.png","","null"
"image-button-response","410","579244","0.0-13.0-0.117","19","Low_HMMActual","","","","","","4344.5","","","","Images/NewTrialBC.png","","0"
"image-button-response","411","579547","0.0-13.0-1.117","19","Low_HMMActual","","","","","","null","","","","Images/BlackBeadChoice.png","","null"
"image-button-response","412","580057","0.0-13.0-2.117","19","Low_HMMActual","","","","","","null","","","","Images/BlackBeadChoiceCorrect.png","","null"
"image-button-response","413","582627","0.0-13.0-0.118","19","Low_HMMActual","","","","","","2567.0999999940395","","","","Images/NewTrialBC.png","","0"
"image-button-response","414","582934","0.0-13.0-1.118","19","Low_HMMActual","","","","","","null","","","","Images/BlackBeadChoice.png","","null"
"image-button-response","415","583441","0.0-13.0-2.118","19","Low_HMMActual","","","","","","null","","","","Images/BlackBeadChoiceCorrect.png","","null"
"image-button-response","416","584176","0.0-13.0-0.119","19","Low_HMMActual","","","","","","730.6999999955297","","","","Images/NewTrialBC.png","","0"
"image-button-response","417","584480","0.0-13.0-1.119","19","Low_HMMActual","","","","","","null","","","","Images/BlackBeadChoice.png","","null"
"image-button-response","418","584983","0.0-13.0-2.119","19","Low_HMMActual","","","","","","null","","","","Images/BlackBeadChoiceCorrect.png","","null"
"image-button-response","419","585498","0.0-13.0-0.120","19","Low_HMMActual","","","","","","510.3999999985099","","","","Images/NewTrialBC.png","","0"
"image-button-response","420","585799","0.0-13.0-1.120","19","Low_HMMActual","","","","","","null","","","","Images/BlackBeadChoice.png","","null"
"image-button-response","421","586302","0.0-13.0-2.120","19","Low_HMMActual","","","","","","null","","","","Images/BlackBeadChoiceWrong.png","","null"
"image-button-response","422","587339","0.0-13.0-0.121","19","Low_HMMActual","","","","","","1035.2000000029802","","","","Images/NewTrialWC.png","","3"
"image-button-response","423","587643","0.0-13.0-1.121","19","Low_HMMActual","","","","","","null","","","","Images/WhiteBeadChoice.png","","null"
"image-button-response","424","588145","0.0-13.0-2.121","19","Low_HMMActual","","","","","","null","","","","Images/WhiteBeadChoiceCorrect.png","","null"
"image-button-response","425","588627","0.0-13.0-0.122","19","Low_HMMActual","","","","","","477.3999999985099","","","","Images/NewTrialWC.png","","2"
"image-button-response","426","588934","0.0-13.0-1.122","19","Low_HMMActual","","","","","","null","","","","Images/WhiteBeadChoice.png","","null"
"image-button-response","427","589438","0.0-13.0-2.122","19","Low_HMMActual","","","","","","495.69999999552965","","","","Images/WhiteBeadChoiceCorrect.png","","2"
"image-button-response","428","590359","0.0-13.0-0.123","19","Low_HMMActual","","","","","","916.7999999970198","","","","Images/NewTrialWC.png","","2"
"image-button-response","429","590661","0.0-13.0-1.123","19","Low_HMMActual","","","","","","null","","","","Images/WhiteBeadChoice.png","","null"
"image-button-response","430","591164","0.0-13.0-2.123","19","Low_HMMActual","","","","","","null","","","","Images/WhiteBeadChoiceWrong.png","","null"
"image-button-response","431","592028","0.0-13.0-0.124","19","Low_HMMActual","","","","","","860.3000000044703","","","","Images/NewTrialBC.png","","0"
"image-button-response","432","592330","0.0-13.0-1.124","19","Low_HMMActual","","","","","","null","","","","Images/BlackBeadChoice.png","","null"
"image-button-response","433","592834","0.0-13.0-2.124","19","Low_HMMActual","","","","","","null","","","","Images/BlackBeadChoiceCorrect.png","","null"
"image-button-response","434","593017","0.0-13.0-0.125","19","Low_HMMActual","","","","","","179.79999999701977","","","","Images/NewTrialBC.png","","0"
"image-button-response","435","593320","0.0-13.0-1.125","19","Low_HMMActual","","","","","","null","","","","Images/BlackBeadChoice.png","","null"
"image-button-response","436","593823","0.0-13.0-2.125","19","Low_HMMActual","","","","","","null","","","","Images/BlackBeadChoiceWrong.png","","null"
"image-button-response","437","594673","0.0-13.0-0.126","19","Low_HMMActual","","","","","","843.5","","","","Images/NewTrialWC.png","","2"
"image-button-response","438","594979","0.0-13.0-1.126","19","Low_HMMActual","","","","","","null","","","","Images/WhiteBeadChoice.png","","null"
"image-button-response","439","595481","0.0-13.0-2.126","19","Low_HMMActual","","","","","","null","","","","Images/WhiteBeadChoiceWrong.png","","null"
"image-button-response","440","596097","0.0-13.0-0.127","19","Low_HMMActual","","","","","","613.7999999970198","","","","Images/NewTrialBC.png","","0"
"image-button-response","441","596399","0.0-13.0-1.127","19","Low_HMMActual","","","","","","null","","","","Images/BlackBeadChoice.png","","null"
"image-button-response","442","596903","0.0-13.0-2.127","19","Low_HMMActual","","","","","","null","","","","Images/BlackBeadChoiceCorrect.png","","null"
"image-button-response","443","597684","0.0-13.0-0.128","19","Low_HMMActual","","","","","","775.2000000029802","","","","Images/NewTrialBC.png","","0"
"image-button-response","444","597990","0.0-13.0-1.128","19","Low_HMMActual","","","","","","null","","","","Images/BlackBeadChoice.png","","null"
"image-button-response","445","598493","0.0-13.0-2.128","19","Low_HMMActual","","","","","","493.3999999985099","","","","Images/BlackBeadChoiceCorrect.png","","0"
"image-button-response","446","599188","0.0-13.0-0.129","19","Low_HMMActual","","","","","","691.7999999970198","","","","Images/NewTrialBC.png","","0"
"image-button-response","447","599496","0.0-13.0-1.129","19","Low_HMMActual","","","","","","null","","","","Images/BlackBeadChoice.png","","null"
"image-button-response","448","599999","0.0-13.0-2.129","19","Low_HMMActual","","","","","","null","","","","Images/BlackBeadChoiceCorrect.png","","null"
"image-button-response","449","600622","0.0-13.0-0.130","19","Low_HMMActual","","","","","","620.8999999985099","","","","Images/NewTrialBC.png","","0"
"image-button-response","450","600926","0.0-13.0-1.130","19","Low_HMMActual","","","","","","null","","","","Images/BlackBeadChoice.png","","null"
"image-button-response","451","601429","0.0-13.0-2.130","19","Low_HMMActual","","","","","","null","","","","Images/BlackBeadChoiceCorrect.png","","null"
"image-button-response","452","601658","0.0-13.0-0.131","19","Low_HMMActual","","","","","","225.60000000149012","","","","Images/NewTrialBC.png","","0"
"image-button-response","453","601967","0.0-13.0-1.131","19","Low_HMMActual","","","","","","null","","","","Images/BlackBeadChoice.png","","null"
"image-button-response","454","602476","0.0-13.0-2.131","19","Low_HMMActual","","","","","","null","","","","Images/BlackBeadChoiceCorrect.png","","null"
"image-button-response","455","604788","0.0-13.0-0.132","19","Low_HMMActual","","","","","","2294.6999999955297","","","","Images/NewTrialBC.png","","0"
"image-button-response","456","605095","0.0-13.0-1.132","19","Low_HMMActual","","","","","","null","","","","Images/BlackBeadChoice.png","","null"
"image-button-response","457","605601","0.0-13.0-2.132","19","Low_HMMActual","","","","","","null","","","","Images/BlackBeadChoiceCorrect.png","","null"
"image-button-response","458","606212","0.0-13.0-0.133","19","Low_HMMActual","","","","","","607.3000000044703","","","","Images/NewTrialBC.png","","0"
"image-button-response","459","606519","0.0-13.0-1.133","19","Low_HMMActual","","","","","","null","","","","Images/BlackBeadChoice.png","","null"
"image-button-response","460","607023","0.0-13.0-2.133","19","Low_HMMActual","","","","","","null","","","","Images/BlackBeadChoiceCorrect.png","","null"
"image-button-response","461","607664","0.0-13.0-0.134","19","Low_HMMActual","","","","","","636.6999999955297","","","","Images/NewTrialBC.png","","0"
"image-button-response","462","607966","0.0-13.0-1.134","19","Low_HMMActual","","","","","","null","","","","Images/BlackBeadChoice.png","","null"
"image-button-response","463","608471","0.0-13.0-2.134","19","Low_HMMActual","","","","","","null","","","","Images/BlackBeadChoiceCorrect.png","","null"
"image-button-response","464","608953","0.0-13.0-0.135","19","Low_HMMActual","","","","","","478.90000000596046","","","","Images/NewTrialBC.png","","0"
"image-button-response","465","609259","0.0-13.0-1.135","19","Low_HMMActual","","","","","","null","","","","Images/BlackBeadChoice.png","","null"
"image-button-response","466","609762","0.0-13.0-2.135","19","Low_HMMActual","","","","","","null","","","","Images/BlackBeadChoiceWrong.png","","null"
"image-button-response","467","610734","0.0-13.0-0.136","19","Low_HMMActual","","","","","","968.3999999985099","","","","Images/NewTrialWC.png","","3"
"image-button-response","468","611038","0.0-13.0-1.136","19","Low_HMMActual","","","","","","null","","","","Images/WhiteBeadChoice.png","","null"
"image-button-response","469","611540","0.0-13.0-2.136","19","Low_HMMActual","","","","","","null","","","","Images/WhiteBeadChoiceCorrect.png","","null"
"image-button-response","470","611717","0.0-13.0-0.137","19","Low_HMMActual","","","","","","174.5","","","","Images/NewTrialWC.png","","2"
"image-button-response","471","612024","0.0-13.0-1.137","19","Low_HMMActual","","","","","","null","","","","Images/WhiteBeadChoice.png","","null"
"image-button-response","472","612528","0.0-13.0-2.137","19","Low_HMMActual","","","","","","null","","","","Images/WhiteBeadChoiceCorrect.png","","null"
"image-button-response","473","613133","0.0-13.0-0.138","19","Low_HMMActual","","","","","","599.7000000029802","","","","Images/NewTrialWC.png","","2"
"image-button-response","474","613438","0.0-13.0-1.138","19","Low_HMMActual","","","","","","null","","","","Images/WhiteBeadChoice.png","","null"
"image-button-response","475","613946","0.0-13.0-2.138","19","Low_HMMActual","","","","","","493.1000000014901","","","","Images/WhiteBeadChoiceCorrect.png","","2"
"image-button-response","476","614932","0.0-13.0-0.139","19","Low_HMMActual","","","","","","983.2999999970198","","","","Images/NewTrialWC.png","","2"
"image-button-response","477","615236","0.0-13.0-1.139","19","Low_HMMActual","","","","","","null","","","","Images/WhiteBeadChoice.png","","null"
"image-button-response","478","615749","0.0-13.0-2.139","19","Low_HMMActual","","","","","","null","","","","Images/WhiteBeadChoiceCorrect.png","","null"
"image-button-response","479","616335","0.0-13.0-0.140","19","Low_HMMActual","","","","","","582.2999999970198","","","","Images/NewTrialWC.png","","2"
"image-button-response","480","616665","0.0-13.0-1.140","19","Low_HMMActual","","","","","","null","","","","Images/WhiteBeadChoice.png","","null"
"image-button-response","481","617173","0.0-13.0-2.140","19","Low_HMMActual","","","","","","null","","","","Images/WhiteBeadChoiceCorrect.png","","null"
"image-button-response","482","617665","0.0-13.0-0.141","19","Low_HMMActual","","","","","","487.3999999985099","","","","Images/NewTrialWC.png","","2"
"image-button-response","483","617968","0.0-13.0-1.141","19","Low_HMMActual","","","","","","null","","","","Images/WhiteBeadChoice.png","","null"
"image-button-response","484","618488","0.0-13.0-2.141","19","Low_HMMActual","","","","","","null","","","","Images/WhiteBeadChoiceCorrect.png","","null"
"image-button-response","485","618946","0.0-13.0-0.142","19","Low_HMMActual","","","","","","448.5","","","","Images/NewTrialWC.png","","2"
"image-button-response","486","619249","0.0-13.0-1.142","19","Low_HMMActual","","","","","","null","","","","Images/WhiteBeadChoice.png","","null"
"image-button-response","487","619752","0.0-13.0-2.142","19","Low_HMMActual","","","","","","null","","","","Images/WhiteBeadChoiceWrong.png","","null"
"image-button-response","488","620394","0.0-13.0-0.143","19","Low_HMMActual","","","","","","640.2999999970198","","","","Images/NewTrialBC.png","","0"
"image-button-response","489","620699","0.0-13.0-1.143","19","Low_HMMActual","","","","","","null","","","","Images/BlackBeadChoice.png","","null"
"image-button-response","490","621212","0.0-13.0-2.143","19","Low_HMMActual","","","","","","null","","","","Images/BlackBeadChoiceWrong.png","","null"
"image-button-response","491","625530","0.0-13.0-0.144","19","Low_HMMActual","","","","","","4314.9000000059605","","","","Images/NewTrialWC.png","","2"
"image-button-response","492","625839","0.0-13.0-1.144","19","Low_HMMActual","","","","","","null","","","","Images/WhiteBeadChoice.png","","null"
"image-button-response","493","626342","0.0-13.0-2.144","19","Low_HMMActual","","","","","","null","","","","Images/WhiteBeadChoiceCorrect.png","","null"
"image-button-response","494","626667","0.0-13.0-0.145","19","Low_HMMActual","","","","","","321.30000000447035","","","","Images/NewTrialWC.png","","2"
"image-button-response","495","626973","0.0-13.0-1.145","19","Low_HMMActual","","","","","","null","","","","Images/WhiteBeadChoice.png","","null"
"image-button-response","496","627478","0.0-13.0-2.145","19","Low_HMMActual","","","","","","null","","","","Images/WhiteBeadChoiceCorrect.png","","null"
"image-button-response","497","627801","0.0-13.0-0.146","19","Low_HMMActual","","","","","","318.5","","","","Images/NewTrialWC.png","","2"
"image-button-response","498","628107","0.0-13.0-1.146","19","Low_HMMActual","","","","","","null","","","","Images/WhiteBeadChoice.png","","null"
"image-button-response","499","628611","0.0-13.0-2.146","19","Low_HMMActual","","","","","","null","","","","Images/WhiteBeadChoiceWrong.png","","null"
"image-button-response","500","629759","0.0-13.0-0.147","19","Low_HMMActual","","","","","","1143","","","","Images/NewTrialBC.png","","1"
"image-button-response","501","630062","0.0-13.0-1.147","19","Low_HMMActual","","","","","","null","","","","Images/BlackBeadChoice.png","","null"
"image-button-response","502","630564","0.0-13.0-2.147","19","Low_HMMActual","","","","","","null","","","","Images/BlackBeadChoiceWrong.png","","null"
"image-button-response","503","631908","0.0-13.0-0.148","19","Low_HMMActual","","","","","","1340.7999999970198","","","","Images/NewTrialWC.png","","2"
"image-button-response","504","632211","0.0-13.0-1.148","19","Low_HMMActual","","","","","","null","","","","Images/WhiteBeadChoice.png","","null"
"image-button-response","505","632719","0.0-13.0-2.148","19","Low_HMMActual","","","","","","null","","","","Images/WhiteBeadChoiceCorrect.png","","null"
"image-button-response","506","632915","0.0-13.0-0.149","19","Low_HMMActual","","","","","","191.80000000447035","","","","Images/NewTrialWC.png","","2"
"image-button-response","507","633219","0.0-13.0-1.149","19","Low_HMMActual","","","","","","null","","","","Images/WhiteBeadChoice.png","","null"
"image-button-response","508","633726","0.0-13.0-2.149","19","Low_HMMActual","","","","","","null","","","","Images/WhiteBeadChoiceWrong.png","","null"
"image-button-response","509","634089","0.0-13.0-0.150","19","Low_HMMActual","","","","","","359.40000000596046","","","","Images/NewTrialBC.png","","2"
"image-button-response","510","634395","0.0-13.0-1.150","19","Low_HMMActual","","","","","","null","","","","Images/WhiteBeadChoice.png","","null"
"image-button-response","511","634899","0.0-13.0-2.150","19","Low_HMMActual","","","","","","null","","","","Images/WhiteBeadChoiceCorrect.png","","null"
"image-button-response","512","635111","0.0-13.0-0.151","19","Low_HMMActual","","","","","","208","","","","Images/NewTrialWC.png","","2"
"image-button-response","513","635417","0.0-13.0-1.151","19","Low_HMMActual","","","","","","null","","","","Images/WhiteBeadChoice.png","","null"
"image-button-response","514","635926","0.0-13.0-2.151","19","Low_HMMActual","","","","","","null","","","","Images/WhiteBeadChoiceCorrect.png","","null"
"image-button-response","515","637029","0.0-13.0-0.152","19","Low_HMMActual","","","","","","1097.8999999985099","","","","Images/NewTrialWC.png","","2"
"image-button-response","516","637335","0.0-13.0-1.152","19","Low_HMMActual","","","","","","null","","","","Images/WhiteBeadChoice.png","","null"
"image-button-response","517","637841","0.0-13.0-2.152","19","Low_HMMActual","","","","","","465","","","","Images/WhiteBeadChoiceCorrect.png","","2"
"image-button-response","518","638873","0.0-13.0-0.153","19","Low_HMMActual","","","","","","1028.7000000029802","","","","Images/NewTrialWC.png","","2"
"image-button-response","519","639179","0.0-13.0-1.153","19","Low_HMMActual","","","","","","null","","","","Images/WhiteBeadChoice.png","","null"
"image-button-response","520","639687","0.0-13.0-2.153","19","Low_HMMActual","","","","","","null","","","","Images/WhiteBeadChoiceCorrect.png","","null"
"image-button-response","521","640360","0.0-13.0-0.154","19","Low_HMMActual","","","","","","669.5","","","","Images/NewTrialWC.png","","2"
"image-button-response","522","640667","0.0-13.0-1.154","19","Low_HMMActual","","","","","","null","","","","Images/WhiteBeadChoice.png","","null"
"image-button-response","523","641171","0.0-13.0-2.154","19","Low_HMMActual","","","","","","null","","","","Images/WhiteBeadChoiceCorrect.png","","null"
"image-button-response","524","641647","0.0-13.0-0.155","19","Low_HMMActual","","","","","","472.6000000014901","","","","Images/NewTrialWC.png","","2"
"image-button-response","525","641953","0.0-13.0-1.155","19","Low_HMMActual","","","","","","null","","","","Images/WhiteBeadChoice.png","","null"
"image-button-response","526","642457","0.0-13.0-2.155","19","Low_HMMActual","","","","","","null","","","","Images/WhiteBeadChoiceWrong.png","","null"
"image-button-response","527","643939","0.0-13.0-0.156","19","Low_HMMActual","","","","","","1479.6000000014901","","","","Images/NewTrialBC.png","","1"
"image-button-response","528","644247","0.0-13.0-1.156","19","Low_HMMActual","","","","","","null","","","","Images/BlackBeadChoice.png","","null"
"image-button-response","529","644750","0.0-13.0-2.156","19","Low_HMMActual","","","","","","null","","","","Images/BlackBeadChoiceCorrect.png","","null"
"image-button-response","530","646002","0.0-13.0-0.157","19","Low_HMMActual","","","","","","1245.6000000014901","","","","Images/NewTrialBC.png","","1"
"image-button-response","531","646307","0.0-13.0-1.157","19","Low_HMMActual","","","","","","null","","","","Images/BlackBeadChoice.png","","null"
"image-button-response","532","646811","0.0-13.0-2.157","19","Low_HMMActual","","","","","","null","","","","Images/BlackBeadChoiceCorrect.png","","null"
"image-button-response","533","647629","0.0-13.0-0.158","19","Low_HMMActual","","","","","","815.0999999940395","","","","Images/NewTrialBC.png","","0"
"image-button-response","534","647937","0.0-13.0-1.158","19","Low_HMMActual","","","","","","null","","","","Images/BlackBeadChoice.png","","null"
"image-button-response","535","648441","0.0-13.0-2.158","19","Low_HMMActual","","","","","","null","","","","Images/BlackBeadChoiceCorrect.png","","null"
"image-button-response","536","649190","0.0-13.0-0.159","19","Low_HMMActual","","","","","","744.4000000059605","","","","Images/NewTrialBC.png","","0"
"image-button-response","537","649496","0.0-13.0-1.159","19","Low_HMMActual","","","","","","null","","","","Images/BlackBeadChoice.png","","null"
"image-button-response","538","650003","0.0-13.0-2.159","19","Low_HMMActual","","","","","","null","","","","Images/BlackBeadChoiceCorrect.png","","null"
"image-button-response","539","650563","0.0-13.0-0.160","19","Low_HMMActual","","","","","","556.7999999970198","","","","Images/NewTrialBC.png","","0"
"image-button-response","540","650870","0.0-13.0-1.160","19","Low_HMMActual","","","","","","null","","","","Images/BlackBeadChoice.png","","null"
"image-button-response","541","651373","0.0-13.0-2.160","19","Low_HMMActual","","","","","","null","","","","Images/BlackBeadChoiceCorrect.png","","null"
"image-button-response","542","651890","0.0-13.0-0.161","19","Low_HMMActual","","","","","","513.5","","","","Images/NewTrialBC.png","","0"
"image-button-response","543","652196","0.0-13.0-1.161","19","Low_HMMActual","","","","","","null","","","","Images/BlackBeadChoice.png","","null"
"image-button-response","544","652700","0.0-13.0-2.161","19","Low_HMMActual","","","","","","null","","","","Images/BlackBeadChoiceWrong.png","","null"
"image-button-response","545","653552","0.0-13.0-0.162","19","Low_HMMActual","","","","","","849.2000000029802","","","","Images/NewTrialWC.png","","2"
"image-button-response","546","653858","0.0-13.0-1.162","19","Low_HMMActual","","","","","","null","","","","Images/WhiteBeadChoice.png","","null"
"image-button-response","547","654366","0.0-13.0-2.162","19","Low_HMMActual","","","","","","null","","","","Images/WhiteBeadChoiceCorrect.png","","null"
"image-button-response","548","655181","0.0-13.0-0.163","19","Low_HMMActual","","","","","","811.3999999985099","","","","Images/NewTrialWC.png","","2"
"image-button-response","549","655488","0.0-13.0-1.163","19","Low_HMMActual","","","","","","null","","","","Images/WhiteBeadChoice.png","","null"
"image-button-response","550","655997","0.0-13.0-2.163","19","Low_HMMActual","","","","","","null","","","","Images/WhiteBeadChoiceCorrect.png","","null"
"image-button-response","551","656571","0.0-13.0-0.164","19","Low_HMMActual","","","","","","569.3999999985099","","","","Images/NewTrialWC.png","","2"
"image-button-response","552","656878","0.0-13.0-1.164","19","Low_HMMActual","","","","","","null","","","","Images/WhiteBeadChoice.png","","null"
"image-button-response","553","657383","0.0-13.0-2.164","19","Low_HMMActual","","","","","","null","","","","Images/WhiteBeadChoiceCorrect.png","","null"
"image-button-response","554","657865","0.0-13.0-0.165","19","Low_HMMActual","","","","","","478.19999999552965","","","","Images/NewTrialWC.png","","2"
"image-button-response","555","658173","0.0-13.0-1.165","19","Low_HMMActual","","","","","","null","","","","Images/WhiteBeadChoice.png","","null"
"image-button-response","556","658678","0.0-13.0-2.165","19","Low_HMMActual","","","","","","null","","","","Images/WhiteBeadChoiceCorrect.png","","null"
"image-button-response","557","659104","0.0-13.0-0.166","19","Low_HMMActual","","","","","","422.70000000298023","","","","Images/NewTrialWC.png","","2"
"image-button-response","558","659407","0.0-13.0-1.166","19","Low_HMMActual","","","","","","null","","","","Images/WhiteBeadChoice.png","","null"
"image-button-response","559","659914","0.0-13.0-2.166","19","Low_HMMActual","","","","","","null","","","","Images/WhiteBeadChoiceCorrect.png","","null"
"image-button-response","560","660449","0.0-13.0-0.167","19","Low_HMMActual","","","","","","531.2000000029802","","","","Images/NewTrialWC.png","","2"
"image-button-response","561","660753","0.0-13.0-1.167","19","Low_HMMActual","","","","","","null","","","","Images/WhiteBeadChoice.png","","null"
"image-button-response","562","661258","0.0-13.0-2.167","19","Low_HMMActual","","","","","","null","","","","Images/WhiteBeadChoiceCorrect.png","","null"
"image-button-response","563","661749","0.0-13.0-0.168","19","Low_HMMActual","","","","","","486.69999999552965","","","","Images/NewTrialWC.png","","2"
"image-button-response","564","662056","0.0-13.0-1.168","19","Low_HMMActual","","","","","","null","","","","Images/WhiteBeadChoice.png","","null"
"image-button-response","565","662558","0.0-13.0-2.168","19","Low_HMMActual","","","","","","null","","","","Images/WhiteBeadChoiceWrong.png","","null"
"image-button-response","566","663346","0.0-13.0-0.169","19","Low_HMMActual","","","","","","784.7999999970198","","","","Images/NewTrialBC.png","","0"
"image-button-response","567","663653","0.0-13.0-1.169","19","Low_HMMActual","","","","","","null","","","","Images/BlackBeadChoice.png","","null"
"image-button-response","568","664157","0.0-13.0-2.169","19","Low_HMMActual","","","","","","null","","","","Images/BlackBeadChoiceWrong.png","","null"
"image-button-response","569","665999","0.0-13.0-0.170","19","Low_HMMActual","","","","","","1839.2000000029802","","","","Images/NewTrialWC.png","","3"
"image-button-response","570","666303","0.0-13.0-1.170","19","Low_HMMActual","","","","","","null","","","","Images/WhiteBeadChoice.png","","null"
"image-button-response","571","666809","0.0-13.0-2.170","19","Low_HMMActual","","","","","","null","","","","Images/WhiteBeadChoiceCorrect.png","","null"
"image-button-response","572","667373","0.0-13.0-0.171","19","Low_HMMActual","","","","","","560.1000000014901","","","","Images/NewTrialWC.png","","2"
"image-button-response","573","667680","0.0-13.0-1.171","19","Low_HMMActual","","","","","","null","","","","Images/WhiteBeadChoice.png","","null"
"image-button-response","574","668185","0.0-13.0-2.171","19","Low_HMMActual","","","","","","null","","","","Images/WhiteBeadChoiceCorrect.png","","null"
"image-button-response","575","669083","0.0-13.0-0.172","19","Low_HMMActual","","","","","","887.5","","","","Images/NewTrialWC.png","","2"
"image-button-response","576","669388","0.0-13.0-1.172","19","Low_HMMActual","","","","","","null","","","","Images/WhiteBeadChoice.png","","null"
"image-button-response","577","669893","0.0-13.0-2.172","19","Low_HMMActual","","","","","","null","","","","Images/WhiteBeadChoiceCorrect.png","","null"
"image-button-response","578","670218","0.0-13.0-0.173","19","Low_HMMActual","","","","","","320.70000000298023","","","","Images/NewTrialWC.png","","2"
"image-button-response","579","670524","0.0-13.0-1.173","19","Low_HMMActual","","","","","","null","","","","Images/WhiteBeadChoice.png","","null"
"image-button-response","580","671031","0.0-13.0-2.173","19","Low_HMMActual","","","","","","null","","","","Images/WhiteBeadChoiceCorrect.png","","null"
"image-button-response","581","671384","0.0-13.0-0.174","19","Low_HMMActual","","","","","","349.3999999985099","","","","Images/NewTrialWC.png","","2"
"image-button-response","582","671689","0.0-13.0-1.174","19","Low_HMMActual","","","","","","null","","","","Images/WhiteBeadChoice.png","","null"
"image-button-response","583","672195","0.0-13.0-2.174","19","Low_HMMActual","","","","","","null","","","","Images/WhiteBeadChoiceCorrect.png","","null"
"image-button-response","584","672519","0.0-13.0-0.175","19","Low_HMMActual","","","","","","319","","","","Images/NewTrialWC.png","","2"
"image-button-response","585","672825","0.0-13.0-1.175","19","Low_HMMActual","","","","","","null","","","","Images/WhiteBeadChoice.png","","null"
"image-button-response","586","673331","0.0-13.0-2.175","19","Low_HMMActual","","","","","","null","","","","Images/WhiteBeadChoiceWrong.png","","null"
"image-button-response","587","674388","0.0-13.0-0.176","19","Low_HMMActual","","","","","","1051.9000000059605","","","","Images/NewTrialBC.png","","0"
"image-button-response","588","674694","0.0-13.0-1.176","19","Low_HMMActual","","","","","","null","","","","Images/BlackBeadChoice.png","","null"
"image-button-response","589","675200","0.0-13.0-2.176","19","Low_HMMActual","","","","","","null","","","","Images/BlackBeadChoiceCorrect.png","","null"
"image-button-response","590","675962","0.0-13.0-0.177","19","Low_HMMActual","","","","","","757.7999999970198","","","","Images/NewTrialBC.png","","0"
"image-button-response","591","676268","0.0-13.0-1.177","19","Low_HMMActual","","","","","","null","","","","Images/BlackBeadChoice.png","","null"
"image-button-response","592","676776","0.0-13.0-2.177","19","Low_HMMActual","","","","","","null","","","","Images/BlackBeadChoiceCorrect.png","","null"
"image-button-response","593","677240","0.0-13.0-0.178","19","Low_HMMActual","","","","","","459.79999999701977","","","","Images/NewTrialBC.png","","0"
"image-button-response","594","677547","0.0-13.0-1.178","19","Low_HMMActual","","","","","","null","","","","Images/BlackBeadChoice.png","","null"
"image-button-response","595","678050","0.0-13.0-2.178","19","Low_HMMActual","","","","","","null","","","","Images/BlackBeadChoiceWrong.png","","null"
"image-button-response","596","679742","0.0-13.0-0.179","19","Low_HMMActual","","","","","","1682.0999999940395","","","","Images/NewTrialWC.png","","1"
"image-button-response","597","680048","0.0-13.0-1.179","19","Low_HMMActual","","","","","","null","","","","Images/BlackBeadChoice.png","","null"
"image-button-response","598","680551","0.0-13.0-2.179","19","Low_HMMActual","","","","","","null","","","","Images/BlackBeadChoiceCorrect.png","","null"
"image-button-response","599","681076","0.0-13.0-0.180","19","Low_HMMActual","","","","","","520.3999999985099","","","","Images/NewTrialBC.png","","0"
"image-button-response","600","681383","0.0-13.0-1.180","19","Low_HMMActual","","","","","","null","","","","Images/BlackBeadChoice.png","","null"
"image-button-response","601","681888","0.0-13.0-2.180","19","Low_HMMActual","","","","","","null","","","","Images/BlackBeadChoiceCorrect.png","","null"
"image-button-response","602","682625","0.0-13.0-0.181","19","Low_HMMActual","","","","","","733.2000000029802","","","","Images/NewTrialBC.png","","0"
"image-button-response","603","682932","0.0-13.0-1.181","19","Low_HMMActual","","","","","","null","","","","Images/BlackBeadChoice.png","","null"
"image-button-response","604","683435","0.0-13.0-2.181","19","Low_HMMActual","","","","","","null","","","","Images/BlackBeadChoiceCorrect.png","","null"
"image-button-response","605","683696","0.0-13.0-0.182","19","Low_HMMActual","","","","","","256.70000000298023","","","","Images/NewTrialBC.png","","0"
"image-button-response","606","683999","0.0-13.0-1.182","19","Low_HMMActual","","","","","","null","","","","Images/BlackBeadChoice.png","","null"
"image-button-response","607","684507","0.0-13.0-2.182","19","Low_HMMActual","","","","","","null","","","","Images/BlackBeadChoiceCorrect.png","","null"
"image-button-response","608","685308","0.0-13.0-0.183","19","Low_HMMActual","","","","","","797.4000000059605","","","","Images/NewTrialBC.png","","1"
"image-button-response","609","685616","0.0-13.0-1.183","19","Low_HMMActual","","","","","","null","","","","Images/BlackBeadChoice.png","","null"
"image-button-response","610","686120","0.0-13.0-2.183","19","Low_HMMActual","","","","","","null","","","","Images/BlackBeadChoiceCorrect.png","","null"
"image-button-response","611","686908","0.0-13.0-0.184","19","Low_HMMActual","","","","","","784.7000000029802","","","","Images/NewTrialBC.png","","0"
"image-button-response","612","687211","0.0-13.0-1.184","19","Low_HMMActual","","","","","","null","","","","Images/BlackBeadChoice.png","","null"
"image-button-response","613","687716","0.0-13.0-2.184","19","Low_HMMActual","","","","","","null","","","","Images/BlackBeadChoiceCorrect.png","","null"
"image-button-response","614","688002","0.0-13.0-0.185","19","Low_HMMActual","","","","","","281.80000000447035","","","","Images/NewTrialBC.png","","0"
"image-button-response","615","688308","0.0-13.0-1.185","19","Low_HMMActual","","","","","","null","","","","Images/BlackBeadChoice.png","","null"
"image-button-response","616","688812","0.0-13.0-2.185","19","Low_HMMActual","","","","","","null","","","","Images/BlackBeadChoiceCorrect.png","","null"
"image-button-response","617","691190","0.0-13.0-0.186","19","Low_HMMActual","","","","","","2374.10000000149","","","","Images/NewTrialBC.png","","3"
"image-button-response","618","691495","0.0-13.0-1.186","19","Low_HMMActual","","","","","","null","","","","Images/WhiteBeadChoice.png","","null"
"image-button-response","619","692002","0.0-13.0-2.186","19","Low_HMMActual","","","","","","null","","","","Images/WhiteBeadChoiceWrong.png","","null"
"image-button-response","620","694186","0.0-13.0-0.187","19","Low_HMMActual","","","","","","2180.7000000029802","","","","Images/NewTrialBC.png","","1"
"image-button-response","621","694493","0.0-13.0-1.187","19","Low_HMMActual","","","","","","null","","","","Images/BlackBeadChoice.png","","null"
"image-button-response","622","694996","0.0-13.0-2.187","19","Low_HMMActual","","","","","","null","","","","Images/BlackBeadChoiceWrong.png","","null"
"image-button-response","623","695792","0.0-13.0-0.188","19","Low_HMMActual","","","","","","793.6999999955297","","","","Images/NewTrialWC.png","","2"
"image-button-response","624","696098","0.0-13.0-1.188","19","Low_HMMActual","","","","","","null","","","","Images/WhiteBeadChoice.png","","null"
"image-button-response","625","696601","0.0-13.0-2.188","19","Low_HMMActual","","","","","","null","","","","Images/WhiteBeadChoiceCorrect.png","","null"
"image-button-response","626","697782","0.0-13.0-0.189","19","Low_HMMActual","","","","","","1176","","","","Images/NewTrialWC.png","","2"
"image-button-response","627","698090","0.0-13.0-1.189","19","Low_HMMActual","","","","","","null","","","","Images/WhiteBeadChoice.png","","null"
"image-button-response","628","698594","0.0-13.0-2.189","19","Low_HMMActual","","","","","","null","","","","Images/WhiteBeadChoiceCorrect.png","","null"
"image-button-response","629","699406","0.0-13.0-0.190","19","Low_HMMActual","","","","","","809.2000000029802","","","","Images/NewTrialWC.png","","2"
"image-button-response","630","699710","0.0-13.0-1.190","19","Low_HMMActual","","","","","","null","","","","Images/WhiteBeadChoice.png","","null"
"image-button-response","631","700215","0.0-13.0-2.190","19","Low_HMMActual","","","","","","null","","","","Images/WhiteBeadChoiceCorrect.png","","null"
"image-button-response","632","700794","0.0-13.0-0.191","19","Low_HMMActual","","","","","","575.7999999970198","","","","Images/NewTrialWC.png","","2"
"image-button-response","633","701098","0.0-13.0-1.191","19","Low_HMMActual","","","","","","null","","","","Images/WhiteBeadChoice.png","","null"
"image-button-response","634","701603","0.0-13.0-2.191","19","Low_HMMActual","","","","","","null","","","","Images/WhiteBeadChoiceCorrect.png","","null"
"image-button-response","635","701823","0.0-13.0-0.192","19","Low_HMMActual","","","","","","217.19999999552965","","","","Images/NewTrialWC.png","","2"
"image-button-response","636","702130","0.0-13.0-1.192","19","Low_HMMActual","","","","","","null","","","","Images/WhiteBeadChoice.png","","null"
"image-button-response","637","702636","0.0-13.0-2.192","19","Low_HMMActual","","","","","","null","","","","Images/WhiteBeadChoiceCorrect.png","","null"
"image-button-response","638","702932","0.0-13.0-0.193","19","Low_HMMActual","","","","","","291.79999999701977","","","","Images/NewTrialWC.png","","2"
"image-button-response","639","703234","0.0-13.0-1.193","19","Low_HMMActual","","","","","","null","","","","Images/WhiteBeadChoice.png","","null"
"image-button-response","640","703743","0.0-13.0-2.193","19","Low_HMMActual","","","","","","null","","","","Images/WhiteBeadChoiceCorrect.png","","null"
"image-button-response","641","704117","0.0-13.0-0.194","19","Low_HMMActual","","","","","","371","","","","Images/NewTrialWC.png","","2"
"image-button-response","642","704424","0.0-13.0-1.194","19","Low_HMMActual","","","","","","null","","","","Images/WhiteBeadChoice.png","","null"
"image-button-response","643","704935","0.0-13.0-2.194","19","Low_HMMActual","","","","","","null","","","","Images/WhiteBeadChoiceCorrect.png","","null"
"image-button-response","644","705492","0.0-13.0-0.195","19","Low_HMMActual","","","","","","552.5","","","","Images/NewTrialWC.png","","2"
"image-button-response","645","705798","0.0-13.0-1.195","19","Low_HMMActual","","","","","","null","","","","Images/WhiteBeadChoice.png","","null"
"image-button-response","646","706307","0.0-13.0-2.195","19","Low_HMMActual","","","","","","null","","","","Images/WhiteBeadChoiceCorrect.png","","null"
"image-button-response","647","706811","0.0-13.0-0.196","19","Low_HMMActual","","","","","","500.20000000298023","","","","Images/NewTrialWC.png","","2"
"image-button-response","648","707119","0.0-13.0-1.196","19","Low_HMMActual","","","","","","null","","","","Images/WhiteBeadChoice.png","","null"
"image-button-response","649","707624","0.0-13.0-2.196","19","Low_HMMActual","","","","","","null","","","","Images/WhiteBeadChoiceCorrect.png","","null"
"image-button-response","650","708704","0.0-13.0-0.197","19","Low_HMMActual","","","","","","1076.7999999970198","","","","Images/NewTrialWC.png","","1"
"image-button-response","651","709009","0.0-13.0-1.197","19","Low_HMMActual","","","","","","null","","","","Images/BlackBeadChoice.png","","null"
"image-button-response","652","709511","0.0-13.0-2.197","19","Low_HMMActual","","","","","","null","","","","Images/BlackBeadChoiceWrong.png","","null"
"image-button-response","653","710078","0.0-13.0-0.198","19","Low_HMMActual","","","","","","563.3999999985099","","","","Images/NewTrialWC.png","","1"
"image-button-response","654","710383","0.0-13.0-1.198","19","Low_HMMActual","","","","","","null","","","","Images/BlackBeadChoice.png","","null"
"image-button-response","655","710888","0.0-13.0-2.198","19","Low_HMMActual","","","","","","null","","","","Images/BlackBeadChoiceCorrect.png","","null"
"image-button-response","656","712794","0.0-13.0-0.199","19","Low_HMMActual","","","","","","1903.5","","","","Images/NewTrialBC.png","","0"
"image-button-response","657","713098","0.0-13.0-1.199","19","Low_HMMActual","","","","","","null","","","","Images/BlackBeadChoice.png","","null"
"image-button-response","658","713602","0.0-13.0-2.199","19","Low_HMMActual","","","","","","null","","","","Images/BlackBeadChoiceWrong.png","","null"
"image-button-response","659","714544","0.0-13.0-0.200","19","Low_HMMActual","","","","","","931.8000000044703","","","","Images/NewTrialWC.png","","1"
"image-button-response","660","714848","0.0-13.0-1.200","19","Low_HMMActual","","","","","","null","","","","Images/BlackBeadChoice.png","","null"
"image-button-response","661","715352","0.0-13.0-2.200","19","Low_HMMActual","","","","","","null","","","","Images/BlackBeadChoiceWrong.png","","null"
"image-button-response","662","715860","0.0-13.0-0.201","19","Low_HMMActual","","","","","","503.5","","","","Images/NewTrialWC.png","","2"
"image-button-response","663","716168","0.0-13.0-1.201","19","Low_HMMActual","","","","","","null","","","","Images/WhiteBeadChoice.png","","null"
"image-button-response","664","716674","0.0-13.0-2.201","19","Low_HMMActual","","","","","","null","","","","Images/WhiteBeadChoiceWrong.png","","null"
"image-button-response","665","718784","0.0-13.0-0.202","19","Low_HMMActual","","","","","","2107.5","","","","Images/NewTrialBC.png","","0"
