"trial_type","trial_index","time_elapsed","internal_node_id","Script_Picker","Block_Type","success","timeout","failed_images","failed_audio","failed_video","rt","url","responses","question_order","stimulus","key_press","response"
"pavlovia","0","83","0.0-0.0","17","Low_HMMActual","","","","","","","","","","","",""
"preload","1","85","0.0-1.0","17","Low_HMMActual","true","false","[]","[]","[]","","","","","","",""
"external-html","2","23951","0.0-2.0-0.0","17","Low_HMMActual","","","","","","23727.19999998808","consent.html","","","","",""
"survey-multi-choice","3","29251","0.0-2.0-1.0","17","Low_HMMActual","","","","","","5297.4000000059605","","{""Q0"":""Female"",""Q1"":""White""}","[0,1]","","",""
"survey-text","4","31714","0.0-2.0-2.0","17","Low_HMMActual","","","","","","2459.7000000178814","","{""Q0"":""21""}","","","",""
"survey-text","5","34768","0.0-2.0-3.0","17","Low_HMMActual","","","","","","2948.9000000059605","","{""Q0"":""60fd79cadc8d0e15f1f85689""}","","","",""
"image-keyboard-response","6","49521","0.0-3.0-0.0","17","Low_HMMActual","","","","","","14647.299999982119","","","","tutorial/tutorial1.png"," ",""
"image-keyboard-response","7","58747","0.0-3.0-0.1","17","Low_HMMActual","","","","","","9225.399999976158","","","","tutorial/tutorial2.png"," ",""
"image-keyboard-response","8","63569","0.0-3.0-0.2","17","Low_HMMActual","","","","","","4821.300000011921","","","","tutorial/tutorial3.png"," ",""
"image-keyboard-response","9","66022","0.0-3.0-0.3","17","Low_HMMActual","","","","","","2452","","","","tutorial/tutorial4.png"," ",""
"image-keyboard-response","10","68097","0.0-3.0-0.4","17","Low_HMMActual","","","","","","2073.2000000178814","","","","tutorial/tutorial5.png"," ",""
"image-keyboard-response","11","73918","0.0-3.0-0.5","17","Low_HMMActual","","","","","","5820.5","","","","tutorial/tutorial6.png"," ",""
"image-keyboard-response","12","80301","0.0-3.0-0.6","17","Low_HMMActual","","","","","","6382.4000000059605","","","","tutorial/tutorial7.png"," ",""
"image-keyboard-response","13","104954","0.0-3.0-0.7","17","Low_HMMActual","","","","","","24651.20000001788","","","","tutorial/tutorial8.png"," ",""
"image-keyboard-response","14","112729","0.0-3.0-0.8","17","Low_HMMActual","","","","","","7774.0999999940395","","","","tutorial/tutorial9.png"," ",""
"image-keyboard-response","15","122101","0.0-3.0-0.9","17","Low_HMMActual","","","","","","9371","","","","tutorial/tutorial10.png"," ",""
"image-keyboard-response","16","129983","0.0-3.0-0.10","17","Low_HMMActual","","","","","","7880.799999982119","","","","tutorial/tutorial11.png"," ",""
"image-keyboard-response","17","136111","0.0-3.0-0.11","17","Low_HMMActual","","","","","","6127.799999982119","","","","tutorial/tutorial12.png"," ",""
"image-keyboard-response","18","147400","0.0-3.0-0.12","17","Low_HMMActual","","","","","","11288.299999982119","","","","tutorial/tutorial13.png"," ",""
"image-keyboard-response","19","154516","0.0-3.0-0.13","17","Low_HMMActual","","","","","","7114.199999988079","","","","tutorial/tutorial14.png"," ",""
"image-keyboard-response","20","158089","0.0-3.0-0.14","17","Low_HMMActual","","","","","","3573","","","","tutorial/tutorial15.png"," ",""
"image-keyboard-response","21","164497","0.0-4.0","17","Low_HMMActual","","","","","","6406.4000000059605","","","","tutorial/tutorial16.png","arrowup",""
"image-keyboard-response","22","171060","0.0-5.0","17","Low_HMMActual","","","","","","4409.199999988079","","","","tutorial/tutorial17.png","arrowright",""
"image-keyboard-response","23","175189","0.0-6.0","17","Low_HMMActual","","","","","","2997.5999999940395","","","","tutorial/tutorial18.png","arrowleft",""
"image-keyboard-response","24","180114","0.0-7.0","17","Low_HMMActual","","","","","","3938.5999999940395","","","","tutorial/tutorial19.png"," ",""
"html-keyboard-response","25","184298","0.0-8.0","18","Low_HMMActual","","","","","","4181.5","","","","<div class=""container"" style=""height:800px;width:800px;display:flex;flex-direction:column;justify-content:center;align-items:center;text-align:center;font-weight:normal;font-family:Arial;font-size:20px""><p>Loading episode&hellip;</p><div>"," ",""
"image-button-response","26","193838","0.0-9.0-0.0","18","Low_HMMActual","","","","","","9535.399999976158","","","","Images/NoChoice.png","","0"
"image-button-response","27","194147","0.0-9.0-1.0","18","Low_HMMActual","","","","","","null","","","","Images/BlackBeadChoice.png","","null"
"image-button-response","28","194651","0.0-9.0-2.0","18","Low_HMMActual","","","","","","null","","","","Images/BlackBeadChoiceWrong.png","","null"
"image-button-response","29","204647","0.0-9.0-0.1","18","Low_HMMActual","","","","","","9989.199999988079","","","","Images/NewTrialWC.png","","0"
"image-button-response","30","204951","0.0-9.0-1.1","18","Low_HMMActual","","","","","","null","","","","Images/BlackBeadChoice.png","","null"
"image-button-response","31","205458","0.0-9.0-2.1","18","Low_HMMActual","","","","","","null","","","","Images/BlackBeadChoiceWrong.png","","null"
"image-button-response","32","210172","0.0-9.0-0.2","18","Low_HMMActual","","","","","","4711.800000011921","","","","Images/NewTrialWC.png","","2"
"image-button-response","33","210478","0.0-9.0-1.2","18","Low_HMMActual","","","","","","null","","","","Images/WhiteBeadChoice.png","","null"
"image-button-response","34","210980","0.0-9.0-2.2","18","Low_HMMActual","","","","","","null","","","","Images/WhiteBeadChoiceCorrect.png","","null"
"image-button-response","35","213606","0.0-9.0-0.3","18","Low_HMMActual","","","","","","2623.4000000059605","","","","Images/NewTrialWC.png","","2"
"image-button-response","36","213914","0.0-9.0-1.3","18","Low_HMMActual","","","","","","null","","","","Images/WhiteBeadChoice.png","","null"
"image-button-response","37","214422","0.0-9.0-2.3","18","Low_HMMActual","","","","","","null","","","","Images/WhiteBeadChoiceWrong.png","","null"
"image-button-response","38","218154","0.0-9.0-0.4","18","Low_HMMActual","","","","","","3730.9000000059605","","","","Images/NewTrialBC.png","","1"
"image-button-response","39","218460","0.0-9.0-1.4","18","Low_HMMActual","","","","","","null","","","","Images/BlackBeadChoice.png","","null"
"image-button-response","40","218966","0.0-9.0-2.4","18","Low_HMMActual","","","","","","null","","","","Images/BlackBeadChoiceWrong.png","","null"
"image-button-response","41","221167","0.0-9.0-0.5","18","Low_HMMActual","","","","","","2199.300000011921","","","","Images/NewTrialWC.png","","2"
"image-button-response","42","221473","0.0-9.0-1.5","18","Low_HMMActual","","","","","","null","","","","Images/WhiteBeadChoice.png","","null"
"image-button-response","43","221976","0.0-9.0-2.5","18","Low_HMMActual","","","","","","null","","","","Images/WhiteBeadChoiceCorrect.png","","null"
"image-button-response","44","224227","0.0-9.0-0.6","18","Low_HMMActual","","","","","","2249.4000000059605","","","","Images/NewTrialWC.png","","2"
"image-button-response","45","224534","0.0-9.0-1.6","18","Low_HMMActual","","","","","","null","","","","Images/WhiteBeadChoice.png","","null"
"image-button-response","46","225037","0.0-9.0-2.6","18","Low_HMMActual","","","","","","null","","","","Images/WhiteBeadChoiceWrong.png","","null"
"image-button-response","47","226934","0.0-9.0-0.7","18","Low_HMMActual","","","","","","1895.7000000178814","","","","Images/NewTrialBC.png","","1"
"image-button-response","48","227238","0.0-9.0-1.7","18","Low_HMMActual","","","","","","null","","","","Images/BlackBeadChoice.png","","null"
"image-button-response","49","227743","0.0-9.0-2.7","18","Low_HMMActual","","","","","","null","","","","Images/BlackBeadChoiceWrong.png","","null"
"image-button-response","50","229439","0.0-9.0-0.8","18","Low_HMMActual","","","","","","1694","","","","Images/NewTrialWC.png","","1"
"image-button-response","51","229744","0.0-9.0-1.8","18","Low_HMMActual","","","","","","null","","","","Images/BlackBeadChoice.png","","null"
"image-button-response","52","230251","0.0-9.0-2.8","18","Low_HMMActual","","","","","","null","","","","Images/BlackBeadChoiceWrong.png","","null"
"image-button-response","53","231305","0.0-9.0-0.9","18","Low_HMMActual","","","","","","1046.7000000178814","","","","Images/NewTrialWC.png","","2"
"image-button-response","54","231611","0.0-9.0-1.9","18","Low_HMMActual","","","","","","null","","","","Images/WhiteBeadChoice.png","","null"
"image-button-response","55","232114","0.0-9.0-2.9","18","Low_HMMActual","","","","","","null","","","","Images/WhiteBeadChoiceWrong.png","","null"
"html-keyboard-response","56","234570","0.0-10.0","18","Low_HMMActual","","","","","","2453.699999988079","","","",""," ",""
"image-keyboard-response","57","237715","0.0-11.0","18","Low_HMMActual","","","","","","3144.2999999821186","","","","tutorial/tutorial20.png"," ",""
"html-keyboard-response","58","252197","0.0-12.0","19","Low_HMMActual","","","","","","14475.199999988079","","","","<div class=""container"" style=""height:800px;width:800px;display:flex;flex-direction:column;justify-content:center;align-items:center;text-align:center;font-weight:normal;font-family:Arial;font-size:20px""><p>Loading episode&hellip;</p><div>"," ",""
"image-button-response","59","255929","0.0-13.0-0.0","19","Low_HMMActual","","","","","","3730.600000023842","","","","Images/NoChoice.png","","1"
"image-button-response","60","256235","0.0-13.0-1.0","19","Low_HMMActual","","","","","","null","","","","Images/BlackBeadChoice.png","","null"
"image-button-response","61","256738","0.0-13.0-2.0","19","Low_HMMActual","","","","","","null","","","","Images/BlackBeadChoiceWrong.png","","null"
"image-button-response","62","258184","0.0-13.0-0.1","19","Low_HMMActual","","","","","","1443.6000000238419","","","","Images/NewTrialWC.png","","3"
"image-button-response","63","258487","0.0-13.0-1.1","19","Low_HMMActual","","","","","","null","","","","Images/WhiteBeadChoice.png","","null"
"image-button-response","64","258991","0.0-13.0-2.1","19","Low_HMMActual","","","","","","null","","","","Images/WhiteBeadChoiceCorrect.png","","null"
"image-button-response","65","260219","0.0-13.0-0.2","19","Low_HMMActual","","","","","","1225.9000000059605","","","","Images/NewTrialWC.png","","2"
"image-button-response","66","260523","0.0-13.0-1.2","19","Low_HMMActual","","","","","","null","","","","Images/WhiteBeadChoice.png","","null"
"image-button-response","67","261028","0.0-13.0-2.2","19","Low_HMMActual","","","","","","null","","","","Images/WhiteBeadChoiceCorrect.png","","null"
"image-button-response","68","262498","0.0-13.0-0.3","19","Low_HMMActual","","","","","","1467.7999999821186","","","","Images/NewTrialWC.png","","2"
"image-button-response","69","262805","0.0-13.0-1.3","19","Low_HMMActual","","","","","","null","","","","Images/WhiteBeadChoice.png","","null"
"image-button-response","70","263313","0.0-13.0-2.3","19","Low_HMMActual","","","","","","null","","","","Images/WhiteBeadChoiceCorrect.png","","null"
"image-button-response","71","264864","0.0-13.0-0.4","19","Low_HMMActual","","","","","","1549.5","","","","Images/NewTrialWC.png","","2"
"image-button-response","72","265169","0.0-13.0-1.4","19","Low_HMMActual","","","","","","null","","","","Images/WhiteBeadChoice.png","","null"
"image-button-response","73","265675","0.0-13.0-2.4","19","Low_HMMActual","","","","","","null","","","","Images/WhiteBeadChoiceCorrect.png","","null"
"image-button-response","74","268273","0.0-13.0-0.5","19","Low_HMMActual","","","","","","2595.9000000059605","","","","Images/NewTrialWC.png","","2"
"image-button-response","75","268579","0.0-13.0-1.5","19","Low_HMMActual","","","","","","null","","","","Images/WhiteBeadChoice.png","","null"
"image-button-response","76","269081","0.0-13.0-2.5","19","Low_HMMActual","","","","","","null","","","","Images/WhiteBeadChoiceWrong.png","","null"
"image-button-response","77","272759","0.0-13.0-0.6","19","Low_HMMActual","","","","","","3676","","","","Images/NewTrialBC.png","","3"
"image-button-response","78","273061","0.0-13.0-1.6","19","Low_HMMActual","","","","","","null","","","","Images/WhiteBeadChoice.png","","null"
"image-button-response","79","273568","0.0-13.0-2.6","19","Low_HMMActual","","","","","","null","","","","Images/WhiteBeadChoiceWrong.png","","null"
"image-button-response","80","274364","0.0-13.0-0.7","19","Low_HMMActual","","","","","","793.8000000119209","","","","Images/NewTrialBC.png","","1"
"image-button-response","81","274670","0.0-13.0-1.7","19","Low_HMMActual","","","","","","null","","","","Images/BlackBeadChoice.png","","null"
"image-button-response","82","275177","0.0-13.0-2.7","19","Low_HMMActual","","","","","","null","","","","Images/BlackBeadChoiceCorrect.png","","null"
"image-button-response","83","276699","0.0-13.0-0.8","19","Low_HMMActual","","","","","","1520.800000011921","","","","Images/NewTrialBC.png","","0"
"image-button-response","84","277004","0.0-13.0-1.8","19","Low_HMMActual","","","","","","null","","","","Images/BlackBeadChoice.png","","null"
"image-button-response","85","277507","0.0-13.0-2.8","19","Low_HMMActual","","","","","","null","","","","Images/BlackBeadChoiceCorrect.png","","null"
"image-button-response","86","278526","0.0-13.0-0.9","19","Low_HMMActual","","","","","","1017.1000000238419","","","","Images/NewTrialBC.png","","0"
"image-button-response","87","278833","0.0-13.0-1.9","19","Low_HMMActual","","","","","","null","","","","Images/BlackBeadChoice.png","","null"
"image-button-response","88","279340","0.0-13.0-2.9","19","Low_HMMActual","","","","","","null","","","","Images/BlackBeadChoiceCorrect.png","","null"
"image-button-response","89","280367","0.0-13.0-0.10","19","Low_HMMActual","","","","","","1025.2999999821186","","","","Images/NewTrialBC.png","","0"
"image-button-response","90","280670","0.0-13.0-1.10","19","Low_HMMActual","","","","","","null","","","","Images/BlackBeadChoice.png","","null"
"image-button-response","91","281177","0.0-13.0-2.10","19","Low_HMMActual","","","","","","null","","","","Images/BlackBeadChoiceWrong.png","","null"
"image-button-response","92","284002","0.0-13.0-0.11","19","Low_HMMActual","","","","","","2817","","","","Images/NewTrialWC.png","","1"
"image-button-response","93","284304","0.0-13.0-1.11","19","Low_HMMActual","","","","","","null","","","","Images/BlackBeadChoice.png","","null"
"image-button-response","94","284811","0.0-13.0-2.11","19","Low_HMMActual","","","","","","null","","","","Images/BlackBeadChoiceCorrect.png","","null"
"image-button-response","95","287112","0.0-13.0-0.12","19","Low_HMMActual","","","","","","2299","","","","Images/NewTrialBC.png","","0"
"image-button-response","96","287418","0.0-13.0-1.12","19","Low_HMMActual","","","","","","null","","","","Images/BlackBeadChoice.png","","null"
"image-button-response","97","287922","0.0-13.0-2.12","19","Low_HMMActual","","","","","","null","","","","Images/BlackBeadChoiceWrong.png","","null"
"image-button-response","98","289843","0.0-13.0-0.13","19","Low_HMMActual","","","","","","1919.699999988079","","","","Images/NewTrialWC.png","","2"
"image-button-response","99","290145","0.0-13.0-1.13","19","Low_HMMActual","","","","","","null","","","","Images/WhiteBeadChoice.png","","null"
"image-button-response","100","290656","0.0-13.0-2.13","19","Low_HMMActual","","","","","","null","","","","Images/WhiteBeadChoiceCorrect.png","","null"
"image-button-response","101","292017","0.0-13.0-0.14","19","Low_HMMActual","","","","","","1358","","","","Images/NewTrialWC.png","","2"
"image-button-response","102","292324","0.0-13.0-1.14","19","Low_HMMActual","","","","","","null","","","","Images/WhiteBeadChoice.png","","null"
"image-button-response","103","292831","0.0-13.0-2.14","19","Low_HMMActual","","","","","","null","","","","Images/WhiteBeadChoiceCorrect.png","","null"
"image-button-response","104","294230","0.0-13.0-0.15","19","Low_HMMActual","","","","","","1397.1000000238419","","","","Images/NewTrialWC.png","","2"
"image-button-response","105","294537","0.0-13.0-1.15","19","Low_HMMActual","","","","","","null","","","","Images/WhiteBeadChoice.png","","null"
"image-button-response","106","295044","0.0-13.0-2.15","19","Low_HMMActual","","","","","","null","","","","Images/WhiteBeadChoiceCorrect.png","","null"
"image-button-response","107","296379","0.0-13.0-0.16","19","Low_HMMActual","","","","","","1332.0999999940395","","","","Images/NewTrialWC.png","","1"
"image-button-response","108","296681","0.0-13.0-1.16","19","Low_HMMActual","","","","","","null","","","","Images/BlackBeadChoice.png","","null"
"image-button-response","109","297183","0.0-13.0-2.16","19","Low_HMMActual","","","","","","null","","","","Images/BlackBeadChoiceCorrect.png","","null"
"image-button-response","110","298737","0.0-13.0-0.17","19","Low_HMMActual","","","","","","1552.5999999940395","","","","Images/NewTrialBC.png","","0"
"image-button-response","111","299044","0.0-13.0-1.17","19","Low_HMMActual","","","","","","null","","","","Images/BlackBeadChoice.png","","null"
"image-button-response","112","299549","0.0-13.0-2.17","19","Low_HMMActual","","","","","","null","","","","Images/BlackBeadChoiceCorrect.png","","null"
"image-button-response","113","300790","0.0-13.0-0.18","19","Low_HMMActual","","","","","","1238.199999988079","","","","Images/NewTrialBC.png","","0"
"image-button-response","114","301093","0.0-13.0-1.18","19","Low_HMMActual","","","","","","null","","","","Images/BlackBeadChoice.png","","null"
"image-button-response","115","301601","0.0-13.0-2.18","19","Low_HMMActual","","","","","","null","","","","Images/BlackBeadChoiceCorrect.png","","null"
"image-button-response","116","302688","0.0-13.0-0.19","19","Low_HMMActual","","","","","","1085.5","","","","Images/NewTrialBC.png","","0"
"image-button-response","117","302994","0.0-13.0-1.19","19","Low_HMMActual","","","","","","null","","","","Images/BlackBeadChoice.png","","null"
"image-button-response","118","303501","0.0-13.0-2.19","19","Low_HMMActual","","","","","","null","","","","Images/BlackBeadChoiceCorrect.png","","null"
"image-button-response","119","306847","0.0-13.0-0.20","19","Low_HMMActual","","","","","","3343.5","","","","Images/NewTrialBC.png","","1"
"image-button-response","120","307151","0.0-13.0-1.20","19","Low_HMMActual","","","","","","null","","","","Images/BlackBeadChoice.png","","null"
"image-button-response","121","307658","0.0-13.0-2.20","19","Low_HMMActual","","","","","","null","","","","Images/BlackBeadChoiceCorrect.png","","null"
"image-button-response","122","308803","0.0-13.0-0.21","19","Low_HMMActual","","","","","","1143","","","","Images/NewTrialBC.png","","0"
"image-button-response","123","309109","0.0-13.0-1.21","19","Low_HMMActual","","","","","","null","","","","Images/BlackBeadChoice.png","","null"
"image-button-response","124","309616","0.0-13.0-2.21","19","Low_HMMActual","","","","","","null","","","","Images/BlackBeadChoiceWrong.png","","null"
"image-button-response","125","311105","0.0-13.0-0.22","19","Low_HMMActual","","","","","","1487.199999988079","","","","Images/NewTrialWC.png","","3"
"image-button-response","126","311409","0.0-13.0-1.22","19","Low_HMMActual","","","","","","null","","","","Images/WhiteBeadChoice.png","","null"
"image-button-response","127","311916","0.0-13.0-2.22","19","Low_HMMActual","","","","","","null","","","","Images/WhiteBeadChoiceWrong.png","","null"
"image-button-response","128","312987","0.0-13.0-0.23","19","Low_HMMActual","","","","","","1068.8999999761581","","","","Images/NewTrialBC.png","","0"
"image-button-response","129","313294","0.0-13.0-1.23","19","Low_HMMActual","","","","","","null","","","","Images/BlackBeadChoice.png","","null"
"image-button-response","130","313800","0.0-13.0-2.23","19","Low_HMMActual","","","","","","null","","","","Images/BlackBeadChoiceWrong.png","","null"
"image-button-response","131","315540","0.0-13.0-0.24","19","Low_HMMActual","","","","","","1737.0999999940395","","","","Images/NewTrialWC.png","","3"
"image-button-response","132","315847","0.0-13.0-1.24","19","Low_HMMActual","","","","","","null","","","","Images/WhiteBeadChoice.png","","null"
"image-button-response","133","316350","0.0-13.0-2.24","19","Low_HMMActual","","","","","","null","","","","Images/WhiteBeadChoiceWrong.png","","null"
"image-button-response","134","317520","0.0-13.0-0.25","19","Low_HMMActual","","","","","","1167.300000011921","","","","Images/NewTrialBC.png","","1"
"image-button-response","135","317822","0.0-13.0-1.25","19","Low_HMMActual","","","","","","null","","","","Images/BlackBeadChoice.png","","null"
"image-button-response","136","318326","0.0-13.0-2.25","19","Low_HMMActual","","","","","","null","","","","Images/BlackBeadChoiceWrong.png","","null"
"image-button-response","137","320267","0.0-13.0-0.26","19","Low_HMMActual","","","","","","1938.5999999940395","","","","Images/NewTrialWC.png","","2"
"image-button-response","138","320572","0.0-13.0-1.26","19","Low_HMMActual","","","","","","null","","","","Images/WhiteBeadChoice.png","","null"
"image-button-response","139","321079","0.0-13.0-2.26","19","Low_HMMActual","","","","","","null","","","","Images/WhiteBeadChoiceWrong.png","","null"
"image-button-response","140","324104","0.0-13.0-0.27","19","Low_HMMActual","","","","","","3023.5999999940395","","","","Images/NewTrialBC.png","","0"
"image-button-response","141","324410","0.0-13.0-1.27","19","Low_HMMActual","","","","","","null","","","","Images/BlackBeadChoice.png","","null"
"image-button-response","142","324916","0.0-13.0-2.27","19","Low_HMMActual","","","","","","null","","","","Images/BlackBeadChoiceCorrect.png","","null"
"image-button-response","143","325671","0.0-13.0-0.28","19","Low_HMMActual","","","","","","752.5999999940395","","","","Images/NewTrialBC.png","","0"
"image-button-response","144","325976","0.0-13.0-1.28","19","Low_HMMActual","","","","","","null","","","","Images/BlackBeadChoice.png","","null"
"image-button-response","145","326482","0.0-13.0-2.28","19","Low_HMMActual","","","","","","null","","","","Images/BlackBeadChoiceWrong.png","","null"
"image-button-response","146","328523","0.0-13.0-0.29","19","Low_HMMActual","","","","","","2039.7999999821186","","","","Images/NewTrialWC.png","","1"
"image-button-response","147","328826","0.0-13.0-1.29","19","Low_HMMActual","","","","","","null","","","","Images/BlackBeadChoice.png","","null"
"image-button-response","148","329327","0.0-13.0-2.29","19","Low_HMMActual","","","","","","null","","","","Images/BlackBeadChoiceCorrect.png","","null"
"image-button-response","149","330495","0.0-13.0-0.30","19","Low_HMMActual","","","","","","1165.9000000059605","","","","Images/NewTrialBC.png","","0"
"image-button-response","150","330802","0.0-13.0-1.30","19","Low_HMMActual","","","","","","null","","","","Images/BlackBeadChoice.png","","null"
"image-button-response","151","331306","0.0-13.0-2.30","19","Low_HMMActual","","","","","","null","","","","Images/BlackBeadChoiceWrong.png","","null"
"image-button-response","152","332523","0.0-13.0-0.31","19","Low_HMMActual","","","","","","1214.2999999821186","","","","Images/NewTrialWC.png","","2"
"image-button-response","153","332829","0.0-13.0-1.31","19","Low_HMMActual","","","","","","null","","","","Images/WhiteBeadChoice.png","","null"
"image-button-response","154","333335","0.0-13.0-2.31","19","Low_HMMActual","","","","","","null","","","","Images/WhiteBeadChoiceCorrect.png","","null"
"image-button-response","155","336934","0.0-13.0-0.32","19","Low_HMMActual","","","","","","3596.199999988079","","","","Images/NewTrialWC.png","","2"
"image-button-response","156","337236","0.0-13.0-1.32","19","Low_HMMActual","","","","","","null","","","","Images/WhiteBeadChoice.png","","null"
"image-button-response","157","337739","0.0-13.0-2.32","19","Low_HMMActual","","","","","","null","","","","Images/WhiteBeadChoiceCorrect.png","","null"
"image-button-response","158","338574","0.0-13.0-0.33","19","Low_HMMActual","","","","","","832","","","","Images/NewTrialWC.png","","2"
"image-button-response","159","338881","0.0-13.0-1.33","19","Low_HMMActual","","","","","","null","","","","Images/WhiteBeadChoice.png","","null"
"image-button-response","160","339388","0.0-13.0-2.33","19","Low_HMMActual","","","","","","null","","","","Images/WhiteBeadChoiceCorrect.png","","null"
"image-button-response","161","340756","0.0-13.0-0.34","19","Low_HMMActual","","","","","","1365.5","","","","Images/NewTrialWC.png","","2"
"image-button-response","162","341063","0.0-13.0-1.34","19","Low_HMMActual","","","","","","null","","","","Images/WhiteBeadChoice.png","","null"
"image-button-response","163","341567","0.0-13.0-2.34","19","Low_HMMActual","","","","","","null","","","","Images/WhiteBeadChoiceWrong.png","","null"
"image-button-response","164","342482","0.0-13.0-0.35","19","Low_HMMActual","","","","","","907.0999999940395","","","","Images/NewTrialBC.png","","0"
"image-button-response","165","342789","0.0-13.0-1.35","19","Low_HMMActual","","","","","","null","","","","Images/BlackBeadChoice.png","","null"
"image-button-response","166","343290","0.0-13.0-2.35","19","Low_HMMActual","","","","","","null","","","","Images/BlackBeadChoiceWrong.png","","null"
"image-button-response","167","344778","0.0-13.0-0.36","19","Low_HMMActual","","","","","","1485.4000000059605","","","","Images/NewTrialWC.png","","2"
"image-button-response","168","345082","0.0-13.0-1.36","19","Low_HMMActual","","","","","","null","","","","Images/WhiteBeadChoice.png","","null"
"image-button-response","169","345587","0.0-13.0-2.36","19","Low_HMMActual","","","","","","null","","","","Images/WhiteBeadChoiceWrong.png","","null"
"image-button-response","170","346475","0.0-13.0-0.37","19","Low_HMMActual","","","","","","885.8000000119209","","","","Images/NewTrialBC.png","","1"
"image-button-response","171","346778","0.0-13.0-1.37","19","Low_HMMActual","","","","","","null","","","","Images/BlackBeadChoice.png","","null"
"image-button-response","172","347282","0.0-13.0-2.37","19","Low_HMMActual","","","","","","null","","","","Images/BlackBeadChoiceCorrect.png","","null"
"image-button-response","173","347977","0.0-13.0-0.38","19","Low_HMMActual","","","","","","692.5","","","","Images/NewTrialBC.png","","0"
"image-button-response","174","348282","0.0-13.0-1.38","19","Low_HMMActual","","","","","","null","","","","Images/BlackBeadChoice.png","","null"
"image-button-response","175","348789","0.0-13.0-2.38","19","Low_HMMActual","","","","","","null","","","","Images/BlackBeadChoiceCorrect.png","","null"
"image-button-response","176","349529","0.0-13.0-0.39","19","Low_HMMActual","","","","","","736.7999999821186","","","","Images/NewTrialBC.png","","0"
"image-button-response","177","349836","0.0-13.0-1.39","19","Low_HMMActual","","","","","","null","","","","Images/BlackBeadChoice.png","","null"
"image-button-response","178","350341","0.0-13.0-2.39","19","Low_HMMActual","","","","","","null","","","","Images/BlackBeadChoiceWrong.png","","null"
"image-button-response","179","353398","0.0-13.0-0.40","19","Low_HMMActual","","","","","","3054.5999999940395","","","","Images/NewTrialWC.png","","3"
"image-button-response","180","353705","0.0-13.0-1.40","19","Low_HMMActual","","","","","","null","","","","Images/WhiteBeadChoice.png","","null"
"image-button-response","181","354208","0.0-13.0-2.40","19","Low_HMMActual","","","","","","null","","","","Images/WhiteBeadChoiceCorrect.png","","null"
"image-button-response","182","355257","0.0-13.0-0.41","19","Low_HMMActual","","","","","","1045.9000000059605","","","","Images/NewTrialWC.png","","2"
"image-button-response","183","355564","0.0-13.0-1.41","19","Low_HMMActual","","","","","","null","","","","Images/WhiteBeadChoice.png","","null"
"image-button-response","184","356071","0.0-13.0-2.41","19","Low_HMMActual","","","","","","null","","","","Images/WhiteBeadChoiceCorrect.png","","null"
"image-button-response","185","357534","0.0-13.0-0.42","19","Low_HMMActual","","","","","","1461.5999999940395","","","","Images/NewTrialWC.png","","2"
"image-button-response","186","357841","0.0-13.0-1.42","19","Low_HMMActual","","","","","","null","","","","Images/WhiteBeadChoice.png","","null"
"image-button-response","187","358348","0.0-13.0-2.42","19","Low_HMMActual","","","","","","null","","","","Images/WhiteBeadChoiceWrong.png","","null"
"image-button-response","188","360256","0.0-13.0-0.43","19","Low_HMMActual","","","","","","1906.5","","","","Images/NewTrialBC.png","","0"
"image-button-response","189","360558","0.0-13.0-1.43","19","Low_HMMActual","","","","","","null","","","","Images/BlackBeadChoice.png","","null"
"image-button-response","190","361062","0.0-13.0-2.43","19","Low_HMMActual","","","","","","null","","","","Images/BlackBeadChoiceWrong.png","","null"
"image-button-response","191","362372","0.0-13.0-0.44","19","Low_HMMActual","","","","","","1308.3999999761581","","","","Images/NewTrialWC.png","","3"
"image-button-response","192","362680","0.0-13.0-1.44","19","Low_HMMActual","","","","","","null","","","","Images/WhiteBeadChoice.png","","null"
"image-button-response","193","363182","0.0-13.0-2.44","19","Low_HMMActual","","","","","","null","","","","Images/WhiteBeadChoiceWrong.png","","null"
"image-button-response","194","364215","0.0-13.0-0.45","19","Low_HMMActual","","","","","","1030.0999999940395","","","","Images/NewTrialBC.png","","1"
"image-button-response","195","364521","0.0-13.0-1.45","19","Low_HMMActual","","","","","","null","","","","Images/BlackBeadChoice.png","","null"
"image-button-response","196","365022","0.0-13.0-2.45","19","Low_HMMActual","","","","","","null","","","","Images/BlackBeadChoiceCorrect.png","","null"
"image-button-response","197","365798","0.0-13.0-0.46","19","Low_HMMActual","","","","","","773.7000000178814","","","","Images/NewTrialBC.png","","0"
"image-button-response","198","366105","0.0-13.0-1.46","19","Low_HMMActual","","","","","","null","","","","Images/BlackBeadChoice.png","","null"
"image-button-response","199","366612","0.0-13.0-2.46","19","Low_HMMActual","","","","","","null","","","","Images/BlackBeadChoiceWrong.png","","null"
"image-button-response","200","367892","0.0-13.0-0.47","19","Low_HMMActual","","","","","","1278.5","","","","Images/NewTrialWC.png","","3"
"image-button-response","201","368199","0.0-13.0-1.47","19","Low_HMMActual","","","","","","null","","","","Images/WhiteBeadChoice.png","","null"
"image-button-response","202","368706","0.0-13.0-2.47","19","Low_HMMActual","","","","","","null","","","","Images/WhiteBeadChoiceCorrect.png","","null"
"image-button-response","203","369668","0.0-13.0-0.48","19","Low_HMMActual","","","","","","960.2999999821186","","","","Images/NewTrialWC.png","","2"
"image-button-response","204","369972","0.0-13.0-1.48","19","Low_HMMActual","","","","","","null","","","","Images/WhiteBeadChoice.png","","null"
"image-button-response","205","370476","0.0-13.0-2.48","19","Low_HMMActual","","","","","","null","","","","Images/WhiteBeadChoiceCorrect.png","","null"
"image-button-response","206","371430","0.0-13.0-0.49","19","Low_HMMActual","","","","","","951.2000000178814","","","","Images/NewTrialWC.png","","2"
"image-button-response","207","371737","0.0-13.0-1.49","19","Low_HMMActual","","","","","","null","","","","Images/WhiteBeadChoice.png","","null"
"image-button-response","208","372242","0.0-13.0-2.49","19","Low_HMMActual","","","","","","null","","","","Images/WhiteBeadChoiceCorrect.png","","null"
"image-button-response","209","373530","0.0-13.0-0.50","19","Low_HMMActual","","","","","","1285.4000000059605","","","","Images/NewTrialWC.png","","2"
"image-button-response","210","373837","0.0-13.0-1.50","19","Low_HMMActual","","","","","","null","","","","Images/WhiteBeadChoice.png","","null"
"image-button-response","211","374341","0.0-13.0-2.50","19","Low_HMMActual","","","","","","null","","","","Images/WhiteBeadChoiceWrong.png","","null"
"image-button-response","212","375638","0.0-13.0-0.51","19","Low_HMMActual","","","","","","1295.4000000059605","","","","Images/NewTrialBC.png","","1"
"image-button-response","213","375940","0.0-13.0-1.51","19","Low_HMMActual","","","","","","null","","","","Images/BlackBeadChoice.png","","null"
"image-button-response","214","376442","0.0-13.0-2.51","19","Low_HMMActual","","","","","","null","","","","Images/BlackBeadChoiceCorrect.png","","null"
"image-button-response","215","376801","0.0-13.0-0.52","19","Low_HMMActual","","","","","","356.5","","","","Images/NewTrialBC.png","","0"
"image-button-response","216","377109","0.0-13.0-1.52","19","Low_HMMActual","","","","","","null","","","","Images/BlackBeadChoice.png","","null"
"image-button-response","217","377610","0.0-13.0-2.52","19","Low_HMMActual","","","","","","null","","","","Images/BlackBeadChoiceCorrect.png","","null"
"image-button-response","218","378255","0.0-13.0-0.53","19","Low_HMMActual","","","","","","642.0999999940395","","","","Images/NewTrialBC.png","","0"
"image-button-response","219","378557","0.0-13.0-1.53","19","Low_HMMActual","","","","","","null","","","","Images/BlackBeadChoice.png","","null"
"image-button-response","220","379072","0.0-13.0-2.53","19","Low_HMMActual","","","","","","null","","","","Images/BlackBeadChoiceWrong.png","","null"
"image-button-response","221","380324","0.0-13.0-0.54","19","Low_HMMActual","","","","","","1250.0999999940395","","","","Images/NewTrialWC.png","","2"
"image-button-response","222","380629","0.0-13.0-1.54","19","Low_HMMActual","","","","","","null","","","","Images/WhiteBeadChoice.png","","null"
"image-button-response","223","381136","0.0-13.0-2.54","19","Low_HMMActual","","","","","","null","","","","Images/WhiteBeadChoiceWrong.png","","null"
"image-button-response","224","382093","0.0-13.0-0.55","19","Low_HMMActual","","","","","","955.0999999940395","","","","Images/NewTrialBC.png","","0"
"image-button-response","225","382397","0.0-13.0-1.55","19","Low_HMMActual","","","","","","null","","","","Images/BlackBeadChoice.png","","null"
"image-button-response","226","382904","0.0-13.0-2.55","19","Low_HMMActual","","","","","","null","","","","Images/BlackBeadChoiceCorrect.png","","null"
"image-button-response","227","383474","0.0-13.0-0.56","19","Low_HMMActual","","","","","","568.1999999880791","","","","Images/NewTrialBC.png","","0"
"image-button-response","228","383780","0.0-13.0-1.56","19","Low_HMMActual","","","","","","null","","","","Images/BlackBeadChoice.png","","null"
"image-button-response","229","384287","0.0-13.0-2.56","19","Low_HMMActual","","","","","","null","","","","Images/BlackBeadChoiceCorrect.png","","null"
"image-button-response","230","384839","0.0-13.0-0.57","19","Low_HMMActual","","","","","","550.0999999940395","","","","Images/NewTrialBC.png","","0"
"image-button-response","231","385147","0.0-13.0-1.57","19","Low_HMMActual","","","","","","null","","","","Images/BlackBeadChoice.png","","null"
"image-button-response","232","385651","0.0-13.0-2.57","19","Low_HMMActual","","","","","","null","","","","Images/BlackBeadChoiceCorrect.png","","null"
"image-button-response","233","386092","0.0-13.0-0.58","19","Low_HMMActual","","","","","","438.59999999403954","","","","Images/NewTrialBC.png","","0"
"image-button-response","234","386396","0.0-13.0-1.58","19","Low_HMMActual","","","","","","null","","","","Images/BlackBeadChoice.png","","null"
"image-button-response","235","386900","0.0-13.0-2.58","19","Low_HMMActual","","","","","","null","","","","Images/BlackBeadChoiceCorrect.png","","null"
"image-button-response","236","387578","0.0-13.0-0.59","19","Low_HMMActual","","","","","","676.0999999940395","","","","Images/NewTrialBC.png","","0"
"image-button-response","237","387883","0.0-13.0-1.59","19","Low_HMMActual","","","","","","null","","","","Images/BlackBeadChoice.png","","null"
"image-button-response","238","388396","0.0-13.0-2.59","19","Low_HMMActual","","","","","","null","","","","Images/BlackBeadChoiceWrong.png","","null"
"image-button-response","239","390204","0.0-13.0-0.60","19","Low_HMMActual","","","","","","1806.7999999821186","","","","Images/NewTrialWC.png","","3"
"image-button-response","240","390508","0.0-13.0-1.60","19","Low_HMMActual","","","","","","null","","","","Images/WhiteBeadChoice.png","","null"
"image-button-response","241","391013","0.0-13.0-2.60","19","Low_HMMActual","","","","","","null","","","","Images/WhiteBeadChoiceCorrect.png","","null"
"image-button-response","242","392078","0.0-13.0-0.61","19","Low_HMMActual","","","","","","1063.0999999940395","","","","Images/NewTrialWC.png","","2"
"image-button-response","243","392381","0.0-13.0-1.61","19","Low_HMMActual","","","","","","null","","","","Images/WhiteBeadChoice.png","","null"
"image-button-response","244","392884","0.0-13.0-2.61","19","Low_HMMActual","","","","","","null","","","","Images/WhiteBeadChoiceCorrect.png","","null"
"image-button-response","245","393863","0.0-13.0-0.62","19","Low_HMMActual","","","","","","977.0999999940395","","","","Images/NewTrialWC.png","","2"
"image-button-response","246","394170","0.0-13.0-1.62","19","Low_HMMActual","","","","","","null","","","","Images/WhiteBeadChoice.png","","null"
"image-button-response","247","394672","0.0-13.0-2.62","19","Low_HMMActual","","","","","","null","","","","Images/WhiteBeadChoiceWrong.png","","null"
"image-button-response","248","395431","0.0-13.0-0.63","19","Low_HMMActual","","","","","","756.7999999821186","","","","Images/NewTrialBC.png","","0"
"image-button-response","249","395737","0.0-13.0-1.63","19","Low_HMMActual","","","","","","null","","","","Images/BlackBeadChoice.png","","null"
"image-button-response","250","396241","0.0-13.0-2.63","19","Low_HMMActual","","","","","","null","","","","Images/BlackBeadChoiceCorrect.png","","null"
"image-button-response","251","396610","0.0-13.0-0.64","19","Low_HMMActual","","","","","","367","","","","Images/NewTrialBC.png","","0"
"image-button-response","252","396917","0.0-13.0-1.64","19","Low_HMMActual","","","","","","null","","","","Images/BlackBeadChoice.png","","null"
"image-button-response","253","397423","0.0-13.0-2.64","19","Low_HMMActual","","","","","","null","","","","Images/BlackBeadChoiceWrong.png","","null"
"image-button-response","254","398993","0.0-13.0-0.65","19","Low_HMMActual","","","","","","1568.2999999821186","","","","Images/NewTrialWC.png","","3"
"image-button-response","255","399297","0.0-13.0-1.65","19","Low_HMMActual","","","","","","null","","","","Images/WhiteBeadChoice.png","","null"
"image-button-response","256","399800","0.0-13.0-2.65","19","Low_HMMActual","","","","","","null","","","","Images/WhiteBeadChoiceWrong.png","","null"
"image-button-response","257","400447","0.0-13.0-0.66","19","Low_HMMActual","","","","","","645.5999999940395","","","","Images/NewTrialBC.png","","0"
"image-button-response","258","400754","0.0-13.0-1.66","19","Low_HMMActual","","","","","","null","","","","Images/BlackBeadChoice.png","","null"
"image-button-response","259","401256","0.0-13.0-2.66","19","Low_HMMActual","","","","","","null","","","","Images/BlackBeadChoiceCorrect.png","","null"
"image-button-response","260","401877","0.0-13.0-0.67","19","Low_HMMActual","","","","","","618.9000000059605","","","","Images/NewTrialBC.png","","0"
"image-button-response","261","402181","0.0-13.0-1.67","19","Low_HMMActual","","","","","","null","","","","Images/BlackBeadChoice.png","","null"
"image-button-response","262","402684","0.0-13.0-2.67","19","Low_HMMActual","","","","","","null","","","","Images/BlackBeadChoiceCorrect.png","","null"
"image-button-response","263","403428","0.0-13.0-0.68","19","Low_HMMActual","","","","","","737.0999999940395","","","","Images/NewTrialBC.png","","0"
"image-button-response","264","403737","0.0-13.0-1.68","19","Low_HMMActual","","","","","","null","","","","Images/BlackBeadChoice.png","","null"
"image-button-response","265","404244","0.0-13.0-2.68","19","Low_HMMActual","","","","","","null","","","","Images/BlackBeadChoiceWrong.png","","null"
"image-button-response","266","406077","0.0-13.0-0.69","19","Low_HMMActual","","","","","","1831","","","","Images/NewTrialWC.png","","3"
"image-button-response","267","406379","0.0-13.0-1.69","19","Low_HMMActual","","","","","","null","","","","Images/WhiteBeadChoice.png","","null"
"image-button-response","268","406883","0.0-13.0-2.69","19","Low_HMMActual","","","","","","null","","","","Images/WhiteBeadChoiceWrong.png","","null"
"image-button-response","269","407467","0.0-13.0-0.70","19","Low_HMMActual","","","","","","581.7999999821186","","","","Images/NewTrialBC.png","","0"
"image-button-response","270","407769","0.0-13.0-1.70","19","Low_HMMActual","","","","","","null","","","","Images/BlackBeadChoice.png","","null"
"image-button-response","271","408273","0.0-13.0-2.70","19","Low_HMMActual","","","","","","null","","","","Images/BlackBeadChoiceWrong.png","","null"
"image-button-response","272","409284","0.0-13.0-0.71","19","Low_HMMActual","","","","","","1008.7999999821186","","","","Images/NewTrialWC.png","","2"
"image-button-response","273","409592","0.0-13.0-1.71","19","Low_HMMActual","","","","","","null","","","","Images/WhiteBeadChoice.png","","null"
"image-button-response","274","410097","0.0-13.0-2.71","19","Low_HMMActual","","","","","","null","","","","Images/WhiteBeadChoiceWrong.png","","null"
"image-button-response","275","413857","0.0-13.0-0.72","19","Low_HMMActual","","","","","","3757.7000000178814","","","","Images/NewTrialBC.png","","0"
"image-button-response","276","414162","0.0-13.0-1.72","19","Low_HMMActual","","","","","","null","","","","Images/BlackBeadChoice.png","","null"
"image-button-response","277","414668","0.0-13.0-2.72","19","Low_HMMActual","","","","","","null","","","","Images/BlackBeadChoiceCorrect.png","","null"
"image-button-response","278","415296","0.0-13.0-0.73","19","Low_HMMActual","","","","","","625.6000000238419","","","","Images/NewTrialBC.png","","0"
"image-button-response","279","415599","0.0-13.0-1.73","19","Low_HMMActual","","","","","","null","","","","Images/BlackBeadChoice.png","","null"
"image-button-response","280","416104","0.0-13.0-2.73","19","Low_HMMActual","","","","","","null","","","","Images/BlackBeadChoiceCorrect.png","","null"
"image-button-response","281","416660","0.0-13.0-0.74","19","Low_HMMActual","","","","","","553.4000000059605","","","","Images/NewTrialBC.png","","0"
"image-button-response","282","416969","0.0-13.0-1.74","19","Low_HMMActual","","","","","","null","","","","Images/BlackBeadChoice.png","","null"
"image-button-response","283","417476","0.0-13.0-2.74","19","Low_HMMActual","","","","","","null","","","","Images/BlackBeadChoiceCorrect.png","","null"
"image-button-response","284","418178","0.0-13.0-0.75","19","Low_HMMActual","","","","","","700.4000000059605","","","","Images/NewTrialBC.png","","0"
"image-button-response","285","418484","0.0-13.0-1.75","19","Low_HMMActual","","","","","","null","","","","Images/BlackBeadChoice.png","","null"
"image-button-response","286","418990","0.0-13.0-2.75","19","Low_HMMActual","","","","","","null","","","","Images/BlackBeadChoiceCorrect.png","","null"
"image-button-response","287","419673","0.0-13.0-0.76","19","Low_HMMActual","","","","","","680.3000000119209","","","","Images/NewTrialBC.png","","0"
"image-button-response","288","419978","0.0-13.0-1.76","19","Low_HMMActual","","","","","","null","","","","Images/BlackBeadChoice.png","","null"
"image-button-response","289","420482","0.0-13.0-2.76","19","Low_HMMActual","","","","","","null","","","","Images/BlackBeadChoiceCorrect.png","","null"
"image-button-response","290","421329","0.0-13.0-0.77","19","Low_HMMActual","","","","","","844.8000000119209","","","","Images/NewTrialBC.png","","0"
"image-button-response","291","421635","0.0-13.0-1.77","19","Low_HMMActual","","","","","","null","","","","Images/BlackBeadChoice.png","","null"
"image-button-response","292","422142","0.0-13.0-2.77","19","Low_HMMActual","","","","","","null","","","","Images/BlackBeadChoiceWrong.png","","null"
"image-button-response","293","423082","0.0-13.0-0.78","19","Low_HMMActual","","","","","","932.1999999880791","","","","Images/NewTrialWC.png","","2"
"image-button-response","294","423385","0.0-13.0-1.78","19","Low_HMMActual","","","","","","null","","","","Images/WhiteBeadChoice.png","","null"
"image-button-response","295","423889","0.0-13.0-2.78","19","Low_HMMActual","","","","","","null","","","","Images/WhiteBeadChoiceWrong.png","","null"
"image-button-response","296","424318","0.0-13.0-0.79","19","Low_HMMActual","","","","","","427.5","","","","Images/NewTrialBC.png","","0"
"image-button-response","297","424624","0.0-13.0-1.79","19","Low_HMMActual","","","","","","null","","","","Images/BlackBeadChoice.png","","null"
"image-button-response","298","425126","0.0-13.0-2.79","19","Low_HMMActual","","","","","","null","","","","Images/BlackBeadChoiceCorrect.png","","null"
"image-button-response","299","425667","0.0-13.0-0.80","19","Low_HMMActual","","","","","","539.4000000059605","","","","Images/NewTrialBC.png","","0"
"image-button-response","300","425975","0.0-13.0-1.80","19","Low_HMMActual","","","","","","null","","","","Images/BlackBeadChoice.png","","null"
"image-button-response","301","426484","0.0-13.0-2.80","19","Low_HMMActual","","","","","","null","","","","Images/BlackBeadChoiceWrong.png","","null"
"image-button-response","302","428478","0.0-13.0-0.81","19","Low_HMMActual","","","","","","1992.5999999940395","","","","Images/NewTrialWC.png","","3"
"image-button-response","303","428783","0.0-13.0-1.81","19","Low_HMMActual","","","","","","null","","","","Images/WhiteBeadChoice.png","","null"
"image-button-response","304","429290","0.0-13.0-2.81","19","Low_HMMActual","","","","","","null","","","","Images/WhiteBeadChoiceCorrect.png","","null"
"image-button-response","305","430474","0.0-13.0-0.82","19","Low_HMMActual","","","","","","1181.5","","","","Images/NewTrialWC.png","","2"
"image-button-response","306","430778","0.0-13.0-1.82","19","Low_HMMActual","","","","","","null","","","","Images/WhiteBeadChoice.png","","null"
"image-button-response","307","431280","0.0-13.0-2.82","19","Low_HMMActual","","","","","","null","","","","Images/WhiteBeadChoiceWrong.png","","null"
"image-button-response","308","432259","0.0-13.0-0.83","19","Low_HMMActual","","","","","","976.2999999821186","","","","Images/NewTrialBC.png","","0"
"image-button-response","309","432566","0.0-13.0-1.83","19","Low_HMMActual","","","","","","null","","","","Images/BlackBeadChoice.png","","null"
"image-button-response","310","433071","0.0-13.0-2.83","19","Low_HMMActual","","","","","","null","","","","Images/BlackBeadChoiceCorrect.png","","null"
"image-button-response","311","433714","0.0-13.0-0.84","19","Low_HMMActual","","","","","","640.5","","","","Images/NewTrialBC.png","","0"
"image-button-response","312","434021","0.0-13.0-1.84","19","Low_HMMActual","","","","","","null","","","","Images/BlackBeadChoice.png","","null"
"image-button-response","313","434528","0.0-13.0-2.84","19","Low_HMMActual","","","","","","null","","","","Images/BlackBeadChoiceCorrect.png","","null"
"image-button-response","314","435289","0.0-13.0-0.85","19","Low_HMMActual","","","","","","758","","","","Images/NewTrialBC.png","","0"
"image-button-response","315","435593","0.0-13.0-1.85","19","Low_HMMActual","","","","","","null","","","","Images/BlackBeadChoice.png","","null"
"image-button-response","316","436097","0.0-13.0-2.85","19","Low_HMMActual","","","","","","null","","","","Images/BlackBeadChoiceCorrect.png","","null"
"image-button-response","317","436952","0.0-13.0-0.86","19","Low_HMMActual","","","","","","853.3000000119209","","","","Images/NewTrialBC.png","","0"
"image-button-response","318","437254","0.0-13.0-1.86","19","Low_HMMActual","","","","","","null","","","","Images/BlackBeadChoice.png","","null"
"image-button-response","319","437759","0.0-13.0-2.86","19","Low_HMMActual","","","","","","null","","","","Images/BlackBeadChoiceWrong.png","","null"
"image-button-response","320","439214","0.0-13.0-0.87","19","Low_HMMActual","","","","","","1454.0999999940395","","","","Images/NewTrialWC.png","","3"
"image-button-response","321","439521","0.0-13.0-1.87","19","Low_HMMActual","","","","","","null","","","","Images/WhiteBeadChoice.png","","null"
"image-button-response","322","440023","0.0-13.0-2.87","19","Low_HMMActual","","","","","","null","","","","Images/WhiteBeadChoiceCorrect.png","","null"
"image-button-response","323","440724","0.0-13.0-0.88","19","Low_HMMActual","","","","","","699.0999999940395","","","","Images/NewTrialWC.png","","2"
"image-button-response","324","441031","0.0-13.0-1.88","19","Low_HMMActual","","","","","","null","","","","Images/WhiteBeadChoice.png","","null"
"image-button-response","325","441533","0.0-13.0-2.88","19","Low_HMMActual","","","","","","null","","","","Images/WhiteBeadChoiceCorrect.png","","null"
"image-button-response","326","442390","0.0-13.0-0.89","19","Low_HMMActual","","","","","","854.8000000119209","","","","Images/NewTrialWC.png","","2"
"image-button-response","327","442693","0.0-13.0-1.89","19","Low_HMMActual","","","","","","null","","","","Images/WhiteBeadChoice.png","","null"
"image-button-response","328","443200","0.0-13.0-2.89","19","Low_HMMActual","","","","","","null","","","","Images/WhiteBeadChoiceWrong.png","","null"
"image-button-response","329","443827","0.0-13.0-0.90","19","Low_HMMActual","","","","","","625","","","","Images/NewTrialBC.png","","1"
"image-button-response","330","444129","0.0-13.0-1.90","19","Low_HMMActual","","","","","","null","","","","Images/BlackBeadChoice.png","","null"
"image-button-response","331","444632","0.0-13.0-2.90","19","Low_HMMActual","","","","","","null","","","","Images/BlackBeadChoiceCorrect.png","","null"
"image-button-response","332","444966","0.0-13.0-0.91","19","Low_HMMActual","","","","","","332","","","","Images/NewTrialBC.png","","0"
"image-button-response","333","445273","0.0-13.0-1.91","19","Low_HMMActual","","","","","","null","","","","Images/BlackBeadChoice.png","","null"
"image-button-response","334","445781","0.0-13.0-2.91","19","Low_HMMActual","","","","","","null","","","","Images/BlackBeadChoiceCorrect.png","","null"
"image-button-response","335","446412","0.0-13.0-0.92","19","Low_HMMActual","","","","","","629.5999999940395","","","","Images/NewTrialBC.png","","0"
"image-button-response","336","446719","0.0-13.0-1.92","19","Low_HMMActual","","","","","","null","","","","Images/BlackBeadChoice.png","","null"
"image-button-response","337","447226","0.0-13.0-2.92","19","Low_HMMActual","","","","","","null","","","","Images/BlackBeadChoiceWrong.png","","null"
"image-button-response","338","448505","0.0-13.0-0.93","19","Low_HMMActual","","","","","","1277.0999999940395","","","","Images/NewTrialWC.png","","2"
"image-button-response","339","448811","0.0-13.0-1.93","19","Low_HMMActual","","","","","","null","","","","Images/WhiteBeadChoice.png","","null"
"image-button-response","340","449318","0.0-13.0-2.93","19","Low_HMMActual","","","","","","null","","","","Images/WhiteBeadChoiceCorrect.png","","null"
"image-button-response","341","450169","0.0-13.0-0.94","19","Low_HMMActual","","","","","","848.1999999880791","","","","Images/NewTrialWC.png","","2"
"image-button-response","342","450476","0.0-13.0-1.94","19","Low_HMMActual","","","","","","null","","","","Images/WhiteBeadChoice.png","","null"
"image-button-response","343","450978","0.0-13.0-2.94","19","Low_HMMActual","","","","","","null","","","","Images/WhiteBeadChoiceWrong.png","","null"
"image-button-response","344","452301","0.0-13.0-0.95","19","Low_HMMActual","","","","","","1321","","","","Images/NewTrialBC.png","","1"
"image-button-response","345","452609","0.0-13.0-1.95","19","Low_HMMActual","","","","","","null","","","","Images/BlackBeadChoice.png","","null"
"image-button-response","346","453110","0.0-13.0-2.95","19","Low_HMMActual","","","","","","null","","","","Images/BlackBeadChoiceCorrect.png","","null"
"image-button-response","347","453820","0.0-13.0-0.96","19","Low_HMMActual","","","","","","707.6000000238419","","","","Images/NewTrialBC.png","","0"
"image-button-response","348","454124","0.0-13.0-1.96","19","Low_HMMActual","","","","","","null","","","","Images/BlackBeadChoice.png","","null"
"image-button-response","349","454630","0.0-13.0-2.96","19","Low_HMMActual","","","","","","null","","","","Images/BlackBeadChoiceCorrect.png","","null"
"image-button-response","350","455088","0.0-13.0-0.97","19","Low_HMMActual","","","","","","456.10000002384186","","","","Images/NewTrialBC.png","","0"
"image-button-response","351","455392","0.0-13.0-1.97","19","Low_HMMActual","","","","","","null","","","","Images/BlackBeadChoice.png","","null"
"image-button-response","352","455897","0.0-13.0-2.97","19","Low_HMMActual","","","","","","null","","","","Images/BlackBeadChoiceCorrect.png","","null"
"image-button-response","353","456735","0.0-13.0-0.98","19","Low_HMMActual","","","","","","836.5","","","","Images/NewTrialBC.png","","0"
"image-button-response","354","457044","0.0-13.0-1.98","19","Low_HMMActual","","","","","","null","","","","Images/BlackBeadChoice.png","","null"
"image-button-response","355","457551","0.0-13.0-2.98","19","Low_HMMActual","","","","","","null","","","","Images/BlackBeadChoiceWrong.png","","null"
"image-button-response","356","458609","0.0-13.0-0.99","19","Low_HMMActual","","","","","","1056.300000011921","","","","Images/NewTrialWC.png","","3"
"image-button-response","357","458911","0.0-13.0-1.99","19","Low_HMMActual","","","","","","null","","","","Images/WhiteBeadChoice.png","","null"
"image-button-response","358","459416","0.0-13.0-2.99","19","Low_HMMActual","","","","","","null","","","","Images/WhiteBeadChoiceWrong.png","","null"
"image-button-response","359","460063","0.0-13.0-0.100","19","Low_HMMActual","","","","","","644.9000000059605","","","","Images/NewTrialBC.png","","0"
"image-button-response","360","460365","0.0-13.0-1.100","19","Low_HMMActual","","","","","","null","","","","Images/BlackBeadChoice.png","","null"
"image-button-response","361","460869","0.0-13.0-2.100","19","Low_HMMActual","","","","","","null","","","","Images/BlackBeadChoiceWrong.png","","null"
"image-button-response","362","462221","0.0-13.0-0.101","19","Low_HMMActual","","","","","","1350.199999988079","","","","Images/NewTrialWC.png","","2"
"image-button-response","363","462527","0.0-13.0-1.101","19","Low_HMMActual","","","","","","null","","","","Images/WhiteBeadChoice.png","","null"
"image-button-response","364","463030","0.0-13.0-2.101","19","Low_HMMActual","","","","","","null","","","","Images/WhiteBeadChoiceCorrect.png","","null"
"image-button-response","365","464161","0.0-13.0-0.102","19","Low_HMMActual","","","","","","1128.3999999761581","","","","Images/NewTrialWC.png","","2"
"image-button-response","366","464466","0.0-13.0-1.102","19","Low_HMMActual","","","","","","null","","","","Images/WhiteBeadChoice.png","","null"
"image-button-response","367","464974","0.0-13.0-2.102","19","Low_HMMActual","","","","","","null","","","","Images/WhiteBeadChoiceCorrect.png","","null"
"image-button-response","368","465986","0.0-13.0-0.103","19","Low_HMMActual","","","","","","1009.9000000059605","","","","Images/NewTrialWC.png","","2"
"image-button-response","369","466292","0.0-13.0-1.103","19","Low_HMMActual","","","","","","null","","","","Images/WhiteBeadChoice.png","","null"
"image-button-response","370","466799","0.0-13.0-2.103","19","Low_HMMActual","","","","","","null","","","","Images/WhiteBeadChoiceWrong.png","","null"
"image-button-response","371","467675","0.0-13.0-0.104","19","Low_HMMActual","","","","","","872.5999999940395","","","","Images/NewTrialBC.png","","1"
"image-button-response","372","467979","0.0-13.0-1.104","19","Low_HMMActual","","","","","","null","","","","Images/BlackBeadChoice.png","","null"
"image-button-response","373","468483","0.0-13.0-2.104","19","Low_HMMActual","","","","","","null","","","","Images/BlackBeadChoiceWrong.png","","null"
"image-button-response","374","469249","0.0-13.0-0.105","19","Low_HMMActual","","","","","","764.8000000119209","","","","Images/NewTrialWC.png","","2"
"image-button-response","375","469556","0.0-13.0-1.105","19","Low_HMMActual","","","","","","null","","","","Images/WhiteBeadChoice.png","","null"
"image-button-response","376","470062","0.0-13.0-2.105","19","Low_HMMActual","","","","","","null","","","","Images/WhiteBeadChoiceCorrect.png","","null"
"image-button-response","377","470816","0.0-13.0-0.106","19","Low_HMMActual","","","","","","752","","","","Images/NewTrialWC.png","","2"
"image-button-response","378","471119","0.0-13.0-1.106","19","Low_HMMActual","","","","","","null","","","","Images/WhiteBeadChoice.png","","null"
"image-button-response","379","471626","0.0-13.0-2.106","19","Low_HMMActual","","","","","","null","","","","Images/WhiteBeadChoiceCorrect.png","","null"
"image-button-response","380","472108","0.0-13.0-0.107","19","Low_HMMActual","","","","","","479.59999999403954","","","","Images/NewTrialWC.png","","2"
"image-button-response","381","472417","0.0-13.0-1.107","19","Low_HMMActual","","","","","","null","","","","Images/WhiteBeadChoice.png","","null"
"image-button-response","382","472921","0.0-13.0-2.107","19","Low_HMMActual","","","","","","null","","","","Images/WhiteBeadChoiceCorrect.png","","null"
"image-button-response","383","473749","0.0-13.0-0.108","19","Low_HMMActual","","","","","","824.6000000238419","","","","Images/NewTrialWC.png","","2"
"image-button-response","384","474056","0.0-13.0-1.108","19","Low_HMMActual","","","","","","null","","","","Images/WhiteBeadChoice.png","","null"
"image-button-response","385","474559","0.0-13.0-2.108","19","Low_HMMActual","","","","","","null","","","","Images/WhiteBeadChoiceCorrect.png","","null"
"image-button-response","386","475809","0.0-13.0-0.109","19","Low_HMMActual","","","","","","1247.7000000178814","","","","Images/NewTrialWC.png","","2"
"image-button-response","387","476113","0.0-13.0-1.109","19","Low_HMMActual","","","","","","null","","","","Images/WhiteBeadChoice.png","","null"
"image-button-response","388","476620","0.0-13.0-2.109","19","Low_HMMActual","","","","","","null","","","","Images/WhiteBeadChoiceCorrect.png","","null"
"image-button-response","389","477683","0.0-13.0-0.110","19","Low_HMMActual","","","","","","1058.9000000059605","","","","Images/NewTrialWC.png","","2"
"image-button-response","390","477984","0.0-13.0-1.110","19","Low_HMMActual","","","","","","null","","","","Images/WhiteBeadChoice.png","","null"
"image-button-response","391","478491","0.0-13.0-2.110","19","Low_HMMActual","","","","","","null","","","","Images/WhiteBeadChoiceWrong.png","","null"
"image-button-response","392","480914","0.0-13.0-0.111","19","Low_HMMActual","","","","","","2421.5","","","","Images/NewTrialBC.png","","3"
"image-button-response","393","481221","0.0-13.0-1.111","19","Low_HMMActual","","","","","","null","","","","Images/WhiteBeadChoice.png","","null"
"image-button-response","394","481725","0.0-13.0-2.111","19","Low_HMMActual","","","","","","null","","","","Images/WhiteBeadChoiceWrong.png","","null"
"image-button-response","395","482384","0.0-13.0-0.112","19","Low_HMMActual","","","","","","656.5999999940395","","","","Images/NewTrialBC.png","","1"
"image-button-response","396","482690","0.0-13.0-1.112","19","Low_HMMActual","","","","","","null","","","","Images/BlackBeadChoice.png","","null"
"image-button-response","397","483194","0.0-13.0-2.112","19","Low_HMMActual","","","","","","null","","","","Images/BlackBeadChoiceWrong.png","","null"
"image-button-response","398","484395","0.0-13.0-0.113","19","Low_HMMActual","","","","","","1198","","","","Images/NewTrialWC.png","","3"
"image-button-response","399","484700","0.0-13.0-1.113","19","Low_HMMActual","","","","","","null","","","","Images/WhiteBeadChoice.png","","null"
"image-button-response","400","485206","0.0-13.0-2.113","19","Low_HMMActual","","","","","","null","","","","Images/WhiteBeadChoiceCorrect.png","","null"
"image-button-response","401","485995","0.0-13.0-0.114","19","Low_HMMActual","","","","","","781.8999999761581","","","","Images/NewTrialWC.png","","2"
"image-button-response","402","486301","0.0-13.0-1.114","19","Low_HMMActual","","","","","","null","","","","Images/WhiteBeadChoice.png","","null"
"image-button-response","403","486809","0.0-13.0-2.114","19","Low_HMMActual","","","","","","null","","","","Images/WhiteBeadChoiceCorrect.png","","null"
"image-button-response","404","487521","0.0-13.0-0.115","19","Low_HMMActual","","","","","","709.8000000119209","","","","Images/NewTrialWC.png","","2"
"image-button-response","405","487826","0.0-13.0-1.115","19","Low_HMMActual","","","","","","null","","","","Images/WhiteBeadChoice.png","","null"
"image-button-response","406","488334","0.0-13.0-2.115","19","Low_HMMActual","","","","","","null","","","","Images/WhiteBeadChoiceCorrect.png","","null"
"image-button-response","407","489477","0.0-13.0-0.116","19","Low_HMMActual","","","","","","1139.300000011921","","","","Images/NewTrialWC.png","","2"
"image-button-response","408","489782","0.0-13.0-1.116","19","Low_HMMActual","","","","","","null","","","","Images/WhiteBeadChoice.png","","null"
"image-button-response","409","490285","0.0-13.0-2.116","19","Low_HMMActual","","","","","","null","","","","Images/WhiteBeadChoiceWrong.png","","null"
"image-button-response","410","491197","0.0-13.0-0.117","19","Low_HMMActual","","","","","","910.9000000059605","","","","Images/NewTrialBC.png","","1"
"image-button-response","411","491500","0.0-13.0-1.117","19","Low_HMMActual","","","","","","null","","","","Images/BlackBeadChoice.png","","null"
"image-button-response","412","492002","0.0-13.0-2.117","19","Low_HMMActual","","","","","","null","","","","Images/BlackBeadChoiceCorrect.png","","null"
"image-button-response","413","492450","0.0-13.0-0.118","19","Low_HMMActual","","","","","","445.39999997615814","","","","Images/NewTrialBC.png","","0"
"image-button-response","414","492757","0.0-13.0-1.118","19","Low_HMMActual","","","","","","null","","","","Images/BlackBeadChoice.png","","null"
"image-button-response","415","493259","0.0-13.0-2.118","19","Low_HMMActual","","","","","","null","","","","Images/BlackBeadChoiceCorrect.png","","null"
"image-button-response","416","493943","0.0-13.0-0.119","19","Low_HMMActual","","","","","","680.6999999880791","","","","Images/NewTrialBC.png","","0"
"image-button-response","417","494248","0.0-13.0-1.119","19","Low_HMMActual","","","","","","null","","","","Images/BlackBeadChoice.png","","null"
"image-button-response","418","494755","0.0-13.0-2.119","19","Low_HMMActual","","","","","","null","","","","Images/BlackBeadChoiceCorrect.png","","null"
"image-button-response","419","495770","0.0-13.0-0.120","19","Low_HMMActual","","","","","","1012.8000000119209","","","","Images/NewTrialBC.png","","0"
"image-button-response","420","496077","0.0-13.0-1.120","19","Low_HMMActual","","","","","","null","","","","Images/BlackBeadChoice.png","","null"
"image-button-response","421","496590","0.0-13.0-2.120","19","Low_HMMActual","","","","","","null","","","","Images/BlackBeadChoiceWrong.png","","null"
"image-button-response","422","498589","0.0-13.0-0.121","19","Low_HMMActual","","","","","","1997.199999988079","","","","Images/NewTrialWC.png","","1"
"image-button-response","423","498896","0.0-13.0-1.121","19","Low_HMMActual","","","","","","null","","","","Images/BlackBeadChoice.png","","null"
"image-button-response","424","499399","0.0-13.0-2.121","19","Low_HMMActual","","","","","","null","","","","Images/BlackBeadChoiceWrong.png","","null"
"image-button-response","425","500236","0.0-13.0-0.122","19","Low_HMMActual","","","","","","835.6000000238419","","","","Images/NewTrialWC.png","","2"
"image-button-response","426","500543","0.0-13.0-1.122","19","Low_HMMActual","","","","","","null","","","","Images/WhiteBeadChoice.png","","null"
"image-button-response","427","501051","0.0-13.0-2.122","19","Low_HMMActual","","","","","","null","","","","Images/WhiteBeadChoiceCorrect.png","","null"
"image-button-response","428","501908","0.0-13.0-0.123","19","Low_HMMActual","","","","","","855.5999999940395","","","","Images/NewTrialWC.png","","2"
"image-button-response","429","502212","0.0-13.0-1.123","19","Low_HMMActual","","","","","","null","","","","Images/WhiteBeadChoice.png","","null"
"image-button-response","430","502718","0.0-13.0-2.123","19","Low_HMMActual","","","","","","null","","","","Images/WhiteBeadChoiceWrong.png","","null"
"image-button-response","431","503856","0.0-13.0-0.124","19","Low_HMMActual","","","","","","1130","","","","Images/NewTrialBC.png","","1"
"image-button-response","432","504163","0.0-13.0-1.124","19","Low_HMMActual","","","","","","null","","","","Images/BlackBeadChoice.png","","null"
"image-button-response","433","504666","0.0-13.0-2.124","19","Low_HMMActual","","","","","","null","","","","Images/BlackBeadChoiceCorrect.png","","null"
"image-button-response","434","505252","0.0-13.0-0.125","19","Low_HMMActual","","","","","","584.1000000238419","","","","Images/NewTrialBC.png","","0"
"image-button-response","435","505558","0.0-13.0-1.125","19","Low_HMMActual","","","","","","null","","","","Images/BlackBeadChoice.png","","null"
"image-button-response","436","506060","0.0-13.0-2.125","19","Low_HMMActual","","","","","","null","","","","Images/BlackBeadChoiceWrong.png","","null"
"image-button-response","437","507386","0.0-13.0-0.126","19","Low_HMMActual","","","","","","1323.2000000178814","","","","Images/NewTrialWC.png","","3"
"image-button-response","438","507694","0.0-13.0-1.126","19","Low_HMMActual","","","","","","null","","","","Images/WhiteBeadChoice.png","","null"
"image-button-response","439","508196","0.0-13.0-2.126","19","Low_HMMActual","","","","","","null","","","","Images/WhiteBeadChoiceWrong.png","","null"
"image-button-response","440","508904","0.0-13.0-0.127","19","Low_HMMActual","","","","","","705.5999999940395","","","","Images/NewTrialBC.png","","0"
"image-button-response","441","509212","0.0-13.0-1.127","19","Low_HMMActual","","","","","","null","","","","Images/BlackBeadChoice.png","","null"
"image-button-response","442","509718","0.0-13.0-2.127","19","Low_HMMActual","","","","","","null","","","","Images/BlackBeadChoiceCorrect.png","","null"
"image-button-response","443","510011","0.0-13.0-0.128","19","Low_HMMActual","","","","","","290.40000000596046","","","","Images/NewTrialBC.png","","0"
"image-button-response","444","510315","0.0-13.0-1.128","19","Low_HMMActual","","","","","","null","","","","Images/BlackBeadChoice.png","","null"
"image-button-response","445","510818","0.0-13.0-2.128","19","Low_HMMActual","","","","","","null","","","","Images/BlackBeadChoiceCorrect.png","","null"
"image-button-response","446","511667","0.0-13.0-0.129","19","Low_HMMActual","","","","","","846.7000000178814","","","","Images/NewTrialBC.png","","0"
"image-button-response","447","511974","0.0-13.0-1.129","19","Low_HMMActual","","","","","","null","","","","Images/BlackBeadChoice.png","","null"
"image-button-response","448","512479","0.0-13.0-2.129","19","Low_HMMActual","","","","","","null","","","","Images/BlackBeadChoiceCorrect.png","","null"
"image-button-response","449","513057","0.0-13.0-0.130","19","Low_HMMActual","","","","","","576","","","","Images/NewTrialBC.png","","0"
"image-button-response","450","513359","0.0-13.0-1.130","19","Low_HMMActual","","","","","","null","","","","Images/BlackBeadChoice.png","","null"
"image-button-response","451","513861","0.0-13.0-2.130","19","Low_HMMActual","","","","","","null","","","","Images/BlackBeadChoiceCorrect.png","","null"
"image-button-response","452","514842","0.0-13.0-0.131","19","Low_HMMActual","","","","","","979","","","","Images/NewTrialBC.png","","0"
"image-button-response","453","515146","0.0-13.0-1.131","19","Low_HMMActual","","","","","","null","","","","Images/BlackBeadChoice.png","","null"
"image-button-response","454","515648","0.0-13.0-2.131","19","Low_HMMActual","","","","","","null","","","","Images/BlackBeadChoiceCorrect.png","","null"
"image-button-response","455","516635","0.0-13.0-0.132","19","Low_HMMActual","","","","","","984.0999999940395","","","","Images/NewTrialBC.png","","0"
"image-button-response","456","516939","0.0-13.0-1.132","19","Low_HMMActual","","","","","","null","","","","Images/BlackBeadChoice.png","","null"
"image-button-response","457","517442","0.0-13.0-2.132","19","Low_HMMActual","","","","","","null","","","","Images/BlackBeadChoiceCorrect.png","","null"
"image-button-response","458","518493","0.0-13.0-0.133","19","Low_HMMActual","","","","","","1047.5","","","","Images/NewTrialBC.png","","0"
"image-button-response","459","518798","0.0-13.0-1.133","19","Low_HMMActual","","","","","","null","","","","Images/BlackBeadChoice.png","","null"
"image-button-response","460","519304","0.0-13.0-2.133","19","Low_HMMActual","","","","","","null","","","","Images/BlackBeadChoiceCorrect.png","","null"
"image-button-response","461","520116","0.0-13.0-0.134","19","Low_HMMActual","","","","","","808.5999999940395","","","","Images/NewTrialBC.png","","0"
"image-button-response","462","520423","0.0-13.0-1.134","19","Low_HMMActual","","","","","","null","","","","Images/BlackBeadChoice.png","","null"
"image-button-response","463","520926","0.0-13.0-2.134","19","Low_HMMActual","","","","","","null","","","","Images/BlackBeadChoiceCorrect.png","","null"
"image-button-response","464","521675","0.0-13.0-0.135","19","Low_HMMActual","","","","","","747.3000000119209","","","","Images/NewTrialBC.png","","0"
"image-button-response","465","521979","0.0-13.0-1.135","19","Low_HMMActual","","","","","","null","","","","Images/BlackBeadChoice.png","","null"
"image-button-response","466","522484","0.0-13.0-2.135","19","Low_HMMActual","","","","","","null","","","","Images/BlackBeadChoiceWrong.png","","null"
"image-button-response","467","524074","0.0-13.0-0.136","19","Low_HMMActual","","","","","","1588.800000011921","","","","Images/NewTrialWC.png","","3"
"image-button-response","468","524381","0.0-13.0-1.136","19","Low_HMMActual","","","","","","null","","","","Images/WhiteBeadChoice.png","","null"
"image-button-response","469","524888","0.0-13.0-2.136","19","Low_HMMActual","","","","","","null","","","","Images/WhiteBeadChoiceCorrect.png","","null"
"image-button-response","470","526143","0.0-13.0-0.137","19","Low_HMMActual","","","","","","1251.1000000238419","","","","Images/NewTrialWC.png","","2"
"image-button-response","471","526446","0.0-13.0-1.137","19","Low_HMMActual","","","","","","null","","","","Images/WhiteBeadChoice.png","","null"
"image-button-response","472","526953","0.0-13.0-2.137","19","Low_HMMActual","","","","","","null","","","","Images/WhiteBeadChoiceCorrect.png","","null"
"image-button-response","473","528162","0.0-13.0-0.138","19","Low_HMMActual","","","","","","1206.5","","","","Images/NewTrialWC.png","","2"
"image-button-response","474","528467","0.0-13.0-1.138","19","Low_HMMActual","","","","","","null","","","","Images/WhiteBeadChoice.png","","null"
"image-button-response","475","528971","0.0-13.0-2.138","19","Low_HMMActual","","","","","","null","","","","Images/WhiteBeadChoiceCorrect.png","","null"
"image-button-response","476","532435","0.0-13.0-0.139","19","Low_HMMActual","","","","","","3462","","","","Images/NewTrialWC.png","","2"
"image-button-response","477","532740","0.0-13.0-1.139","19","Low_HMMActual","","","","","","null","","","","Images/WhiteBeadChoice.png","","null"
"image-button-response","478","533244","0.0-13.0-2.139","19","Low_HMMActual","","","","","","null","","","","Images/WhiteBeadChoiceCorrect.png","","null"
"image-button-response","479","534398","0.0-13.0-0.140","19","Low_HMMActual","","","","","","1151.9000000059605","","","","Images/NewTrialWC.png","","2"
"image-button-response","480","534701","0.0-13.0-1.140","19","Low_HMMActual","","","","","","null","","","","Images/WhiteBeadChoice.png","","null"
"image-button-response","481","535208","0.0-13.0-2.140","19","Low_HMMActual","","","","","","null","","","","Images/WhiteBeadChoiceCorrect.png","","null"
"image-button-response","482","536321","0.0-13.0-0.141","19","Low_HMMActual","","","","","","1110.800000011921","","","","Images/NewTrialWC.png","","2"
"image-button-response","483","536629","0.0-13.0-1.141","19","Low_HMMActual","","","","","","null","","","","Images/WhiteBeadChoice.png","","null"
"image-button-response","484","537131","0.0-13.0-2.141","19","Low_HMMActual","","","","","","null","","","","Images/WhiteBeadChoiceCorrect.png","","null"
"image-button-response","485","538219","0.0-13.0-0.142","19","Low_HMMActual","","","","","","1084.7999999821186","","","","Images/NewTrialWC.png","","2"
"image-button-response","486","538524","0.0-13.0-1.142","19","Low_HMMActual","","","","","","null","","","","Images/WhiteBeadChoice.png","","null"
"image-button-response","487","539032","0.0-13.0-2.142","19","Low_HMMActual","","","","","","null","","","","Images/WhiteBeadChoiceWrong.png","","null"
"image-button-response","488","539568","0.0-13.0-0.143","19","Low_HMMActual","","","","","","534.5","","","","Images/NewTrialBC.png","","1"
"image-button-response","489","539871","0.0-13.0-1.143","19","Low_HMMActual","","","","","","null","","","","Images/BlackBeadChoice.png","","null"
"image-button-response","490","540376","0.0-13.0-2.143","19","Low_HMMActual","","","","","","null","","","","Images/BlackBeadChoiceWrong.png","","null"
"image-button-response","491","541103","0.0-13.0-0.144","19","Low_HMMActual","","","","","","724.7999999821186","","","","Images/NewTrialWC.png","","2"
"image-button-response","492","541405","0.0-13.0-1.144","19","Low_HMMActual","","","","","","null","","","","Images/WhiteBeadChoice.png","","null"
"image-button-response","493","541909","0.0-13.0-2.144","19","Low_HMMActual","","","","","","null","","","","Images/WhiteBeadChoiceCorrect.png","","null"
"image-button-response","494","542670","0.0-13.0-0.145","19","Low_HMMActual","","","","","","758.3000000119209","","","","Images/NewTrialWC.png","","2"
"image-button-response","495","542977","0.0-13.0-1.145","19","Low_HMMActual","","","","","","null","","","","Images/WhiteBeadChoice.png","","null"
"image-button-response","496","543486","0.0-13.0-2.145","19","Low_HMMActual","","","","","","null","","","","Images/WhiteBeadChoiceCorrect.png","","null"
"image-button-response","497","545416","0.0-13.0-0.146","19","Low_HMMActual","","","","","","1928.2999999821186","","","","Images/NewTrialWC.png","","1"
"image-button-response","498","545720","0.0-13.0-1.146","19","Low_HMMActual","","","","","","null","","","","Images/BlackBeadChoice.png","","null"
"image-button-response","499","546222","0.0-13.0-2.146","19","Low_HMMActual","","","","","","null","","","","Images/BlackBeadChoiceCorrect.png","","null"
"image-button-response","500","546886","0.0-13.0-0.147","19","Low_HMMActual","","","","","","662.3000000119209","","","","Images/NewTrialBC.png","","0"
"image-button-response","501","547187","0.0-13.0-1.147","19","Low_HMMActual","","","","","","null","","","","Images/BlackBeadChoice.png","","null"
"image-button-response","502","547694","0.0-13.0-2.147","19","Low_HMMActual","","","","","","null","","","","Images/BlackBeadChoiceWrong.png","","null"
"image-button-response","503","549924","0.0-13.0-0.148","19","Low_HMMActual","","","","","","2227.9000000059605","","","","Images/NewTrialWC.png","","3"
"image-button-response","504","550226","0.0-13.0-1.148","19","Low_HMMActual","","","","","","null","","","","Images/WhiteBeadChoice.png","","null"
"image-button-response","505","550733","0.0-13.0-2.148","19","Low_HMMActual","","","","","","null","","","","Images/WhiteBeadChoiceCorrect.png","","null"
"image-button-response","506","552622","0.0-13.0-0.149","19","Low_HMMActual","","","","","","1884.9000000059605","","","","Images/NewTrialWC.png","","2"
"image-button-response","507","552924","0.0-13.0-1.149","19","Low_HMMActual","","","","","","null","","","","Images/WhiteBeadChoice.png","","null"
"image-button-response","508","553430","0.0-13.0-2.149","19","Low_HMMActual","","","","","","null","","","","Images/WhiteBeadChoiceWrong.png","","null"
"image-button-response","509","555837","0.0-13.0-0.150","19","Low_HMMActual","","","","","","2404.7999999821186","","","","Images/NewTrialBC.png","","3"
"image-button-response","510","556144","0.0-13.0-1.150","19","Low_HMMActual","","","","","","null","","","","Images/WhiteBeadChoice.png","","null"
"image-button-response","511","556648","0.0-13.0-2.150","19","Low_HMMActual","","","","","","null","","","","Images/WhiteBeadChoiceCorrect.png","","null"
"image-button-response","512","557404","0.0-13.0-0.151","19","Low_HMMActual","","","","","","753.3000000119209","","","","Images/NewTrialWC.png","","2"
"image-button-response","513","557712","0.0-13.0-1.151","19","Low_HMMActual","","","","","","null","","","","Images/WhiteBeadChoice.png","","null"
"image-button-response","514","558215","0.0-13.0-2.151","19","Low_HMMActual","","","","","","null","","","","Images/WhiteBeadChoiceCorrect.png","","null"
"image-button-response","515","559480","0.0-13.0-0.152","19","Low_HMMActual","","","","","","1262.800000011921","","","","Images/NewTrialWC.png","","2"
"image-button-response","516","559783","0.0-13.0-1.152","19","Low_HMMActual","","","","","","null","","","","Images/WhiteBeadChoice.png","","null"
"image-button-response","517","560286","0.0-13.0-2.152","19","Low_HMMActual","","","","","","null","","","","Images/WhiteBeadChoiceCorrect.png","","null"
"image-button-response","518","561637","0.0-13.0-0.153","19","Low_HMMActual","","","","","","1349","","","","Images/NewTrialWC.png","","2"
"image-button-response","519","561941","0.0-13.0-1.153","19","Low_HMMActual","","","","","","null","","","","Images/WhiteBeadChoice.png","","null"
"image-button-response","520","562444","0.0-13.0-2.153","19","Low_HMMActual","","","","","","null","","","","Images/WhiteBeadChoiceCorrect.png","","null"
"image-button-response","521","563875","0.0-13.0-0.154","19","Low_HMMActual","","","","","","1428.7000000178814","","","","Images/NewTrialWC.png","","1"
"image-button-response","522","564177","0.0-13.0-1.154","19","Low_HMMActual","","","","","","null","","","","Images/BlackBeadChoice.png","","null"
"image-button-response","523","564679","0.0-13.0-2.154","19","Low_HMMActual","","","","","","null","","","","Images/BlackBeadChoiceWrong.png","","null"
"image-button-response","524","565708","0.0-13.0-0.155","19","Low_HMMActual","","","","","","1025.9000000059605","","","","Images/NewTrialWC.png","","2"
"image-button-response","525","566012","0.0-13.0-1.155","19","Low_HMMActual","","","","","","null","","","","Images/WhiteBeadChoice.png","","null"
"image-button-response","526","566514","0.0-13.0-2.155","19","Low_HMMActual","","","","","","null","","","","Images/WhiteBeadChoiceWrong.png","","null"
"image-button-response","527","568431","0.0-13.0-0.156","19","Low_HMMActual","","","","","","1915.0999999940395","","","","Images/NewTrialBC.png","","1"
"image-button-response","528","568738","0.0-13.0-1.156","19","Low_HMMActual","","","","","","null","","","","Images/BlackBeadChoice.png","","null"
"image-button-response","529","569242","0.0-13.0-2.156","19","Low_HMMActual","","","","","","null","","","","Images/BlackBeadChoiceCorrect.png","","null"
"image-button-response","530","569602","0.0-13.0-0.157","19","Low_HMMActual","","","","","","357","","","","Images/NewTrialBC.png","","0"
"image-button-response","531","569909","0.0-13.0-1.157","19","Low_HMMActual","","","","","","null","","","","Images/BlackBeadChoice.png","","null"
"image-button-response","532","570414","0.0-13.0-2.157","19","Low_HMMActual","","","","","","null","","","","Images/BlackBeadChoiceCorrect.png","","null"
"image-button-response","533","571161","0.0-13.0-0.158","19","Low_HMMActual","","","","","","744","","","","Images/NewTrialBC.png","","0"
"image-button-response","534","571464","0.0-13.0-1.158","19","Low_HMMActual","","","","","","null","","","","Images/BlackBeadChoice.png","","null"
"image-button-response","535","571966","0.0-13.0-2.158","19","Low_HMMActual","","","","","","null","","","","Images/BlackBeadChoiceCorrect.png","","null"
"image-button-response","536","572396","0.0-13.0-0.159","19","Low_HMMActual","","","","","","427.5","","","","Images/NewTrialBC.png","","0"
"image-button-response","537","572709","0.0-13.0-1.159","19","Low_HMMActual","","","","","","null","","","","Images/BlackBeadChoice.png","","null"
"image-button-response","538","573213","0.0-13.0-2.159","19","Low_HMMActual","","","","","","null","","","","Images/BlackBeadChoiceCorrect.png","","null"
"image-button-response","539","573826","0.0-13.0-0.160","19","Low_HMMActual","","","","","","611","","","","Images/NewTrialBC.png","","0"
"image-button-response","540","574133","0.0-13.0-1.160","19","Low_HMMActual","","","","","","null","","","","Images/BlackBeadChoice.png","","null"
"image-button-response","541","574636","0.0-13.0-2.160","19","Low_HMMActual","","","","","","null","","","","Images/BlackBeadChoiceCorrect.png","","null"
"image-button-response","542","575191","0.0-13.0-0.161","19","Low_HMMActual","","","","","","553.3000000119209","","","","Images/NewTrialBC.png","","0"
"image-button-response","543","575499","0.0-13.0-1.161","19","Low_HMMActual","","","","","","null","","","","Images/BlackBeadChoice.png","","null"
"image-button-response","544","576006","0.0-13.0-2.161","19","Low_HMMActual","","","","","","null","","","","Images/BlackBeadChoiceWrong.png","","null"
"image-button-response","545","577485","0.0-13.0-0.162","19","Low_HMMActual","","","","","","1477.7999999821186","","","","Images/NewTrialWC.png","","1"
"image-button-response","546","577792","0.0-13.0-1.162","19","Low_HMMActual","","","","","","null","","","","Images/BlackBeadChoice.png","","null"
"image-button-response","547","578294","0.0-13.0-2.162","19","Low_HMMActual","","","","","","null","","","","Images/BlackBeadChoiceWrong.png","","null"
"image-button-response","548","579262","0.0-13.0-0.163","19","Low_HMMActual","","","","","","966.0999999940395","","","","Images/NewTrialWC.png","","2"
"image-button-response","549","579564","0.0-13.0-1.163","19","Low_HMMActual","","","","","","null","","","","Images/WhiteBeadChoice.png","","null"
"image-button-response","550","580068","0.0-13.0-2.163","19","Low_HMMActual","","","","","","null","","","","Images/WhiteBeadChoiceCorrect.png","","null"
"image-button-response","551","581266","0.0-13.0-0.164","19","Low_HMMActual","","","","","","1194.699999988079","","","","Images/NewTrialWC.png","","2"
"image-button-response","552","581572","0.0-13.0-1.164","19","Low_HMMActual","","","","","","null","","","","Images/WhiteBeadChoice.png","","null"
"image-button-response","553","582076","0.0-13.0-2.164","19","Low_HMMActual","","","","","","null","","","","Images/WhiteBeadChoiceCorrect.png","","null"
"image-button-response","554","582793","0.0-13.0-0.165","19","Low_HMMActual","","","","","","714.6000000238419","","","","Images/NewTrialWC.png","","2"
"image-button-response","555","583099","0.0-13.0-1.165","19","Low_HMMActual","","","","","","null","","","","Images/WhiteBeadChoice.png","","null"
"image-button-response","556","583606","0.0-13.0-2.165","19","Low_HMMActual","","","","","","null","","","","Images/WhiteBeadChoiceCorrect.png","","null"
"image-button-response","557","584633","0.0-13.0-0.166","19","Low_HMMActual","","","","","","1025.5","","","","Images/NewTrialWC.png","","2"
"image-button-response","558","584939","0.0-13.0-1.166","19","Low_HMMActual","","","","","","null","","","","Images/WhiteBeadChoice.png","","null"
"image-button-response","559","585442","0.0-13.0-2.166","19","Low_HMMActual","","","","","","null","","","","Images/WhiteBeadChoiceCorrect.png","","null"
"image-button-response","560","586403","0.0-13.0-0.167","19","Low_HMMActual","","","","","","958.6999999880791","","","","Images/NewTrialWC.png","","2"
"image-button-response","561","586705","0.0-13.0-1.167","19","Low_HMMActual","","","","","","null","","","","Images/WhiteBeadChoice.png","","null"
"image-button-response","562","587213","0.0-13.0-2.167","19","Low_HMMActual","","","","","","null","","","","Images/WhiteBeadChoiceCorrect.png","","null"
"image-button-response","563","588083","0.0-13.0-0.168","19","Low_HMMActual","","","","","","868.5","","","","Images/NewTrialWC.png","","2"
"image-button-response","564","588391","0.0-13.0-1.168","19","Low_HMMActual","","","","","","null","","","","Images/WhiteBeadChoice.png","","null"
"image-button-response","565","588894","0.0-13.0-2.168","19","Low_HMMActual","","","","","","null","","","","Images/WhiteBeadChoiceWrong.png","","null"
"image-button-response","566","590450","0.0-13.0-0.169","19","Low_HMMActual","","","","","","1553.5","","","","Images/NewTrialBC.png","","3"
"image-button-response","567","590757","0.0-13.0-1.169","19","Low_HMMActual","","","","","","null","","","","Images/WhiteBeadChoice.png","","null"
"image-button-response","568","591261","0.0-13.0-2.169","19","Low_HMMActual","","","","","","null","","","","Images/WhiteBeadChoiceCorrect.png","","null"
"image-button-response","569","593003","0.0-13.0-0.170","19","Low_HMMActual","","","","","","1738.699999988079","","","","Images/NewTrialWC.png","","2"
"image-button-response","570","593306","0.0-13.0-1.170","19","Low_HMMActual","","","","","","null","","","","Images/WhiteBeadChoice.png","","null"
"image-button-response","571","593809","0.0-13.0-2.170","19","Low_HMMActual","","","","","","null","","","","Images/WhiteBeadChoiceCorrect.png","","null"
"image-button-response","572","594796","0.0-13.0-0.171","19","Low_HMMActual","","","","","","984.5999999940395","","","","Images/NewTrialWC.png","","2"
"image-button-response","573","595099","0.0-13.0-1.171","19","Low_HMMActual","","","","","","null","","","","Images/WhiteBeadChoice.png","","null"
"image-button-response","574","595606","0.0-13.0-2.171","19","Low_HMMActual","","","","","","null","","","","Images/WhiteBeadChoiceCorrect.png","","null"
"image-button-response","575","596380","0.0-13.0-0.172","19","Low_HMMActual","","","","","","771.4000000059605","","","","Images/NewTrialWC.png","","2"
"image-button-response","576","596686","0.0-13.0-1.172","19","Low_HMMActual","","","","","","null","","","","Images/WhiteBeadChoice.png","","null"
"image-button-response","577","597190","0.0-13.0-2.172","19","Low_HMMActual","","","","","","null","","","","Images/WhiteBeadChoiceCorrect.png","","null"
"image-button-response","578","598682","0.0-13.0-0.173","19","Low_HMMActual","","","","","","1489.4000000059605","","","","Images/NewTrialWC.png","","2"
"image-button-response","579","598987","0.0-13.0-1.173","19","Low_HMMActual","","","","","","null","","","","Images/WhiteBeadChoice.png","","null"
"image-button-response","580","599494","0.0-13.0-2.173","19","Low_HMMActual","","","","","","null","","","","Images/WhiteBeadChoiceCorrect.png","","null"
"image-button-response","581","600653","0.0-13.0-0.174","19","Low_HMMActual","","","","","","1156.800000011921","","","","Images/NewTrialWC.png","","1"
"image-button-response","582","600959","0.0-13.0-1.174","19","Low_HMMActual","","","","","","null","","","","Images/BlackBeadChoice.png","","null"
"image-button-response","583","601464","0.0-13.0-2.174","19","Low_HMMActual","","","","","","null","","","","Images/BlackBeadChoiceWrong.png","","null"
"image-button-response","584","602301","0.0-13.0-0.175","19","Low_HMMActual","","","","","","834.8000000119209","","","","Images/NewTrialWC.png","","2"
"image-button-response","585","602609","0.0-13.0-1.175","19","Low_HMMActual","","","","","","null","","","","Images/WhiteBeadChoice.png","","null"
"image-button-response","586","603115","0.0-13.0-2.175","19","Low_HMMActual","","","","","","null","","","","Images/WhiteBeadChoiceWrong.png","","null"
"image-button-response","587","606017","0.0-13.0-0.176","19","Low_HMMActual","","","","","","2899.2000000178814","","","","Images/NewTrialBC.png","","3"
"image-button-response","588","606324","0.0-13.0-1.176","19","Low_HMMActual","","","","","","null","","","","Images/WhiteBeadChoice.png","","null"
"image-button-response","589","606827","0.0-13.0-2.176","19","Low_HMMActual","","","","","","null","","","","Images/WhiteBeadChoiceWrong.png","","null"
"image-button-response","590","607769","0.0-13.0-0.177","19","Low_HMMActual","","","","","","939.4000000059605","","","","Images/NewTrialBC.png","","0"
"image-button-response","591","608076","0.0-13.0-1.177","19","Low_HMMActual","","","","","","null","","","","Images/BlackBeadChoice.png","","null"
"image-button-response","592","608583","0.0-13.0-2.177","19","Low_HMMActual","","","","","","null","","","","Images/BlackBeadChoiceCorrect.png","","null"
"image-button-response","593","609134","0.0-13.0-0.178","19","Low_HMMActual","","","","","","548.8000000119209","","","","Images/NewTrialBC.png","","0"
"image-button-response","594","609437","0.0-13.0-1.178","19","Low_HMMActual","","","","","","null","","","","Images/BlackBeadChoice.png","","null"
"image-button-response","595","609941","0.0-13.0-2.178","19","Low_HMMActual","","","","","","null","","","","Images/BlackBeadChoiceWrong.png","","null"
"image-button-response","596","611291","0.0-13.0-0.179","19","Low_HMMActual","","","","","","1347.7999999821186","","","","Images/NewTrialWC.png","","1"
"image-button-response","597","611596","0.0-13.0-1.179","19","Low_HMMActual","","","","","","null","","","","Images/BlackBeadChoice.png","","null"
"image-button-response","598","612099","0.0-13.0-2.179","19","Low_HMMActual","","","","","","null","","","","Images/BlackBeadChoiceCorrect.png","","null"
"image-button-response","599","613043","0.0-13.0-0.180","19","Low_HMMActual","","","","","","942","","","","Images/NewTrialBC.png","","0"
"image-button-response","600","613346","0.0-13.0-1.180","19","Low_HMMActual","","","","","","null","","","","Images/BlackBeadChoice.png","","null"
"image-button-response","601","613849","0.0-13.0-2.180","19","Low_HMMActual","","","","","","null","","","","Images/BlackBeadChoiceCorrect.png","","null"
"image-button-response","602","614586","0.0-13.0-0.181","19","Low_HMMActual","","","","","","734.2000000178814","","","","Images/NewTrialBC.png","","0"
"image-button-response","603","614895","0.0-13.0-1.181","19","Low_HMMActual","","","","","","null","","","","Images/BlackBeadChoice.png","","null"
"image-button-response","604","615400","0.0-13.0-2.181","19","Low_HMMActual","","","","","","null","","","","Images/BlackBeadChoiceCorrect.png","","null"
"image-button-response","605","616064","0.0-13.0-0.182","19","Low_HMMActual","","","","","","662.2999999821186","","","","Images/NewTrialBC.png","","0"
"image-button-response","606","616368","0.0-13.0-1.182","19","Low_HMMActual","","","","","","null","","","","Images/BlackBeadChoice.png","","null"
"image-button-response","607","616873","0.0-13.0-2.182","19","Low_HMMActual","","","","","","null","","","","Images/BlackBeadChoiceCorrect.png","","null"
"image-button-response","608","617517","0.0-13.0-0.183","19","Low_HMMActual","","","","","","642.2999999821186","","","","Images/NewTrialBC.png","","0"
"image-button-response","609","617820","0.0-13.0-1.183","19","Low_HMMActual","","","","","","null","","","","Images/BlackBeadChoice.png","","null"
"image-button-response","610","618325","0.0-13.0-2.183","19","Low_HMMActual","","","","","","null","","","","Images/BlackBeadChoiceCorrect.png","","null"
"image-button-response","611","619109","0.0-13.0-0.184","19","Low_HMMActual","","","","","","775.8999999761581","","","","Images/NewTrialBC.png","","0"
"image-button-response","612","619415","0.0-13.0-1.184","19","Low_HMMActual","","","","","","null","","","","Images/BlackBeadChoice.png","","null"
"image-button-response","613","619922","0.0-13.0-2.184","19","Low_HMMActual","","","","","","null","","","","Images/BlackBeadChoiceCorrect.png","","null"
"image-button-response","614","620749","0.0-13.0-0.185","19","Low_HMMActual","","","","","","824.1999999880791","","","","Images/NewTrialBC.png","","0"
"image-button-response","615","621055","0.0-13.0-1.185","19","Low_HMMActual","","","","","","null","","","","Images/BlackBeadChoice.png","","null"
"image-button-response","616","621560","0.0-13.0-2.185","19","Low_HMMActual","","","","","","null","","","","Images/BlackBeadChoiceCorrect.png","","null"
"image-button-response","617","622906","0.0-13.0-0.186","19","Low_HMMActual","","","","","","1344.0999999940395","","","","Images/NewTrialBC.png","","0"
"image-button-response","618","623213","0.0-13.0-1.186","19","Low_HMMActual","","","","","","null","","","","Images/BlackBeadChoice.png","","null"
"image-button-response","619","623720","0.0-13.0-2.186","19","Low_HMMActual","","","","","","null","","","","Images/BlackBeadChoiceCorrect.png","","null"
"image-button-response","620","624949","0.0-13.0-0.187","19","Low_HMMActual","","","","","","1227.199999988079","","","","Images/NewTrialBC.png","","3"
"image-button-response","621","625256","0.0-13.0-1.187","19","Low_HMMActual","","","","","","null","","","","Images/WhiteBeadChoice.png","","null"
"image-button-response","622","625763","0.0-13.0-2.187","19","Low_HMMActual","","","","","","null","","","","Images/WhiteBeadChoiceCorrect.png","","null"
"image-button-response","623","627017","0.0-13.0-0.188","19","Low_HMMActual","","","","","","1252.3999999761581","","","","Images/NewTrialWC.png","","2"
"image-button-response","624","627326","0.0-13.0-1.188","19","Low_HMMActual","","","","","","null","","","","Images/WhiteBeadChoice.png","","null"
"image-button-response","625","627828","0.0-13.0-2.188","19","Low_HMMActual","","","","","","null","","","","Images/WhiteBeadChoiceCorrect.png","","null"
"image-button-response","626","629449","0.0-13.0-0.189","19","Low_HMMActual","","","","","","1618.5","","","","Images/NewTrialWC.png","","2"
"image-button-response","627","629757","0.0-13.0-1.189","19","Low_HMMActual","","","","","","null","","","","Images/WhiteBeadChoice.png","","null"
"image-button-response","628","630260","0.0-13.0-2.189","19","Low_HMMActual","","","","","","null","","","","Images/WhiteBeadChoiceCorrect.png","","null"
"image-button-response","629","631484","0.0-13.0-0.190","19","Low_HMMActual","","","","","","1222.199999988079","","","","Images/NewTrialWC.png","","2"
"image-button-response","630","631791","0.0-13.0-1.190","19","Low_HMMActual","","","","","","null","","","","Images/WhiteBeadChoice.png","","null"
"image-button-response","631","632298","0.0-13.0-2.190","19","Low_HMMActual","","","","","","null","","","","Images/WhiteBeadChoiceCorrect.png","","null"
"image-button-response","632","633278","0.0-13.0-0.191","19","Low_HMMActual","","","","","","977.3000000119209","","","","Images/NewTrialWC.png","","2"
"image-button-response","633","633586","0.0-13.0-1.191","19","Low_HMMActual","","","","","","null","","","","Images/WhiteBeadChoice.png","","null"
"image-button-response","634","634093","0.0-13.0-2.191","19","Low_HMMActual","","","","","","null","","","","Images/WhiteBeadChoiceCorrect.png","","null"
"image-button-response","635","635806","0.0-13.0-0.192","19","Low_HMMActual","","","","","","1711.2000000178814","","","","Images/NewTrialWC.png","","2"
"image-button-response","636","636113","0.0-13.0-1.192","19","Low_HMMActual","","","","","","null","","","","Images/WhiteBeadChoice.png","","null"
"image-button-response","637","636620","0.0-13.0-2.192","19","Low_HMMActual","","","","","","null","","","","Images/WhiteBeadChoiceCorrect.png","","null"
"image-button-response","638","637607","0.0-13.0-0.193","19","Low_HMMActual","","","","","","984.7000000178814","","","","Images/NewTrialWC.png","","1"
"image-button-response","639","637910","0.0-13.0-1.193","19","Low_HMMActual","","","","","","null","","","","Images/BlackBeadChoice.png","","null"
"image-button-response","640","638415","0.0-13.0-2.193","19","Low_HMMActual","","","","","","null","","","","Images/BlackBeadChoiceWrong.png","","null"
"image-button-response","641","639845","0.0-13.0-0.194","19","Low_HMMActual","","","","","","1427.4000000059605","","","","Images/NewTrialWC.png","","1"
"image-button-response","642","640152","0.0-13.0-1.194","19","Low_HMMActual","","","","","","null","","","","Images/BlackBeadChoice.png","","null"
"image-button-response","643","640661","0.0-13.0-2.194","19","Low_HMMActual","","","","","","null","","","","Images/BlackBeadChoiceWrong.png","","null"
"image-button-response","644","641525","0.0-13.0-0.195","19","Low_HMMActual","","","","","","861.8000000119209","","","","Images/NewTrialWC.png","","2"
"image-button-response","645","641828","0.0-13.0-1.195","19","Low_HMMActual","","","","","","null","","","","Images/WhiteBeadChoice.png","","null"
"image-button-response","646","642333","0.0-13.0-2.195","19","Low_HMMActual","","","","","","null","","","","Images/WhiteBeadChoiceCorrect.png","","null"
"image-button-response","647","643253","0.0-13.0-0.196","19","Low_HMMActual","","","","","","918","","","","Images/NewTrialWC.png","","2"
"image-button-response","648","643560","0.0-13.0-1.196","19","Low_HMMActual","","","","","","null","","","","Images/WhiteBeadChoice.png","","null"
"image-button-response","649","644066","0.0-13.0-2.196","19","Low_HMMActual","","","","","","null","","","","Images/WhiteBeadChoiceCorrect.png","","null"
"image-button-response","650","645176","0.0-13.0-0.197","19","Low_HMMActual","","","","","","1106.800000011921","","","","Images/NewTrialWC.png","","2"
"image-button-response","651","645481","0.0-13.0-1.197","19","Low_HMMActual","","","","","","null","","","","Images/WhiteBeadChoice.png","","null"
"image-button-response","652","645990","0.0-13.0-2.197","19","Low_HMMActual","","","","","","null","","","","Images/WhiteBeadChoiceCorrect.png","","null"
"image-button-response","653","646921","0.0-13.0-0.198","19","Low_HMMActual","","","","","","929.0999999940395","","","","Images/NewTrialWC.png","","2"
"image-button-response","654","647224","0.0-13.0-1.198","19","Low_HMMActual","","","","","","null","","","","Images/WhiteBeadChoice.png","","null"
"image-button-response","655","647730","0.0-13.0-2.198","19","Low_HMMActual","","","","","","null","","","","Images/WhiteBeadChoiceWrong.png","","null"
"image-button-response","656","649804","0.0-13.0-0.199","19","Low_HMMActual","","","","","","2072.2000000178814","","","","Images/NewTrialBC.png","","3"
"image-button-response","657","650110","0.0-13.0-1.199","19","Low_HMMActual","","","","","","null","","","","Images/WhiteBeadChoice.png","","null"
"image-button-response","658","650612","0.0-13.0-2.199","19","Low_HMMActual","","","","","","null","","","","Images/WhiteBeadChoiceCorrect.png","","null"
"image-button-response","659","651282","0.0-13.0-0.200","19","Low_HMMActual","","","","","","668.1999999880791","","","","Images/NewTrialWC.png","","2"
"image-button-response","660","651587","0.0-13.0-1.200","19","Low_HMMActual","","","","","","null","","","","Images/WhiteBeadChoice.png","","null"
"image-button-response","661","652093","0.0-13.0-2.200","19","Low_HMMActual","","","","","","null","","","","Images/WhiteBeadChoiceCorrect.png","","null"
"image-button-response","662","653253","0.0-13.0-0.201","19","Low_HMMActual","","","","","","1157.5999999940395","","","","Images/NewTrialWC.png","","2"
"image-button-response","663","653560","0.0-13.0-1.201","19","Low_HMMActual","","","","","","null","","","","Images/WhiteBeadChoice.png","","null"
"image-button-response","664","654067","0.0-13.0-2.201","19","Low_HMMActual","","","","","","null","","","","Images/WhiteBeadChoiceWrong.png","","null"
"image-button-response","665","654910","0.0-13.0-0.202","19","Low_HMMActual","","","","","","840.5","","","","Images/NewTrialBC.png","","1"
"image-button-response","666","655214","0.0-13.0-1.202","19","Low_HMMActual","","","","","","null","","","","Images/BlackBeadChoice.png","","null"
