"trial_type","trial_index","time_elapsed","internal_node_id","Script_Picker","Block_Type","success","timeout","failed_images","failed_audio","failed_video","rt","url","responses","question_order","stimulus","key_press","response"
"pavlovia","0","49","0.0-0.0","17","Low_HMMActual","","","","","","","","","","","",""
"preload","1","51","0.0-1.0","17","Low_HMMActual","true","false","[]","[]","[]","","","","","","",""
"external-html","2","7491","0.0-2.0-0.0","17","Low_HMMActual","","","","","","7355","consent.html","","","","",""
"survey-multi-choice","3","19048","0.0-2.0-1.0","17","Low_HMMActual","","","","","","11553.199999988079","","{""Q0"":""Female"",""Q1"":""White""}","[0,1]","","",""
"survey-text","4","20848","0.0-2.0-2.0","17","Low_HMMActual","","","","","","1791.5","","{""Q0"":""27""}","","","",""
"survey-text","5","23075","0.0-2.0-3.0","17","Low_HMMActual","","","","","","2118.7999999821186","","{""Q0"":""5c22a8cb840ae900015410bb""}","","","",""
"image-keyboard-response","6","41457","0.0-3.0-0.0","17","Low_HMMActual","","","","","","18270.30000001192","","","","tutorial/tutorial1.png"," ",""
"image-keyboard-response","7","57496","0.0-3.0-0.1","17","Low_HMMActual","","","","","","16037.09999999404","","","","tutorial/tutorial2.png"," ",""
"image-keyboard-response","8","63527","0.0-3.0-0.2","17","Low_HMMActual","","","","","","6029.4000000059605","","","","tutorial/tutorial3.png"," ",""
"image-keyboard-response","9","66145","0.0-3.0-0.3","17","Low_HMMActual","","","","","","2616.199999988079","","","","tutorial/tutorial4.png"," ",""
"image-keyboard-response","10","68129","0.0-3.0-0.4","17","Low_HMMActual","","","","","","1982.199999988079","","","","tutorial/tutorial5.png"," ",""
"image-keyboard-response","11","77203","0.0-3.0-0.5","17","Low_HMMActual","","","","","","9073.09999999404","","","","tutorial/tutorial6.png"," ",""
"image-keyboard-response","12","83836","0.0-3.0-0.6","17","Low_HMMActual","","","","","","6631.0999999940395","","","","tutorial/tutorial7.png"," ",""
"image-keyboard-response","13","99890","0.0-3.0-0.7","17","Low_HMMActual","","","","","","16052.799999982119","","","","tutorial/tutorial8.png"," ",""
"image-keyboard-response","14","106048","0.0-3.0-0.8","17","Low_HMMActual","","","","","","6156.9000000059605","","","","tutorial/tutorial9.png"," ",""
"image-keyboard-response","15","114977","0.0-3.0-0.9","17","Low_HMMActual","","","","","","8927.800000011921","","","","tutorial/tutorial10.png"," ",""
"image-keyboard-response","16","119267","0.0-3.0-0.10","17","Low_HMMActual","","","","","","4289","","","","tutorial/tutorial11.png"," ",""
"image-keyboard-response","17","126643","0.0-3.0-0.11","17","Low_HMMActual","","","","","","7374.4000000059605","","","","tutorial/tutorial12.png"," ",""
"image-keyboard-response","18","136732","0.0-3.0-0.12","17","Low_HMMActual","","","","","","10087.199999988079","","","","tutorial/tutorial13.png"," ",""
"image-keyboard-response","19","149395","0.0-3.0-0.13","17","Low_HMMActual","","","","","","12661.699999988079","","","","tutorial/tutorial14.png"," ",""
"image-keyboard-response","20","152037","0.0-3.0-0.14","17","Low_HMMActual","","","","","","2641.4000000059605","","","","tutorial/tutorial15.png"," ",""
"image-keyboard-response","21","166122","0.0-4.0","17","Low_HMMActual","","","","","","14083","","","","tutorial/tutorial16.png","arrowup",""
"image-keyboard-response","22","177304","0.0-5.0","17","Low_HMMActual","","","","","","9216","","","","tutorial/tutorial17.png","arrowright",""
"image-keyboard-response","23","183089","0.0-6.0","17","Low_HMMActual","","","","","","4400.5","","","","tutorial/tutorial18.png","arrowleft",""
"image-keyboard-response","24","187017","0.0-7.0","17","Low_HMMActual","","","","","","2808.5","","","","tutorial/tutorial19.png"," ",""
"html-keyboard-response","25","191713","0.0-8.0","18","Low_HMMActual","","","","","","4689.9000000059605","","","","<div class=""container"" style=""height:800px;width:800px;display:flex;flex-direction:column;justify-content:center;align-items:center;text-align:center;font-weight:normal;font-family:Arial;font-size:20px""><p>Loading episode&hellip;</p><div>"," ",""
"image-button-response","26","202086","0.0-9.0-0.0","18","Low_HMMActual","","","","","","10366.59999999404","","","","Images/NoChoice.png","","0"
"image-button-response","27","202392","0.0-9.0-1.0","18","Low_HMMActual","","","","","","null","","","","Images/BlackBeadChoice.png","","null"
"image-button-response","28","202907","0.0-9.0-2.0","18","Low_HMMActual","","","","","","null","","","","Images/BlackBeadChoiceWrong.png","","null"
"image-button-response","29","209552","0.0-9.0-0.1","18","Low_HMMActual","","","","","","6619.5999999940395","","","","Images/NewTrialWC.png","","3"
"image-button-response","30","209862","0.0-9.0-1.1","18","Low_HMMActual","","","","","","null","","","","Images/WhiteBeadChoice.png","","null"
"image-button-response","31","210373","0.0-9.0-2.1","18","Low_HMMActual","","","","","","null","","","","Images/WhiteBeadChoiceCorrect.png","","null"
"image-button-response","32","216971","0.0-9.0-0.2","18","Low_HMMActual","","","","","","6594.600000023842","","","","Images/NewTrialWC.png","","2"
"image-button-response","33","217289","0.0-9.0-1.2","18","Low_HMMActual","","","","","","null","","","","Images/WhiteBeadChoice.png","","null"
"image-button-response","34","217796","0.0-9.0-2.2","18","Low_HMMActual","","","","","","null","","","","Images/WhiteBeadChoiceCorrect.png","","null"
"image-button-response","35","224498","0.0-9.0-0.3","18","Low_HMMActual","","","","","","6699.199999988079","","","","Images/NewTrialWC.png","","2"
"image-button-response","36","224804","0.0-9.0-1.3","18","Low_HMMActual","","","","","","null","","","","Images/WhiteBeadChoice.png","","null"
"image-button-response","37","225321","0.0-9.0-2.3","18","Low_HMMActual","","","","","","null","","","","Images/WhiteBeadChoiceWrong.png","","null"
"image-button-response","38","230589","0.0-9.0-0.4","18","Low_HMMActual","","","","","","5264.800000011921","","","","Images/NewTrialBC.png","","0"
"image-button-response","39","230900","0.0-9.0-1.4","18","Low_HMMActual","","","","","","null","","","","Images/BlackBeadChoice.png","","null"
"image-button-response","40","231404","0.0-9.0-2.4","18","Low_HMMActual","","","","","","null","","","","Images/BlackBeadChoiceWrong.png","","null"
"image-button-response","41","234744","0.0-9.0-0.5","18","Low_HMMActual","","","","","","3336.0999999940395","","","","Images/NewTrialWC.png","","0"
"image-button-response","42","235061","0.0-9.0-1.5","18","Low_HMMActual","","","","","","null","","","","Images/BlackBeadChoice.png","","null"
"image-button-response","43","235578","0.0-9.0-2.5","18","Low_HMMActual","","","","","","null","","","","Images/BlackBeadChoiceWrong.png","","null"
"image-button-response","44","239367","0.0-9.0-0.6","18","Low_HMMActual","","","","","","3786.300000011921","","","","Images/NewTrialWC.png","","0"
"image-button-response","45","239671","0.0-9.0-1.6","18","Low_HMMActual","","","","","","null","","","","Images/BlackBeadChoice.png","","null"
"image-button-response","46","240179","0.0-9.0-2.6","18","Low_HMMActual","","","","","","null","","","","Images/BlackBeadChoiceCorrect.png","","null"
"image-button-response","47","248300","0.0-9.0-0.7","18","Low_HMMActual","","","","","","8117.0999999940395","","","","Images/NewTrialBC.png","","0"
"image-button-response","48","248611","0.0-9.0-1.7","18","Low_HMMActual","","","","","","null","","","","Images/BlackBeadChoice.png","","null"
"image-button-response","49","249119","0.0-9.0-2.7","18","Low_HMMActual","","","","","","null","","","","Images/BlackBeadChoiceWrong.png","","null"
"image-button-response","50","251441","0.0-9.0-0.8","18","Low_HMMActual","","","","","","2318.5","","","","Images/NewTrialWC.png","","0"
"image-button-response","51","251744","0.0-9.0-1.8","18","Low_HMMActual","","","","","","null","","","","Images/BlackBeadChoice.png","","null"
"image-button-response","52","252257","0.0-9.0-2.8","18","Low_HMMActual","","","","","","null","","","","Images/BlackBeadChoiceWrong.png","","null"
"image-button-response","53","253569","0.0-9.0-0.9","18","Low_HMMActual","","","","","","1308.300000011921","","","","Images/NewTrialWC.png","","0"
"image-button-response","54","253875","0.0-9.0-1.9","18","Low_HMMActual","","","","","","null","","","","Images/BlackBeadChoice.png","","null"
"image-button-response","55","254385","0.0-9.0-2.9","18","Low_HMMActual","","","","","","null","","","","Images/BlackBeadChoiceCorrect.png","","null"
"html-keyboard-response","56","256573","0.0-10.0","18","Low_HMMActual","","","","","","2186.2000000178814","","","",""," ",""
"image-keyboard-response","57","258342","0.0-11.0","18","Low_HMMActual","","","","","","1767.2000000178814","","","","tutorial/tutorial20.png"," ",""
"html-keyboard-response","58","266642","0.0-12.0","19","Low_HMMActual","","","","","","8296.200000017881","","","","<div class=""container"" style=""height:800px;width:800px;display:flex;flex-direction:column;justify-content:center;align-items:center;text-align:center;font-weight:normal;font-family:Arial;font-size:20px""><p>Loading episode&hellip;</p><div>"," ",""
"image-button-response","59","274275","0.0-13.0-0.0","19","Low_HMMActual","","","","","","7628.0999999940395","","","","Images/NoChoice.png","","2"
"image-button-response","60","274590","0.0-13.0-1.0","19","Low_HMMActual","","","","","","null","","","","Images/WhiteBeadChoice.png","","null"
"image-button-response","61","275108","0.0-13.0-2.0","19","Low_HMMActual","","","","","","null","","","","Images/WhiteBeadChoiceCorrect.png","","null"
"image-button-response","62","282322","0.0-13.0-0.1","19","Low_HMMActual","","","","","","7211.0999999940395","","","","Images/NewTrialWC.png","","0"
"image-button-response","63","282633","0.0-13.0-1.1","19","Low_HMMActual","","","","","","null","","","","Images/BlackBeadChoice.png","","null"
"image-button-response","64","283140","0.0-13.0-2.1","19","Low_HMMActual","","","","","","null","","","","Images/BlackBeadChoiceWrong.png","","null"
"image-button-response","65","284396","0.0-13.0-0.2","19","Low_HMMActual","","","","","","1252.5999999940395","","","","Images/NewTrialWC.png","","0"
"image-button-response","66","284710","0.0-13.0-1.2","19","Low_HMMActual","","","","","","null","","","","Images/BlackBeadChoice.png","","null"
"image-button-response","67","285235","0.0-13.0-2.2","19","Low_HMMActual","","","","","","null","","","","Images/BlackBeadChoiceWrong.png","","null"
"image-button-response","68","285978","0.0-13.0-0.3","19","Low_HMMActual","","","","","","739.3000000119209","","","","Images/NewTrialWC.png","","0"
"image-button-response","69","286290","0.0-13.0-1.3","19","Low_HMMActual","","","","","","null","","","","Images/BlackBeadChoice.png","","null"
"image-button-response","70","286795","0.0-13.0-2.3","19","Low_HMMActual","","","","","","null","","","","Images/BlackBeadChoiceWrong.png","","null"
"image-button-response","71","288167","0.0-13.0-0.4","19","Low_HMMActual","","","","","","1369.300000011921","","","","Images/NewTrialWC.png","","2"
"image-button-response","72","288478","0.0-13.0-1.4","19","Low_HMMActual","","","","","","null","","","","Images/WhiteBeadChoice.png","","null"
"image-button-response","73","288981","0.0-13.0-2.4","19","Low_HMMActual","","","","","","null","","","","Images/WhiteBeadChoiceCorrect.png","","null"
"image-button-response","74","289388","0.0-13.0-0.5","19","Low_HMMActual","","","","","","403.5","","","","Images/NewTrialWC.png","","2"
"image-button-response","75","289701","0.0-13.0-1.5","19","Low_HMMActual","","","","","","null","","","","Images/WhiteBeadChoice.png","","null"
"image-button-response","76","290217","0.0-13.0-2.5","19","Low_HMMActual","","","","","","null","","","","Images/WhiteBeadChoiceWrong.png","","null"
"image-button-response","77","290955","0.0-13.0-0.6","19","Low_HMMActual","","","","","","735.2999999821186","","","","Images/NewTrialBC.png","","2"
"image-button-response","78","291272","0.0-13.0-1.6","19","Low_HMMActual","","","","","","null","","","","Images/WhiteBeadChoice.png","","null"
"image-button-response","79","291789","0.0-13.0-2.6","19","Low_HMMActual","","","","","","null","","","","Images/WhiteBeadChoiceWrong.png","","null"
"image-button-response","80","296161","0.0-13.0-0.7","19","Low_HMMActual","","","","","","4369.199999988079","","","","Images/NewTrialBC.png","","0"
"image-button-response","81","296477","0.0-13.0-1.7","19","Low_HMMActual","","","","","","null","","","","Images/BlackBeadChoice.png","","null"
"image-button-response","82","296981","0.0-13.0-2.7","19","Low_HMMActual","","","","","","null","","","","Images/BlackBeadChoiceCorrect.png","","null"
"image-button-response","83","297413","0.0-13.0-0.8","19","Low_HMMActual","","","","","","428.90000000596046","","","","Images/NewTrialBC.png","","0"
"image-button-response","84","297723","0.0-13.0-1.8","19","Low_HMMActual","","","","","","null","","","","Images/BlackBeadChoice.png","","null"
"image-button-response","85","298236","0.0-13.0-2.8","19","Low_HMMActual","","","","","","null","","","","Images/BlackBeadChoiceCorrect.png","","null"
"image-button-response","86","298445","0.0-13.0-0.9","19","Low_HMMActual","","","","","","194.5","","","","Images/NewTrialBC.png","","0"
"image-button-response","87","298751","0.0-13.0-1.9","19","Low_HMMActual","","","","","","null","","","","Images/BlackBeadChoice.png","","null"
"image-button-response","88","299254","0.0-13.0-2.9","19","Low_HMMActual","","","","","","null","","","","Images/BlackBeadChoiceCorrect.png","","null"
"image-button-response","89","299671","0.0-13.0-0.10","19","Low_HMMActual","","","","","","413.59999999403954","","","","Images/NewTrialBC.png","","0"
"image-button-response","90","299978","0.0-13.0-1.10","19","Low_HMMActual","","","","","","null","","","","Images/BlackBeadChoice.png","","null"
"image-button-response","91","300488","0.0-13.0-2.10","19","Low_HMMActual","","","","","","null","","","","Images/BlackBeadChoiceWrong.png","","null"
"image-button-response","92","301130","0.0-13.0-0.11","19","Low_HMMActual","","","","","","638.6000000238419","","","","Images/NewTrialWC.png","","0"
"image-button-response","93","301448","0.0-13.0-1.11","19","Low_HMMActual","","","","","","null","","","","Images/BlackBeadChoice.png","","null"
"image-button-response","94","301956","0.0-13.0-2.11","19","Low_HMMActual","","","","","","null","","","","Images/BlackBeadChoiceCorrect.png","","null"
"image-button-response","95","302466","0.0-13.0-0.12","19","Low_HMMActual","","","","","","506.69999998807907","","","","Images/NewTrialBC.png","","0"
"image-button-response","96","302792","0.0-13.0-1.12","19","Low_HMMActual","","","","","","null","","","","Images/BlackBeadChoice.png","","null"
"image-button-response","97","303305","0.0-13.0-2.12","19","Low_HMMActual","","","","","","null","","","","Images/BlackBeadChoiceWrong.png","","null"
"image-button-response","98","304378","0.0-13.0-0.13","19","Low_HMMActual","","","","","","1071","","","","Images/NewTrialWC.png","","0"
"image-button-response","99","304681","0.0-13.0-1.13","19","Low_HMMActual","","","","","","null","","","","Images/BlackBeadChoice.png","","null"
"image-button-response","100","305196","0.0-13.0-2.13","19","Low_HMMActual","","","","","","null","","","","Images/BlackBeadChoiceWrong.png","","null"
"image-button-response","101","305860","0.0-13.0-0.14","19","Low_HMMActual","","","","","","661.1000000238419","","","","Images/NewTrialWC.png","","0"
"image-button-response","102","306178","0.0-13.0-1.14","19","Low_HMMActual","","","","","","null","","","","Images/BlackBeadChoice.png","","null"
"image-button-response","103","306691","0.0-13.0-2.14","19","Low_HMMActual","","","","","","null","","","","Images/BlackBeadChoiceWrong.png","","null"
"image-button-response","104","307857","0.0-13.0-0.15","19","Low_HMMActual","","","","","","1162.300000011921","","","","Images/NewTrialWC.png","","2"
"image-button-response","105","308174","0.0-13.0-1.15","19","Low_HMMActual","","","","","","null","","","","Images/WhiteBeadChoice.png","","null"
"image-button-response","106","308680","0.0-13.0-2.15","19","Low_HMMActual","","","","","","null","","","","Images/WhiteBeadChoiceCorrect.png","","null"
"image-button-response","107","309033","0.0-13.0-0.16","19","Low_HMMActual","","","","","","349","","","","Images/NewTrialWC.png","","2"
"image-button-response","108","309351","0.0-13.0-1.16","19","Low_HMMActual","","","","","","null","","","","Images/WhiteBeadChoice.png","","null"
"image-button-response","109","309857","0.0-13.0-2.16","19","Low_HMMActual","","","","","","null","","","","Images/WhiteBeadChoiceWrong.png","","null"
"image-button-response","110","312204","0.0-13.0-0.17","19","Low_HMMActual","","","","","","2343.9000000059605","","","","Images/NewTrialBC.png","","0"
"image-button-response","111","312514","0.0-13.0-1.17","19","Low_HMMActual","","","","","","null","","","","Images/BlackBeadChoice.png","","null"
"image-button-response","112","313017","0.0-13.0-2.17","19","Low_HMMActual","","","","","","null","","","","Images/BlackBeadChoiceCorrect.png","","null"
"image-button-response","113","313663","0.0-13.0-0.18","19","Low_HMMActual","","","","","","642.4000000059605","","","","Images/NewTrialBC.png","","0"
"image-button-response","114","313976","0.0-13.0-1.18","19","Low_HMMActual","","","","","","null","","","","Images/BlackBeadChoice.png","","null"
"image-button-response","115","314480","0.0-13.0-2.18","19","Low_HMMActual","","","","","","null","","","","Images/BlackBeadChoiceCorrect.png","","null"
"image-button-response","116","315084","0.0-13.0-0.19","19","Low_HMMActual","","","","","","599.4000000059605","","","","Images/NewTrialBC.png","","0"
"image-button-response","117","315403","0.0-13.0-1.19","19","Low_HMMActual","","","","","","null","","","","Images/BlackBeadChoice.png","","null"
"image-button-response","118","315914","0.0-13.0-2.19","19","Low_HMMActual","","","","","","null","","","","Images/BlackBeadChoiceCorrect.png","","null"
"image-button-response","119","316228","0.0-13.0-0.20","19","Low_HMMActual","","","","","","310.40000000596046","","","","Images/NewTrialBC.png","","0"
"image-button-response","120","316544","0.0-13.0-1.20","19","Low_HMMActual","","","","","","null","","","","Images/BlackBeadChoice.png","","null"
"image-button-response","121","317058","0.0-13.0-2.20","19","Low_HMMActual","","","","","","null","","","","Images/BlackBeadChoiceCorrect.png","","null"
"image-button-response","122","317364","0.0-13.0-0.21","19","Low_HMMActual","","","","","","303","","","","Images/NewTrialBC.png","","0"
"image-button-response","123","317675","0.0-13.0-1.21","19","Low_HMMActual","","","","","","null","","","","Images/BlackBeadChoice.png","","null"
"image-button-response","124","318181","0.0-13.0-2.21","19","Low_HMMActual","","","","","","null","","","","Images/BlackBeadChoiceWrong.png","","null"
"image-button-response","125","319914","0.0-13.0-0.22","19","Low_HMMActual","","","","","","1729.800000011921","","","","Images/NewTrialWC.png","","2"
"image-button-response","126","320224","0.0-13.0-1.22","19","Low_HMMActual","","","","","","null","","","","Images/WhiteBeadChoice.png","","null"
"image-button-response","127","320741","0.0-13.0-2.22","19","Low_HMMActual","","","","","","null","","","","Images/WhiteBeadChoiceWrong.png","","null"
"image-button-response","128","323108","0.0-13.0-0.23","19","Low_HMMActual","","","","","","2363.4000000059605","","","","Images/NewTrialBC.png","","0"
"image-button-response","129","323411","0.0-13.0-1.23","19","Low_HMMActual","","","","","","null","","","","Images/BlackBeadChoice.png","","null"
"image-button-response","130","323915","0.0-13.0-2.23","19","Low_HMMActual","","","","","","null","","","","Images/BlackBeadChoiceWrong.png","","null"
"image-button-response","131","326418","0.0-13.0-0.24","19","Low_HMMActual","","","","","","2498.699999988079","","","","Images/NewTrialWC.png","","0"
"image-button-response","132","326725","0.0-13.0-1.24","19","Low_HMMActual","","","","","","null","","","","Images/BlackBeadChoice.png","","null"
"image-button-response","133","327229","0.0-13.0-2.24","19","Low_HMMActual","","","","","","null","","","","Images/BlackBeadChoiceCorrect.png","","null"
"image-button-response","134","327662","0.0-13.0-0.25","19","Low_HMMActual","","","","","","429.80000001192093","","","","Images/NewTrialBC.png","","0"
"image-button-response","135","327972","0.0-13.0-1.25","19","Low_HMMActual","","","","","","null","","","","Images/BlackBeadChoice.png","","null"
"image-button-response","136","328479","0.0-13.0-2.25","19","Low_HMMActual","","","","","","null","","","","Images/BlackBeadChoiceWrong.png","","null"
"image-button-response","137","330227","0.0-13.0-0.26","19","Low_HMMActual","","","","","","1744.5","","","","Images/NewTrialWC.png","","2"
"image-button-response","138","330543","0.0-13.0-1.26","19","Low_HMMActual","","","","","","null","","","","Images/WhiteBeadChoice.png","","null"
"image-button-response","139","331060","0.0-13.0-2.26","19","Low_HMMActual","","","","","","null","","","","Images/WhiteBeadChoiceWrong.png","","null"
"image-button-response","140","333252","0.0-13.0-0.27","19","Low_HMMActual","","","","","","2189","","","","Images/NewTrialBC.png","","0"
"image-button-response","141","333563","0.0-13.0-1.27","19","Low_HMMActual","","","","","","null","","","","Images/BlackBeadChoice.png","","null"
"image-button-response","142","334073","0.0-13.0-2.27","19","Low_HMMActual","","","","","","null","","","","Images/BlackBeadChoiceCorrect.png","","null"
"image-button-response","143","334534","0.0-13.0-0.28","19","Low_HMMActual","","","","","","457.80000001192093","","","","Images/NewTrialBC.png","","0"
"image-button-response","144","334844","0.0-13.0-1.28","19","Low_HMMActual","","","","","","null","","","","Images/BlackBeadChoice.png","","null"
"image-button-response","145","335355","0.0-13.0-2.28","19","Low_HMMActual","","","","","","null","","","","Images/BlackBeadChoiceWrong.png","","null"
"image-button-response","146","337277","0.0-13.0-0.29","19","Low_HMMActual","","","","","","1917.7999999821186","","","","Images/NewTrialWC.png","","2"
"image-button-response","147","337593","0.0-13.0-1.29","19","Low_HMMActual","","","","","","null","","","","Images/WhiteBeadChoice.png","","null"
"image-button-response","148","338106","0.0-13.0-2.29","19","Low_HMMActual","","","","","","null","","","","Images/WhiteBeadChoiceWrong.png","","null"
"image-button-response","149","342290","0.0-13.0-0.30","19","Low_HMMActual","","","","","","4180.699999988079","","","","Images/NewTrialBC.png","","0"
"image-button-response","150","342613","0.0-13.0-1.30","19","Low_HMMActual","","","","","","null","","","","Images/BlackBeadChoice.png","","null"
"image-button-response","151","343119","0.0-13.0-2.30","19","Low_HMMActual","","","","","","null","","","","Images/BlackBeadChoiceWrong.png","","null"
"image-button-response","152","345899","0.0-13.0-0.31","19","Low_HMMActual","","","","","","2775.4000000059605","","","","Images/NewTrialWC.png","","2"
"image-button-response","153","346216","0.0-13.0-1.31","19","Low_HMMActual","","","","","","null","","","","Images/WhiteBeadChoice.png","","null"
"image-button-response","154","346724","0.0-13.0-2.31","19","Low_HMMActual","","","","","","null","","","","Images/WhiteBeadChoiceCorrect.png","","null"
"image-button-response","155","346989","0.0-13.0-0.32","19","Low_HMMActual","","","","","","262.2000000178814","","","","Images/NewTrialWC.png","","2"
"image-button-response","156","347305","0.0-13.0-1.32","19","Low_HMMActual","","","","","","null","","","","Images/WhiteBeadChoice.png","","null"
"image-button-response","157","347812","0.0-13.0-2.32","19","Low_HMMActual","","","","","","null","","","","Images/WhiteBeadChoiceCorrect.png","","null"
"image-button-response","158","348418","0.0-13.0-0.33","19","Low_HMMActual","","","","","","601.8000000119209","","","","Images/NewTrialWC.png","","2"
"image-button-response","159","348735","0.0-13.0-1.33","19","Low_HMMActual","","","","","","null","","","","Images/WhiteBeadChoice.png","","null"
"image-button-response","160","349265","0.0-13.0-2.33","19","Low_HMMActual","","","","","","null","","","","Images/WhiteBeadChoiceCorrect.png","","null"
"image-button-response","161","349915","0.0-13.0-0.34","19","Low_HMMActual","","","","","","641.9000000059605","","","","Images/NewTrialWC.png","","2"
"image-button-response","162","350226","0.0-13.0-1.34","19","Low_HMMActual","","","","","","null","","","","Images/WhiteBeadChoice.png","","null"
"image-button-response","163","350734","0.0-13.0-2.34","19","Low_HMMActual","","","","","","null","","","","Images/WhiteBeadChoiceWrong.png","","null"
"image-button-response","164","352241","0.0-13.0-0.35","19","Low_HMMActual","","","","","","1504.5","","","","Images/NewTrialBC.png","","0"
"image-button-response","165","352545","0.0-13.0-1.35","19","Low_HMMActual","","","","","","null","","","","Images/BlackBeadChoice.png","","null"
"image-button-response","166","353054","0.0-13.0-2.35","19","Low_HMMActual","","","","","","null","","","","Images/BlackBeadChoiceWrong.png","","null"
"image-button-response","167","354392","0.0-13.0-0.36","19","Low_HMMActual","","","","","","1334.4000000059605","","","","Images/NewTrialWC.png","","2"
"image-button-response","168","354696","0.0-13.0-1.36","19","Low_HMMActual","","","","","","null","","","","Images/WhiteBeadChoice.png","","null"
"image-button-response","169","355206","0.0-13.0-2.36","19","Low_HMMActual","","","","","","null","","","","Images/WhiteBeadChoiceWrong.png","","null"
"image-button-response","170","355490","0.0-13.0-0.37","19","Low_HMMActual","","","","","","261.59999999403954","","","","Images/NewTrialBC.png","","2"
"image-button-response","171","355795","0.0-13.0-1.37","19","Low_HMMActual","","","","","","null","","","","Images/WhiteBeadChoice.png","","null"
"image-button-response","172","356313","0.0-13.0-2.37","19","Low_HMMActual","","","","","","null","","","","Images/WhiteBeadChoiceWrong.png","","null"
"image-button-response","173","357732","0.0-13.0-0.38","19","Low_HMMActual","","","","","","1414.5","","","","Images/NewTrialBC.png","","0"
"image-button-response","174","358049","0.0-13.0-1.38","19","Low_HMMActual","","","","","","null","","","","Images/BlackBeadChoice.png","","null"
"image-button-response","175","358552","0.0-13.0-2.38","19","Low_HMMActual","","","","","","null","","","","Images/BlackBeadChoiceCorrect.png","","null"
"image-button-response","176","358860","0.0-13.0-0.39","19","Low_HMMActual","","","","","","304.89999997615814","","","","Images/NewTrialBC.png","","0"
"image-button-response","177","359178","0.0-13.0-1.39","19","Low_HMMActual","","","","","","null","","","","Images/BlackBeadChoice.png","","null"
"image-button-response","178","359710","0.0-13.0-2.39","19","Low_HMMActual","","","","","","null","","","","Images/BlackBeadChoiceWrong.png","","null"
"image-button-response","179","360818","0.0-13.0-0.40","19","Low_HMMActual","","","","","","1105.199999988079","","","","Images/NewTrialWC.png","","2"
"image-button-response","180","361123","0.0-13.0-1.40","19","Low_HMMActual","","","","","","null","","","","Images/WhiteBeadChoice.png","","null"
"image-button-response","181","361631","0.0-13.0-2.40","19","Low_HMMActual","","","","","","null","","","","Images/WhiteBeadChoiceCorrect.png","","null"
"image-button-response","182","361871","0.0-13.0-0.41","19","Low_HMMActual","","","","","","236.40000000596046","","","","Images/NewTrialWC.png","","2"
"image-button-response","183","362185","0.0-13.0-1.41","19","Low_HMMActual","","","","","","null","","","","Images/WhiteBeadChoice.png","","null"
"image-button-response","184","362693","0.0-13.0-2.41","19","Low_HMMActual","","","","","","null","","","","Images/WhiteBeadChoiceCorrect.png","","null"
"image-button-response","185","363336","0.0-13.0-0.42","19","Low_HMMActual","","","","","","640.4000000059605","","","","Images/NewTrialWC.png","","2"
"image-button-response","186","363649","0.0-13.0-1.42","19","Low_HMMActual","","","","","","null","","","","Images/WhiteBeadChoice.png","","null"
"image-button-response","187","364159","0.0-13.0-2.42","19","Low_HMMActual","","","","","","null","","","","Images/WhiteBeadChoiceWrong.png","","null"
"image-button-response","188","365564","0.0-13.0-0.43","19","Low_HMMActual","","","","","","1402.2000000178814","","","","Images/NewTrialBC.png","","0"
"image-button-response","189","365872","0.0-13.0-1.43","19","Low_HMMActual","","","","","","null","","","","Images/BlackBeadChoice.png","","null"
"image-button-response","190","366384","0.0-13.0-2.43","19","Low_HMMActual","","","","","","null","","","","Images/BlackBeadChoiceWrong.png","","null"
"image-button-response","191","367337","0.0-13.0-0.44","19","Low_HMMActual","","","","","","949.5","","","","Images/NewTrialWC.png","","0"
"image-button-response","192","367647","0.0-13.0-1.44","19","Low_HMMActual","","","","","","null","","","","Images/BlackBeadChoice.png","","null"
"image-button-response","193","368152","0.0-13.0-2.44","19","Low_HMMActual","","","","","","null","","","","Images/BlackBeadChoiceCorrect.png","","null"
"image-button-response","194","368551","0.0-13.0-0.45","19","Low_HMMActual","","","","","","395.90000000596046","","","","Images/NewTrialBC.png","","0"
"image-button-response","195","368856","0.0-13.0-1.45","19","Low_HMMActual","","","","","","null","","","","Images/BlackBeadChoice.png","","null"
"image-button-response","196","369365","0.0-13.0-2.45","19","Low_HMMActual","","","","","","null","","","","Images/BlackBeadChoiceCorrect.png","","null"
"image-button-response","197","370700","0.0-13.0-0.46","19","Low_HMMActual","","","","","","1331.5999999940395","","","","Images/NewTrialBC.png","","0"
"image-button-response","198","371016","0.0-13.0-1.46","19","Low_HMMActual","","","","","","null","","","","Images/BlackBeadChoice.png","","null"
"image-button-response","199","371522","0.0-13.0-2.46","19","Low_HMMActual","","","","","","null","","","","Images/BlackBeadChoiceWrong.png","","null"
"image-button-response","200","372528","0.0-13.0-0.47","19","Low_HMMActual","","","","","","1002.5","","","","Images/NewTrialWC.png","","2"
"image-button-response","201","372836","0.0-13.0-1.47","19","Low_HMMActual","","","","","","null","","","","Images/WhiteBeadChoice.png","","null"
"image-button-response","202","373350","0.0-13.0-2.47","19","Low_HMMActual","","","","","","null","","","","Images/WhiteBeadChoiceCorrect.png","","null"
"image-button-response","203","373537","0.0-13.0-0.48","19","Low_HMMActual","","","","","","172","","","","Images/NewTrialWC.png","","2"
"image-button-response","204","373843","0.0-13.0-1.48","19","Low_HMMActual","","","","","","null","","","","Images/WhiteBeadChoice.png","","null"
"image-button-response","205","374357","0.0-13.0-2.48","19","Low_HMMActual","","","","","","null","","","","Images/WhiteBeadChoiceCorrect.png","","null"
"image-button-response","206","375247","0.0-13.0-0.49","19","Low_HMMActual","","","","","","885.4000000059605","","","","Images/NewTrialWC.png","","2"
"image-button-response","207","375552","0.0-13.0-1.49","19","Low_HMMActual","","","","","","null","","","","Images/WhiteBeadChoice.png","","null"
"image-button-response","208","376066","0.0-13.0-2.49","19","Low_HMMActual","","","","","","null","","","","Images/WhiteBeadChoiceCorrect.png","","null"
"image-button-response","209","376759","0.0-13.0-0.50","19","Low_HMMActual","","","","","","689.7999999821186","","","","Images/NewTrialWC.png","","2"
"image-button-response","210","377062","0.0-13.0-1.50","19","Low_HMMActual","","","","","","null","","","","Images/WhiteBeadChoice.png","","null"
"image-button-response","211","377570","0.0-13.0-2.50","19","Low_HMMActual","","","","","","null","","","","Images/WhiteBeadChoiceWrong.png","","null"
"image-button-response","212","378296","0.0-13.0-0.51","19","Low_HMMActual","","","","","","720.0999999940395","","","","Images/NewTrialBC.png","","2"
"image-button-response","213","378606","0.0-13.0-1.51","19","Low_HMMActual","","","","","","null","","","","Images/WhiteBeadChoice.png","","null"
"image-button-response","214","379110","0.0-13.0-2.51","19","Low_HMMActual","","","","","","null","","","","Images/WhiteBeadChoiceWrong.png","","null"
"image-button-response","215","379884","0.0-13.0-0.52","19","Low_HMMActual","","","","","","771.5","","","","Images/NewTrialBC.png","","0"
"image-button-response","216","380192","0.0-13.0-1.52","19","Low_HMMActual","","","","","","null","","","","Images/BlackBeadChoice.png","","null"
"image-button-response","217","380706","0.0-13.0-2.52","19","Low_HMMActual","","","","","","null","","","","Images/BlackBeadChoiceCorrect.png","","null"
"image-button-response","218","380845","0.0-13.0-0.53","19","Low_HMMActual","","","","","","132.40000000596046","","","","Images/NewTrialBC.png","","0"
"image-button-response","219","381160","0.0-13.0-1.53","19","Low_HMMActual","","","","","","null","","","","Images/BlackBeadChoice.png","","null"
"image-button-response","220","381675","0.0-13.0-2.53","19","Low_HMMActual","","","","","","null","","","","Images/BlackBeadChoiceWrong.png","","null"
"image-button-response","221","381981","0.0-13.0-0.54","19","Low_HMMActual","","","","","","303.60000002384186","","","","Images/NewTrialWC.png","","0"
"image-button-response","222","382306","0.0-13.0-1.54","19","Low_HMMActual","","","","","","null","","","","Images/BlackBeadChoice.png","","null"
"image-button-response","223","382811","0.0-13.0-2.54","19","Low_HMMActual","","","","","","null","","","","Images/BlackBeadChoiceCorrect.png","","null"
"image-button-response","224","383769","0.0-13.0-0.55","19","Low_HMMActual","","","","","","955.5","","","","Images/NewTrialBC.png","","0"
"image-button-response","225","384085","0.0-13.0-1.55","19","Low_HMMActual","","","","","","null","","","","Images/BlackBeadChoice.png","","null"
"image-button-response","226","384596","0.0-13.0-2.55","19","Low_HMMActual","","","","","","null","","","","Images/BlackBeadChoiceCorrect.png","","null"
"image-button-response","227","384844","0.0-13.0-0.56","19","Low_HMMActual","","","","","","245.09999999403954","","","","Images/NewTrialBC.png","","0"
"image-button-response","228","385158","0.0-13.0-1.56","19","Low_HMMActual","","","","","","null","","","","Images/BlackBeadChoice.png","","null"
"image-button-response","229","385678","0.0-13.0-2.56","19","Low_HMMActual","","","","","","null","","","","Images/BlackBeadChoiceCorrect.png","","null"
"image-button-response","230","386295","0.0-13.0-0.57","19","Low_HMMActual","","","","","","613.5999999940395","","","","Images/NewTrialBC.png","","0"
"image-button-response","231","386605","0.0-13.0-1.57","19","Low_HMMActual","","","","","","null","","","","Images/BlackBeadChoice.png","","null"
"image-button-response","232","387110","0.0-13.0-2.57","19","Low_HMMActual","","","","","","null","","","","Images/BlackBeadChoiceCorrect.png","","null"
"image-button-response","233","387586","0.0-13.0-0.58","19","Low_HMMActual","","","","","","457.80000001192093","","","","Images/NewTrialBC.png","","0"
"image-button-response","234","387903","0.0-13.0-1.58","19","Low_HMMActual","","","","","","null","","","","Images/BlackBeadChoice.png","","null"
"image-button-response","235","388414","0.0-13.0-2.58","19","Low_HMMActual","","","","","","null","","","","Images/BlackBeadChoiceCorrect.png","","null"
"image-button-response","236","388807","0.0-13.0-0.59","19","Low_HMMActual","","","","","","389.5","","","","Images/NewTrialBC.png","","0"
"image-button-response","237","389109","0.0-13.0-1.59","19","Low_HMMActual","","","","","","null","","","","Images/BlackBeadChoice.png","","null"
"image-button-response","238","389613","0.0-13.0-2.59","19","Low_HMMActual","","","","","","447.59999999403954","","","","Images/BlackBeadChoiceWrong.png","","0"
"image-button-response","239","391294","0.0-13.0-0.60","19","Low_HMMActual","","","","","","1678.9000000059605","","","","Images/NewTrialWC.png","","2"
"image-button-response","240","391618","0.0-13.0-1.60","19","Low_HMMActual","","","","","","null","","","","Images/WhiteBeadChoice.png","","null"
"image-button-response","241","392127","0.0-13.0-2.60","19","Low_HMMActual","","","","","","null","","","","Images/WhiteBeadChoiceCorrect.png","","null"
"image-button-response","242","392968","0.0-13.0-0.61","19","Low_HMMActual","","","","","","837.3000000119209","","","","Images/NewTrialWC.png","","2"
"image-button-response","243","393300","0.0-13.0-1.61","19","Low_HMMActual","","","","","","null","","","","Images/WhiteBeadChoice.png","","null"
"image-button-response","244","393824","0.0-13.0-2.61","19","Low_HMMActual","","","","","","null","","","","Images/WhiteBeadChoiceCorrect.png","","null"
"image-button-response","245","394535","0.0-13.0-0.62","19","Low_HMMActual","","","","","","706.7000000178814","","","","Images/NewTrialWC.png","","2"
"image-button-response","246","394852","0.0-13.0-1.62","19","Low_HMMActual","","","","","","null","","","","Images/WhiteBeadChoice.png","","null"
"image-button-response","247","395359","0.0-13.0-2.62","19","Low_HMMActual","","","","","","null","","","","Images/WhiteBeadChoiceWrong.png","","null"
"image-button-response","248","397000","0.0-13.0-0.63","19","Low_HMMActual","","","","","","1637.7999999821186","","","","Images/NewTrialBC.png","","0"
"image-button-response","249","397306","0.0-13.0-1.63","19","Low_HMMActual","","","","","","null","","","","Images/BlackBeadChoice.png","","null"
"image-button-response","250","397822","0.0-13.0-2.63","19","Low_HMMActual","","","","","","null","","","","Images/BlackBeadChoiceCorrect.png","","null"
"image-button-response","251","398089","0.0-13.0-0.64","19","Low_HMMActual","","","","","","264","","","","Images/NewTrialBC.png","","0"
"image-button-response","252","398399","0.0-13.0-1.64","19","Low_HMMActual","","","","","","null","","","","Images/BlackBeadChoice.png","","null"
"image-button-response","253","398908","0.0-13.0-2.64","19","Low_HMMActual","","","","","","null","","","","Images/BlackBeadChoiceWrong.png","","null"
"image-button-response","254","399341","0.0-13.0-0.65","19","Low_HMMActual","","","","","","430.5","","","","Images/NewTrialWC.png","","0"
"image-button-response","255","399649","0.0-13.0-1.65","19","Low_HMMActual","","","","","","null","","","","Images/BlackBeadChoice.png","","null"
"image-button-response","256","400160","0.0-13.0-2.65","19","Low_HMMActual","","","","","","null","","","","Images/BlackBeadChoiceCorrect.png","","null"
"image-button-response","257","400393","0.0-13.0-0.66","19","Low_HMMActual","","","","","","229.59999999403954","","","","Images/NewTrialBC.png","","0"
"image-button-response","258","400705","0.0-13.0-1.66","19","Low_HMMActual","","","","","","null","","","","Images/BlackBeadChoice.png","","null"
"image-button-response","259","401224","0.0-13.0-2.66","19","Low_HMMActual","","","","","","null","","","","Images/BlackBeadChoiceCorrect.png","","null"
"image-button-response","260","401422","0.0-13.0-0.67","19","Low_HMMActual","","","","","","191.7000000178814","","","","Images/NewTrialBC.png","","0"
"image-button-response","261","401738","0.0-13.0-1.67","19","Low_HMMActual","","","","","","null","","","","Images/BlackBeadChoice.png","","null"
"image-button-response","262","402259","0.0-13.0-2.67","19","Low_HMMActual","","","","","","null","","","","Images/BlackBeadChoiceCorrect.png","","null"
"image-button-response","263","402389","0.0-13.0-0.68","19","Low_HMMActual","","","","","","126","","","","Images/NewTrialBC.png","","0"
"image-button-response","264","402692","0.0-13.0-1.68","19","Low_HMMActual","","","","","","null","","","","Images/BlackBeadChoice.png","","null"
"image-button-response","265","403207","0.0-13.0-2.68","19","Low_HMMActual","","","","","","null","","","","Images/BlackBeadChoiceWrong.png","","null"
"image-button-response","266","404156","0.0-13.0-0.69","19","Low_HMMActual","","","","","","946","","","","Images/NewTrialWC.png","","2"
"image-button-response","267","404462","0.0-13.0-1.69","19","Low_HMMActual","","","","","","null","","","","Images/WhiteBeadChoice.png","","null"
"image-button-response","268","404966","0.0-13.0-2.69","19","Low_HMMActual","","","","","","null","","","","Images/WhiteBeadChoiceWrong.png","","null"
"image-button-response","269","406520","0.0-13.0-0.70","19","Low_HMMActual","","","","","","1550","","","","Images/NewTrialBC.png","","0"
"image-button-response","270","406847","0.0-13.0-1.70","19","Low_HMMActual","","","","","","null","","","","Images/BlackBeadChoice.png","","null"
"image-button-response","271","407364","0.0-13.0-2.70","19","Low_HMMActual","","","","","","null","","","","Images/BlackBeadChoiceWrong.png","","null"
"image-button-response","272","408203","0.0-13.0-0.71","19","Low_HMMActual","","","","","","836.0999999940395","","","","Images/NewTrialWC.png","","2"
"image-button-response","273","408510","0.0-13.0-1.71","19","Low_HMMActual","","","","","","null","","","","Images/WhiteBeadChoice.png","","null"
"image-button-response","274","409015","0.0-13.0-2.71","19","Low_HMMActual","","","","","","null","","","","Images/WhiteBeadChoiceWrong.png","","null"
"image-button-response","275","410137","0.0-13.0-0.72","19","Low_HMMActual","","","","","","1118.199999988079","","","","Images/NewTrialBC.png","","0"
"image-button-response","276","410445","0.0-13.0-1.72","19","Low_HMMActual","","","","","","null","","","","Images/BlackBeadChoice.png","","null"
"image-button-response","277","410957","0.0-13.0-2.72","19","Low_HMMActual","","","","","","null","","","","Images/BlackBeadChoiceCorrect.png","","null"
"image-button-response","278","411927","0.0-13.0-0.73","19","Low_HMMActual","","","","","","965.9000000059605","","","","Images/NewTrialBC.png","","0"
"image-button-response","279","412251","0.0-13.0-1.73","19","Low_HMMActual","","","","","","null","","","","Images/BlackBeadChoice.png","","null"
"image-button-response","280","412754","0.0-13.0-2.73","19","Low_HMMActual","","","","","","null","","","","Images/BlackBeadChoiceCorrect.png","","null"
"image-button-response","281","412947","0.0-13.0-0.74","19","Low_HMMActual","","","","","","189.7999999821186","","","","Images/NewTrialBC.png","","0"
"image-button-response","282","413267","0.0-13.0-1.74","19","Low_HMMActual","","","","","","null","","","","Images/BlackBeadChoice.png","","null"
"image-button-response","283","413772","0.0-13.0-2.74","19","Low_HMMActual","","","","","","null","","","","Images/BlackBeadChoiceCorrect.png","","null"
"image-button-response","284","414529","0.0-13.0-0.75","19","Low_HMMActual","","","","","","753.5999999940395","","","","Images/NewTrialBC.png","","0"
"image-button-response","285","414839","0.0-13.0-1.75","19","Low_HMMActual","","","","","","null","","","","Images/BlackBeadChoice.png","","null"
"image-button-response","286","415357","0.0-13.0-2.75","19","Low_HMMActual","","","","","","null","","","","Images/BlackBeadChoiceCorrect.png","","null"
"image-button-response","287","416034","0.0-13.0-0.76","19","Low_HMMActual","","","","","","669.8999999761581","","","","Images/NewTrialBC.png","","0"
"image-button-response","288","416357","0.0-13.0-1.76","19","Low_HMMActual","","","","","","null","","","","Images/BlackBeadChoice.png","","null"
"image-button-response","289","416864","0.0-13.0-2.76","19","Low_HMMActual","","","","","","null","","","","Images/BlackBeadChoiceCorrect.png","","null"
"image-button-response","290","417608","0.0-13.0-0.77","19","Low_HMMActual","","","","","","740.0999999940395","","","","Images/NewTrialBC.png","","0"
"image-button-response","291","417926","0.0-13.0-1.77","19","Low_HMMActual","","","","","","null","","","","Images/BlackBeadChoice.png","","null"
"image-button-response","292","418434","0.0-13.0-2.77","19","Low_HMMActual","","","","","","null","","","","Images/BlackBeadChoiceWrong.png","","null"
"image-button-response","293","419505","0.0-13.0-0.78","19","Low_HMMActual","","","","","","1068.2000000178814","","","","Images/NewTrialWC.png","","2"
"image-button-response","294","419820","0.0-13.0-1.78","19","Low_HMMActual","","","","","","null","","","","Images/WhiteBeadChoice.png","","null"
"image-button-response","295","420343","0.0-13.0-2.78","19","Low_HMMActual","","","","","","null","","","","Images/WhiteBeadChoiceWrong.png","","null"
"image-button-response","296","420726","0.0-13.0-0.79","19","Low_HMMActual","","","","","","378.69999998807907","","","","Images/NewTrialBC.png","","2"
"image-button-response","297","421050","0.0-13.0-1.79","19","Low_HMMActual","","","","","","null","","","","Images/WhiteBeadChoice.png","","null"
"image-button-response","298","421562","0.0-13.0-2.79","19","Low_HMMActual","","","","","","null","","","","Images/WhiteBeadChoiceWrong.png","","null"
"image-button-response","299","421932","0.0-13.0-0.80","19","Low_HMMActual","","","","","","366.59999999403954","","","","Images/NewTrialBC.png","","2"
"image-button-response","300","422242","0.0-13.0-1.80","19","Low_HMMActual","","","","","","null","","","","Images/WhiteBeadChoice.png","","null"
"image-button-response","301","422762","0.0-13.0-2.80","19","Low_HMMActual","","","","","","null","","","","Images/WhiteBeadChoiceCorrect.png","","null"
"image-button-response","302","422929","0.0-13.0-0.81","19","Low_HMMActual","","","","","","165.30000001192093","","","","Images/NewTrialWC.png","","2"
"image-button-response","303","423233","0.0-13.0-1.81","19","Low_HMMActual","","","","","","null","","","","Images/WhiteBeadChoice.png","","null"
"image-button-response","304","423747","0.0-13.0-2.81","19","Low_HMMActual","","","","","","null","","","","Images/WhiteBeadChoiceCorrect.png","","null"
"image-button-response","305","423889","0.0-13.0-0.82","19","Low_HMMActual","","","","","","138.2000000178814","","","","Images/NewTrialWC.png","","2"
"image-button-response","306","424201","0.0-13.0-1.82","19","Low_HMMActual","","","","","","null","","","","Images/WhiteBeadChoice.png","","null"
"image-button-response","307","424705","0.0-13.0-2.82","19","Low_HMMActual","","","","","","null","","","","Images/WhiteBeadChoiceWrong.png","","null"
"image-button-response","308","425087","0.0-13.0-0.83","19","Low_HMMActual","","","","","","379.40000000596046","","","","Images/NewTrialBC.png","","2"
"image-button-response","309","425402","0.0-13.0-1.83","19","Low_HMMActual","","","","","","null","","","","Images/WhiteBeadChoice.png","","null"
"image-button-response","310","425910","0.0-13.0-2.83","19","Low_HMMActual","","","","","","null","","","","Images/WhiteBeadChoiceWrong.png","","null"
"image-button-response","311","426915","0.0-13.0-0.84","19","Low_HMMActual","","","","","","1001.9000000059605","","","","Images/NewTrialBC.png","","2"
"image-button-response","312","427218","0.0-13.0-1.84","19","Low_HMMActual","","","","","","null","","","","Images/WhiteBeadChoice.png","","null"
"image-button-response","313","427722","0.0-13.0-2.84","19","Low_HMMActual","","","","","","null","","","","Images/WhiteBeadChoiceWrong.png","","null"
"image-button-response","314","428435","0.0-13.0-0.85","19","Low_HMMActual","","","","","","710","","","","Images/NewTrialBC.png","","0"
"image-button-response","315","428743","0.0-13.0-1.85","19","Low_HMMActual","","","","","","null","","","","Images/BlackBeadChoice.png","","null"
"image-button-response","316","429249","0.0-13.0-2.85","19","Low_HMMActual","","","","","","null","","","","Images/BlackBeadChoiceCorrect.png","","null"
"image-button-response","317","429978","0.0-13.0-0.86","19","Low_HMMActual","","","","","","721.0999999940395","","","","Images/NewTrialBC.png","","0"
"image-button-response","318","430290","0.0-13.0-1.86","19","Low_HMMActual","","","","","","null","","","","Images/BlackBeadChoice.png","","null"
"image-button-response","319","430817","0.0-13.0-2.86","19","Low_HMMActual","","","","","","null","","","","Images/BlackBeadChoiceWrong.png","","null"
"image-button-response","320","432343","0.0-13.0-0.87","19","Low_HMMActual","","","","","","1522.7999999821186","","","","Images/NewTrialWC.png","","2"
"image-button-response","321","432651","0.0-13.0-1.87","19","Low_HMMActual","","","","","","null","","","","Images/WhiteBeadChoice.png","","null"
"image-button-response","322","433158","0.0-13.0-2.87","19","Low_HMMActual","","","","","","null","","","","Images/WhiteBeadChoiceCorrect.png","","null"
"image-button-response","323","434109","0.0-13.0-0.88","19","Low_HMMActual","","","","","","946.8000000119209","","","","Images/NewTrialWC.png","","2"
"image-button-response","324","434412","0.0-13.0-1.88","19","Low_HMMActual","","","","","","null","","","","Images/WhiteBeadChoice.png","","null"
"image-button-response","325","434916","0.0-13.0-2.88","19","Low_HMMActual","","","","","","null","","","","Images/WhiteBeadChoiceCorrect.png","","null"
"image-button-response","326","435568","0.0-13.0-0.89","19","Low_HMMActual","","","","","","647.6000000238419","","","","Images/NewTrialWC.png","","2"
"image-button-response","327","435878","0.0-13.0-1.89","19","Low_HMMActual","","","","","","null","","","","Images/WhiteBeadChoice.png","","null"
"image-button-response","328","436384","0.0-13.0-2.89","19","Low_HMMActual","","","","","","null","","","","Images/WhiteBeadChoiceWrong.png","","null"
"image-button-response","329","437487","0.0-13.0-0.90","19","Low_HMMActual","","","","","","1100.2000000178814","","","","Images/NewTrialBC.png","","0"
"image-button-response","330","437805","0.0-13.0-1.90","19","Low_HMMActual","","","","","","null","","","","Images/BlackBeadChoice.png","","null"
"image-button-response","331","438314","0.0-13.0-2.90","19","Low_HMMActual","","","","","","null","","","","Images/BlackBeadChoiceCorrect.png","","null"
"image-button-response","332","439069","0.0-13.0-0.91","19","Low_HMMActual","","","","","","751","","","","Images/NewTrialBC.png","","0"
"image-button-response","333","439385","0.0-13.0-1.91","19","Low_HMMActual","","","","","","null","","","","Images/BlackBeadChoice.png","","null"
"image-button-response","334","439891","0.0-13.0-2.91","19","Low_HMMActual","","","","","","null","","","","Images/BlackBeadChoiceCorrect.png","","null"
"image-button-response","335","440305","0.0-13.0-0.92","19","Low_HMMActual","","","","","","410.69999998807907","","","","Images/NewTrialBC.png","","0"
"image-button-response","336","440621","0.0-13.0-1.92","19","Low_HMMActual","","","","","","null","","","","Images/BlackBeadChoice.png","","null"
"image-button-response","337","441127","0.0-13.0-2.92","19","Low_HMMActual","","","","","","null","","","","Images/BlackBeadChoiceWrong.png","","null"
"image-button-response","338","441841","0.0-13.0-0.93","19","Low_HMMActual","","","","","","710.9000000059605","","","","Images/NewTrialWC.png","","0"
"image-button-response","339","442148","0.0-13.0-1.93","19","Low_HMMActual","","","","","","null","","","","Images/BlackBeadChoice.png","","null"
"image-button-response","340","442655","0.0-13.0-2.93","19","Low_HMMActual","","","","","","null","","","","Images/BlackBeadChoiceWrong.png","","null"
"image-button-response","341","443759","0.0-13.0-0.94","19","Low_HMMActual","","","","","","1100.199999988079","","","","Images/NewTrialWC.png","","2"
"image-button-response","342","444076","0.0-13.0-1.94","19","Low_HMMActual","","","","","","null","","","","Images/WhiteBeadChoice.png","","null"
"image-button-response","343","444597","0.0-13.0-2.94","19","Low_HMMActual","","","","","","287.59999999403954","","","","Images/WhiteBeadChoiceWrong.png","","2"
"image-button-response","344","445258","0.0-13.0-0.95","19","Low_HMMActual","","","","","","653.7000000178814","","","","Images/NewTrialBC.png","","2"
"image-button-response","345","445568","0.0-13.0-1.95","19","Low_HMMActual","","","","","","null","","","","Images/WhiteBeadChoice.png","","null"
"image-button-response","346","446071","0.0-13.0-2.95","19","Low_HMMActual","","","","","","null","","","","Images/WhiteBeadChoiceWrong.png","","null"
"image-button-response","347","446808","0.0-13.0-0.96","19","Low_HMMActual","","","","","","714.0999999940395","","","","Images/NewTrialBC.png","","0"
"image-button-response","348","447113","0.0-13.0-1.96","19","Low_HMMActual","","","","","","null","","","","Images/BlackBeadChoice.png","","null"
"image-button-response","349","447625","0.0-13.0-2.96","19","Low_HMMActual","","","","","","null","","","","Images/BlackBeadChoiceCorrect.png","","null"
"image-button-response","350","447760","0.0-13.0-0.97","19","Low_HMMActual","","","","","","130.90000000596046","","","","Images/NewTrialBC.png","","0"
"image-button-response","351","448070","0.0-13.0-1.97","19","Low_HMMActual","","","","","","null","","","","Images/BlackBeadChoice.png","","null"
"image-button-response","352","448576","0.0-13.0-2.97","19","Low_HMMActual","","","","","","null","","","","Images/BlackBeadChoiceCorrect.png","","null"
"image-button-response","353","449341","0.0-13.0-0.98","19","Low_HMMActual","","","","","","761.3999999761581","","","","Images/NewTrialBC.png","","0"
"image-button-response","354","449648","0.0-13.0-1.98","19","Low_HMMActual","","","","","","null","","","","Images/BlackBeadChoice.png","","null"
"image-button-response","355","450154","0.0-13.0-2.98","19","Low_HMMActual","","","","","","null","","","","Images/BlackBeadChoiceWrong.png","","null"
"image-button-response","356","451438","0.0-13.0-0.99","19","Low_HMMActual","","","","","","1263.699999988079","","","","Images/NewTrialWC.png","","2"
"image-button-response","357","451740","0.0-13.0-1.99","19","Low_HMMActual","","","","","","null","","","","Images/WhiteBeadChoice.png","","null"
"image-button-response","358","452252","0.0-13.0-2.99","19","Low_HMMActual","","","","","","null","","","","Images/WhiteBeadChoiceWrong.png","","null"
"image-button-response","359","453672","0.0-13.0-0.100","19","Low_HMMActual","","","","","","1416.800000011921","","","","Images/NewTrialBC.png","","0"
"image-button-response","360","454002","0.0-13.0-1.100","19","Low_HMMActual","","","","","","null","","","","Images/BlackBeadChoice.png","","null"
"image-button-response","361","454521","0.0-13.0-2.100","19","Low_HMMActual","","","","","","null","","","","Images/BlackBeadChoiceWrong.png","","null"
"image-button-response","362","455477","0.0-13.0-0.101","19","Low_HMMActual","","","","","","948.8999999761581","","","","Images/NewTrialWC.png","","2"
"image-button-response","363","455794","0.0-13.0-1.101","19","Low_HMMActual","","","","","","null","","","","Images/WhiteBeadChoice.png","","null"
"image-button-response","364","456298","0.0-13.0-2.101","19","Low_HMMActual","","","","","","null","","","","Images/WhiteBeadChoiceCorrect.png","","null"
"image-button-response","365","456581","0.0-13.0-0.102","19","Low_HMMActual","","","","","","279.40000000596046","","","","Images/NewTrialWC.png","","2"
"image-button-response","366","456890","0.0-13.0-1.102","19","Low_HMMActual","","","","","","null","","","","Images/WhiteBeadChoice.png","","null"
"image-button-response","367","457397","0.0-13.0-2.102","19","Low_HMMActual","","","","","","219","","","","Images/WhiteBeadChoiceCorrect.png","","2"
"image-button-response","368","457994","0.0-13.0-0.103","19","Low_HMMActual","","","","","","593.7000000178814","","","","Images/NewTrialWC.png","","2"
"image-button-response","369","458304","0.0-13.0-1.103","19","Low_HMMActual","","","","","","null","","","","Images/WhiteBeadChoice.png","","null"
"image-button-response","370","458813","0.0-13.0-2.103","19","Low_HMMActual","","","","","","302","","","","Images/WhiteBeadChoiceWrong.png","","2"
"image-button-response","371","459492","0.0-13.0-0.104","19","Low_HMMActual","","","","","","672.8000000119209","","","","Images/NewTrialBC.png","","2"
"image-button-response","372","459807","0.0-13.0-1.104","19","Low_HMMActual","","","","","","null","","","","Images/WhiteBeadChoice.png","","null"
"image-button-response","373","460317","0.0-13.0-2.104","19","Low_HMMActual","","","","","","null","","","","Images/WhiteBeadChoiceCorrect.png","","null"
"image-button-response","374","461342","0.0-13.0-0.105","19","Low_HMMActual","","","","","","1021.2000000178814","","","","Images/NewTrialWC.png","","2"
"image-button-response","375","461645","0.0-13.0-1.105","19","Low_HMMActual","","","","","","null","","","","Images/WhiteBeadChoice.png","","null"
"image-button-response","376","462149","0.0-13.0-2.105","19","Low_HMMActual","","","","","","null","","","","Images/WhiteBeadChoiceCorrect.png","","null"
"image-button-response","377","463015","0.0-13.0-0.106","19","Low_HMMActual","","","","","","862.8000000119209","","","","Images/NewTrialWC.png","","2"
"image-button-response","378","463319","0.0-13.0-1.106","19","Low_HMMActual","","","","","","null","","","","Images/WhiteBeadChoice.png","","null"
"image-button-response","379","463834","0.0-13.0-2.106","19","Low_HMMActual","","","","","","null","","","","Images/WhiteBeadChoiceCorrect.png","","null"
"image-button-response","380","464298","0.0-13.0-0.107","19","Low_HMMActual","","","","","","459.90000000596046","","","","Images/NewTrialWC.png","","2"
"image-button-response","381","464611","0.0-13.0-1.107","19","Low_HMMActual","","","","","","null","","","","Images/WhiteBeadChoice.png","","null"
"image-button-response","382","465119","0.0-13.0-2.107","19","Low_HMMActual","","","","","","null","","","","Images/WhiteBeadChoiceCorrect.png","","null"
"image-button-response","383","465764","0.0-13.0-0.108","19","Low_HMMActual","","","","","","621.0999999940395","","","","Images/NewTrialWC.png","","2"
"image-button-response","384","466070","0.0-13.0-1.108","19","Low_HMMActual","","","","","","null","","","","Images/WhiteBeadChoice.png","","null"
"image-button-response","385","466586","0.0-13.0-2.108","19","Low_HMMActual","","","","","","null","","","","Images/WhiteBeadChoiceCorrect.png","","null"
"image-button-response","386","467200","0.0-13.0-0.109","19","Low_HMMActual","","","","","","609.5999999940395","","","","Images/NewTrialWC.png","","2"
"image-button-response","387","467506","0.0-13.0-1.109","19","Low_HMMActual","","","","","","null","","","","Images/WhiteBeadChoice.png","","null"
"image-button-response","388","468017","0.0-13.0-2.109","19","Low_HMMActual","","","","","","null","","","","Images/WhiteBeadChoiceCorrect.png","","null"
"image-button-response","389","468628","0.0-13.0-0.110","19","Low_HMMActual","","","","","","606.3000000119209","","","","Images/NewTrialWC.png","","2"
"image-button-response","390","468939","0.0-13.0-1.110","19","Low_HMMActual","","","","","","null","","","","Images/WhiteBeadChoice.png","","null"
"image-button-response","391","469457","0.0-13.0-2.110","19","Low_HMMActual","","","","","","null","","","","Images/WhiteBeadChoiceWrong.png","","null"
"image-button-response","392","470617","0.0-13.0-0.111","19","Low_HMMActual","","","","","","1157","","","","Images/NewTrialBC.png","","0"
"image-button-response","393","470933","0.0-13.0-1.111","19","Low_HMMActual","","","","","","null","","","","Images/BlackBeadChoice.png","","null"
"image-button-response","394","471439","0.0-13.0-2.111","19","Low_HMMActual","","","","","","null","","","","Images/BlackBeadChoiceCorrect.png","","null"
"image-button-response","395","472291","0.0-13.0-0.112","19","Low_HMMActual","","","","","","848.0999999940395","","","","Images/NewTrialBC.png","","0"
"image-button-response","396","472594","0.0-13.0-1.112","19","Low_HMMActual","","","","","","null","","","","Images/BlackBeadChoice.png","","null"
"image-button-response","397","473103","0.0-13.0-2.112","19","Low_HMMActual","","","","","","null","","","","Images/BlackBeadChoiceWrong.png","","null"
"image-button-response","398","473764","0.0-13.0-0.113","19","Low_HMMActual","","","","","","654.5","","","","Images/NewTrialWC.png","","0"
"image-button-response","399","474072","0.0-13.0-1.113","19","Low_HMMActual","","","","","","null","","","","Images/BlackBeadChoice.png","","null"
"image-button-response","400","474580","0.0-13.0-2.113","19","Low_HMMActual","","","","","","null","","","","Images/BlackBeadChoiceWrong.png","","null"
"image-button-response","401","475023","0.0-13.0-0.114","19","Low_HMMActual","","","","","","439.59999999403954","","","","Images/NewTrialWC.png","","0"
"image-button-response","402","475338","0.0-13.0-1.114","19","Low_HMMActual","","","","","","null","","","","Images/BlackBeadChoice.png","","null"
"image-button-response","403","475859","0.0-13.0-2.114","19","Low_HMMActual","","","","","","null","","","","Images/BlackBeadChoiceWrong.png","","null"
"image-button-response","404","476996","0.0-13.0-0.115","19","Low_HMMActual","","","","","","1133.0999999940395","","","","Images/NewTrialWC.png","","2"
"image-button-response","405","477304","0.0-13.0-1.115","19","Low_HMMActual","","","","","","null","","","","Images/WhiteBeadChoice.png","","null"
"image-button-response","406","477818","0.0-13.0-2.115","19","Low_HMMActual","","","","","","null","","","","Images/WhiteBeadChoiceCorrect.png","","null"
"image-button-response","407","478164","0.0-13.0-0.116","19","Low_HMMActual","","","","","","342.10000002384186","","","","Images/NewTrialWC.png","","2"
"image-button-response","408","478472","0.0-13.0-1.116","19","Low_HMMActual","","","","","","null","","","","Images/WhiteBeadChoice.png","","null"
"image-button-response","409","478985","0.0-13.0-2.116","19","Low_HMMActual","","","","","","null","","","","Images/WhiteBeadChoiceWrong.png","","null"
"image-button-response","410","479762","0.0-13.0-0.117","19","Low_HMMActual","","","","","","765.5","","","","Images/NewTrialBC.png","","2"
"image-button-response","411","480064","0.0-13.0-1.117","19","Low_HMMActual","","","","","","null","","","","Images/WhiteBeadChoice.png","","null"
"image-button-response","412","480568","0.0-13.0-2.117","19","Low_HMMActual","","","","","","null","","","","Images/WhiteBeadChoiceWrong.png","","null"
"image-button-response","413","481818","0.0-13.0-0.118","19","Low_HMMActual","","","","","","1246.5","","","","Images/NewTrialBC.png","","0"
"image-button-response","414","482132","0.0-13.0-1.118","19","Low_HMMActual","","","","","","null","","","","Images/BlackBeadChoice.png","","null"
"image-button-response","415","482642","0.0-13.0-2.118","19","Low_HMMActual","","","","","","null","","","","Images/BlackBeadChoiceCorrect.png","","null"
"image-button-response","416","482823","0.0-13.0-0.119","19","Low_HMMActual","","","","","","173.2999999821186","","","","Images/NewTrialBC.png","","0"
"image-button-response","417","483129","0.0-13.0-1.119","19","Low_HMMActual","","","","","","null","","","","Images/BlackBeadChoice.png","","null"
"image-button-response","418","483632","0.0-13.0-2.119","19","Low_HMMActual","","","","","","null","","","","Images/BlackBeadChoiceCorrect.png","","null"
"image-button-response","419","484482","0.0-13.0-0.120","19","Low_HMMActual","","","","","","845.5","","","","Images/NewTrialBC.png","","0"
"image-button-response","420","484792","0.0-13.0-1.120","19","Low_HMMActual","","","","","","null","","","","Images/BlackBeadChoice.png","","null"
"image-button-response","421","485303","0.0-13.0-2.120","19","Low_HMMActual","","","","","","null","","","","Images/BlackBeadChoiceWrong.png","","null"
"image-button-response","422","486609","0.0-13.0-0.121","19","Low_HMMActual","","","","","","1302.0999999940395","","","","Images/NewTrialWC.png","","2"
"image-button-response","423","486927","0.0-13.0-1.121","19","Low_HMMActual","","","","","","null","","","","Images/WhiteBeadChoice.png","","null"
"image-button-response","424","487446","0.0-13.0-2.121","19","Low_HMMActual","","","","","","null","","","","Images/WhiteBeadChoiceCorrect.png","","null"
"image-button-response","425","487622","0.0-13.0-0.122","19","Low_HMMActual","","","","","","172.5","","","","Images/NewTrialWC.png","","2"
"image-button-response","426","487933","0.0-13.0-1.122","19","Low_HMMActual","","","","","","null","","","","Images/WhiteBeadChoice.png","","null"
"image-button-response","427","488442","0.0-13.0-2.122","19","Low_HMMActual","","","","","","null","","","","Images/WhiteBeadChoiceCorrect.png","","null"
"image-button-response","428","490148","0.0-13.0-0.123","19","Low_HMMActual","","","","","","1698.5999999940395","","","","Images/NewTrialWC.png","","2"
"image-button-response","429","490454","0.0-13.0-1.123","19","Low_HMMActual","","","","","","null","","","","Images/WhiteBeadChoice.png","","null"
"image-button-response","430","490967","0.0-13.0-2.123","19","Low_HMMActual","","","","","","null","","","","Images/WhiteBeadChoiceWrong.png","","null"
"image-button-response","431","491899","0.0-13.0-0.124","19","Low_HMMActual","","","","","","928.9000000059605","","","","Images/NewTrialBC.png","","0"
"image-button-response","432","492210","0.0-13.0-1.124","19","Low_HMMActual","","","","","","null","","","","Images/BlackBeadChoice.png","","null"
"image-button-response","433","492714","0.0-13.0-2.124","19","Low_HMMActual","","","","","","null","","","","Images/BlackBeadChoiceCorrect.png","","null"
"image-button-response","434","493027","0.0-13.0-0.125","19","Low_HMMActual","","","","","","308.39999997615814","","","","Images/NewTrialBC.png","","0"
"image-button-response","435","493342","0.0-13.0-1.125","19","Low_HMMActual","","","","","","null","","","","Images/BlackBeadChoice.png","","null"
"image-button-response","436","493852","0.0-13.0-2.125","19","Low_HMMActual","","","","","","null","","","","Images/BlackBeadChoiceWrong.png","","null"
"image-button-response","437","496789","0.0-13.0-0.126","19","Low_HMMActual","","","","","","2929.2000000178814","","","","Images/NewTrialWC.png","","0"
"image-button-response","438","497093","0.0-13.0-1.126","19","Low_HMMActual","","","","","","null","","","","Images/BlackBeadChoice.png","","null"
"image-button-response","439","497599","0.0-13.0-2.126","19","Low_HMMActual","","","","","","null","","","","Images/BlackBeadChoiceCorrect.png","","null"
"image-button-response","440","498346","0.0-13.0-0.127","19","Low_HMMActual","","","","","","744.5","","","","Images/NewTrialBC.png","","0"
"image-button-response","441","498670","0.0-13.0-1.127","19","Low_HMMActual","","","","","","null","","","","Images/BlackBeadChoice.png","","null"
"image-button-response","442","499180","0.0-13.0-2.127","19","Low_HMMActual","","","","","","null","","","","Images/BlackBeadChoiceCorrect.png","","null"
"image-button-response","443","499314","0.0-13.0-0.128","19","Low_HMMActual","","","","","","128.89999997615814","","","","Images/NewTrialBC.png","","0"
"image-button-response","444","499625","0.0-13.0-1.128","19","Low_HMMActual","","","","","","null","","","","Images/BlackBeadChoice.png","","null"
"image-button-response","445","500134","0.0-13.0-2.128","19","Low_HMMActual","","","","","","null","","","","Images/BlackBeadChoiceCorrect.png","","null"
"image-button-response","446","501043","0.0-13.0-0.129","19","Low_HMMActual","","","","","","905.2000000178814","","","","Images/NewTrialBC.png","","0"
"image-button-response","447","501361","0.0-13.0-1.129","19","Low_HMMActual","","","","","","null","","","","Images/BlackBeadChoice.png","","null"
"image-button-response","448","501866","0.0-13.0-2.129","19","Low_HMMActual","","","","","","null","","","","Images/BlackBeadChoiceCorrect.png","","null"
"image-button-response","449","502701","0.0-13.0-0.130","19","Low_HMMActual","","","","","","831.5999999940395","","","","Images/NewTrialBC.png","","0"
"image-button-response","450","503005","0.0-13.0-1.130","19","Low_HMMActual","","","","","","null","","","","Images/BlackBeadChoice.png","","null"
"image-button-response","451","503516","0.0-13.0-2.130","19","Low_HMMActual","","","","","","null","","","","Images/BlackBeadChoiceCorrect.png","","null"
"image-button-response","452","504437","0.0-13.0-0.131","19","Low_HMMActual","","","","","","900","","","","Images/NewTrialBC.png","","0"
"image-button-response","453","504745","0.0-13.0-1.131","19","Low_HMMActual","","","","","","null","","","","Images/BlackBeadChoice.png","","null"
"image-button-response","454","505259","0.0-13.0-2.131","19","Low_HMMActual","","","","","","null","","","","Images/BlackBeadChoiceCorrect.png","","null"
"image-button-response","455","505511","0.0-13.0-0.132","19","Low_HMMActual","","","","","","248.69999998807907","","","","Images/NewTrialBC.png","","0"
"image-button-response","456","505822","0.0-13.0-1.132","19","Low_HMMActual","","","","","","null","","","","Images/BlackBeadChoice.png","","null"
"image-button-response","457","506349","0.0-13.0-2.132","19","Low_HMMActual","","","","","","null","","","","Images/BlackBeadChoiceCorrect.png","","null"
"image-button-response","458","506824","0.0-13.0-0.133","19","Low_HMMActual","","","","","","470.90000000596046","","","","Images/NewTrialBC.png","","0"
"image-button-response","459","507143","0.0-13.0-1.133","19","Low_HMMActual","","","","","","null","","","","Images/BlackBeadChoice.png","","null"
"image-button-response","460","507682","0.0-13.0-2.133","19","Low_HMMActual","","","","","","null","","","","Images/BlackBeadChoiceCorrect.png","","null"
"image-button-response","461","508382","0.0-13.0-0.134","19","Low_HMMActual","","","","","","696.1999999880791","","","","Images/NewTrialBC.png","","0"
"image-button-response","462","508698","0.0-13.0-1.134","19","Low_HMMActual","","","","","","null","","","","Images/BlackBeadChoice.png","","null"
"image-button-response","463","509207","0.0-13.0-2.134","19","Low_HMMActual","","","","","","null","","","","Images/BlackBeadChoiceCorrect.png","","null"
"image-button-response","464","510317","0.0-13.0-0.135","19","Low_HMMActual","","","","","","1105.5","","","","Images/NewTrialBC.png","","0"
"image-button-response","465","510626","0.0-13.0-1.135","19","Low_HMMActual","","","","","","null","","","","Images/BlackBeadChoice.png","","null"
"image-button-response","466","511140","0.0-13.0-2.135","19","Low_HMMActual","","","","","","null","","","","Images/BlackBeadChoiceWrong.png","","null"
"image-button-response","467","512091","0.0-13.0-0.136","19","Low_HMMActual","","","","","","947.7999999821186","","","","Images/NewTrialWC.png","","2"
"image-button-response","468","512406","0.0-13.0-1.136","19","Low_HMMActual","","","","","","null","","","","Images/WhiteBeadChoice.png","","null"
"image-button-response","469","512915","0.0-13.0-2.136","19","Low_HMMActual","","","","","","null","","","","Images/WhiteBeadChoiceCorrect.png","","null"
"image-button-response","470","513151","0.0-13.0-0.137","19","Low_HMMActual","","","","","","231.59999999403954","","","","Images/NewTrialWC.png","","2"
"image-button-response","471","513460","0.0-13.0-1.137","19","Low_HMMActual","","","","","","null","","","","Images/WhiteBeadChoice.png","","null"
"image-button-response","472","513972","0.0-13.0-2.137","19","Low_HMMActual","","","","","","null","","","","Images/WhiteBeadChoiceCorrect.png","","null"
"image-button-response","473","515270","0.0-13.0-0.138","19","Low_HMMActual","","","","","","1293.7999999821186","","","","Images/NewTrialWC.png","","2"
"image-button-response","474","515593","0.0-13.0-1.138","19","Low_HMMActual","","","","","","null","","","","Images/WhiteBeadChoice.png","","null"
"image-button-response","475","516110","0.0-13.0-2.138","19","Low_HMMActual","","","","","","null","","","","Images/WhiteBeadChoiceCorrect.png","","null"
"image-button-response","476","516513","0.0-13.0-0.139","19","Low_HMMActual","","","","","","399.80000001192093","","","","Images/NewTrialWC.png","","2"
"image-button-response","477","516822","0.0-13.0-1.139","19","Low_HMMActual","","","","","","null","","","","Images/WhiteBeadChoice.png","","null"
"image-button-response","478","517345","0.0-13.0-2.139","19","Low_HMMActual","","","","","","null","","","","Images/WhiteBeadChoiceCorrect.png","","null"
"image-button-response","479","518525","0.0-13.0-0.140","19","Low_HMMActual","","","","","","1175.300000011921","","","","Images/NewTrialWC.png","","2"
"image-button-response","480","518842","0.0-13.0-1.140","19","Low_HMMActual","","","","","","null","","","","Images/WhiteBeadChoice.png","","null"
"image-button-response","481","519347","0.0-13.0-2.140","19","Low_HMMActual","","","","","","null","","","","Images/WhiteBeadChoiceCorrect.png","","null"
"image-button-response","482","520130","0.0-13.0-0.141","19","Low_HMMActual","","","","","","778.1999999880791","","","","Images/NewTrialWC.png","","2"
"image-button-response","483","520442","0.0-13.0-1.141","19","Low_HMMActual","","","","","","null","","","","Images/WhiteBeadChoice.png","","null"
"image-button-response","484","520961","0.0-13.0-2.141","19","Low_HMMActual","","","","","","null","","","","Images/WhiteBeadChoiceCorrect.png","","null"
"image-button-response","485","521335","0.0-13.0-0.142","19","Low_HMMActual","","","","","","370.7000000178814","","","","Images/NewTrialWC.png","","2"
"image-button-response","486","521652","0.0-13.0-1.142","19","Low_HMMActual","","","","","","null","","","","Images/WhiteBeadChoice.png","","null"
"image-button-response","487","522158","0.0-13.0-2.142","19","Low_HMMActual","","","","","","null","","","","Images/WhiteBeadChoiceWrong.png","","null"
"image-button-response","488","523277","0.0-13.0-0.143","19","Low_HMMActual","","","","","","1115.5","","","","Images/NewTrialBC.png","","0"
"image-button-response","489","523587","0.0-13.0-1.143","19","Low_HMMActual","","","","","","null","","","","Images/BlackBeadChoice.png","","null"
"image-button-response","490","524100","0.0-13.0-2.143","19","Low_HMMActual","","","","","","null","","","","Images/BlackBeadChoiceWrong.png","","null"
"image-button-response","491","525150","0.0-13.0-0.144","19","Low_HMMActual","","","","","","1045.7999999821186","","","","Images/NewTrialWC.png","","0"
"image-button-response","492","525460","0.0-13.0-1.144","19","Low_HMMActual","","","","","","null","","","","Images/BlackBeadChoice.png","","null"
"image-button-response","493","525974","0.0-13.0-2.144","19","Low_HMMActual","","","","","","null","","","","Images/BlackBeadChoiceWrong.png","","null"
"image-button-response","494","526180","0.0-13.0-0.145","19","Low_HMMActual","","","","","","202.90000000596046","","","","Images/NewTrialWC.png","","0"
"image-button-response","495","526483","0.0-13.0-1.145","19","Low_HMMActual","","","","","","null","","","","Images/BlackBeadChoice.png","","null"
"image-button-response","496","527011","0.0-13.0-2.145","19","Low_HMMActual","","","","","","null","","","","Images/BlackBeadChoiceWrong.png","","null"
"image-button-response","497","527600","0.0-13.0-0.146","19","Low_HMMActual","","","","","","585.8000000119209","","","","Images/NewTrialWC.png","","2"
"image-button-response","498","527918","0.0-13.0-1.146","19","Low_HMMActual","","","","","","null","","","","Images/WhiteBeadChoice.png","","null"
"image-button-response","499","528424","0.0-13.0-2.146","19","Low_HMMActual","","","","","","null","","","","Images/WhiteBeadChoiceWrong.png","","null"
"image-button-response","500","532145","0.0-13.0-0.147","19","Low_HMMActual","","","","","","3718.0999999940395","","","","Images/NewTrialBC.png","","0"
"image-button-response","501","532463","0.0-13.0-1.147","19","Low_HMMActual","","","","","","null","","","","Images/BlackBeadChoice.png","","null"
"image-button-response","502","532975","0.0-13.0-2.147","19","Low_HMMActual","","","","","","null","","","","Images/BlackBeadChoiceWrong.png","","null"
"image-button-response","503","533888","0.0-13.0-0.148","19","Low_HMMActual","","","","","","909.2999999821186","","","","Images/NewTrialWC.png","","2"
"image-button-response","504","534202","0.0-13.0-1.148","19","Low_HMMActual","","","","","","null","","","","Images/WhiteBeadChoice.png","","null"
"image-button-response","505","534713","0.0-13.0-2.148","19","Low_HMMActual","","","","","","null","","","","Images/WhiteBeadChoiceCorrect.png","","null"
"image-button-response","506","535501","0.0-13.0-0.149","19","Low_HMMActual","","","","","","783.4000000059605","","","","Images/NewTrialWC.png","","2"
"image-button-response","507","535808","0.0-13.0-1.149","19","Low_HMMActual","","","","","","null","","","","Images/WhiteBeadChoice.png","","null"
"image-button-response","508","536322","0.0-13.0-2.149","19","Low_HMMActual","","","","","","null","","","","Images/WhiteBeadChoiceWrong.png","","null"
"image-button-response","509","537252","0.0-13.0-0.150","19","Low_HMMActual","","","","","","927","","","","Images/NewTrialBC.png","","0"
"image-button-response","510","537554","0.0-13.0-1.150","19","Low_HMMActual","","","","","","null","","","","Images/BlackBeadChoice.png","","null"
"image-button-response","511","538065","0.0-13.0-2.150","19","Low_HMMActual","","","","","","null","","","","Images/BlackBeadChoiceWrong.png","","null"
"image-button-response","512","539147","0.0-13.0-0.151","19","Low_HMMActual","","","","","","1060.5","","","","Images/NewTrialWC.png","","2"
"image-button-response","513","539457","0.0-13.0-1.151","19","Low_HMMActual","","","","","","null","","","","Images/WhiteBeadChoice.png","","null"
"image-button-response","514","539966","0.0-13.0-2.151","19","Low_HMMActual","","","","","","null","","","","Images/WhiteBeadChoiceCorrect.png","","null"
"image-button-response","515","540107","0.0-13.0-0.152","19","Low_HMMActual","","","","","","138.09999999403954","","","","Images/NewTrialWC.png","","2"
"image-button-response","516","540419","0.0-13.0-1.152","19","Low_HMMActual","","","","","","null","","","","Images/WhiteBeadChoice.png","","null"
"image-button-response","517","540931","0.0-13.0-2.152","19","Low_HMMActual","","","","","","null","","","","Images/WhiteBeadChoiceCorrect.png","","null"
"image-button-response","518","541805","0.0-13.0-0.153","19","Low_HMMActual","","","","","","866.8000000119209","","","","Images/NewTrialWC.png","","2"
"image-button-response","519","542121","0.0-13.0-1.153","19","Low_HMMActual","","","","","","null","","","","Images/WhiteBeadChoice.png","","null"
"image-button-response","520","542627","0.0-13.0-2.153","19","Low_HMMActual","","","","","","null","","","","Images/WhiteBeadChoiceCorrect.png","","null"
"image-button-response","521","542771","0.0-13.0-0.154","19","Low_HMMActual","","","","","","141.09999999403954","","","","Images/NewTrialWC.png","","2"
"image-button-response","522","543110","0.0-13.0-1.154","19","Low_HMMActual","","","","","","null","","","","Images/WhiteBeadChoice.png","","null"
"image-button-response","523","543622","0.0-13.0-2.154","19","Low_HMMActual","","","","","","411.30000001192093","","","","Images/WhiteBeadChoiceCorrect.png","","2"
"image-button-response","524","544560","0.0-13.0-0.155","19","Low_HMMActual","","","","","","934.0999999940395","","","","Images/NewTrialWC.png","","2"
"image-button-response","525","544866","0.0-13.0-1.155","19","Low_HMMActual","","","","","","null","","","","Images/WhiteBeadChoice.png","","null"
"image-button-response","526","545376","0.0-13.0-2.155","19","Low_HMMActual","","","","","","null","","","","Images/WhiteBeadChoiceWrong.png","","null"
"image-button-response","527","546656","0.0-13.0-0.156","19","Low_HMMActual","","","","","","1276.1000000238419","","","","Images/NewTrialBC.png","","0"
"image-button-response","528","546966","0.0-13.0-1.156","19","Low_HMMActual","","","","","","null","","","","Images/BlackBeadChoice.png","","null"
"image-button-response","529","547485","0.0-13.0-2.156","19","Low_HMMActual","","","","","","null","","","","Images/BlackBeadChoiceCorrect.png","","null"
"image-button-response","530","547685","0.0-13.0-0.157","19","Low_HMMActual","","","","","","196.30000001192093","","","","Images/NewTrialBC.png","","0"
"image-button-response","531","547993","0.0-13.0-1.157","19","Low_HMMActual","","","","","","null","","","","Images/BlackBeadChoice.png","","null"
"image-button-response","532","548509","0.0-13.0-2.157","19","Low_HMMActual","","","","","","null","","","","Images/BlackBeadChoiceCorrect.png","","null"
"image-button-response","533","549466","0.0-13.0-0.158","19","Low_HMMActual","","","","","","952.8000000119209","","","","Images/NewTrialBC.png","","0"
"image-button-response","534","549783","0.0-13.0-1.158","19","Low_HMMActual","","","","","","null","","","","Images/BlackBeadChoice.png","","null"
"image-button-response","535","550298","0.0-13.0-2.158","19","Low_HMMActual","","","","","","null","","","","Images/BlackBeadChoiceCorrect.png","","null"
"image-button-response","536","551032","0.0-13.0-0.159","19","Low_HMMActual","","","","","","729.3000000119209","","","","Images/NewTrialBC.png","","0"
"image-button-response","537","551348","0.0-13.0-1.159","19","Low_HMMActual","","","","","","null","","","","Images/BlackBeadChoice.png","","null"
"image-button-response","538","551870","0.0-13.0-2.159","19","Low_HMMActual","","","","","","null","","","","Images/BlackBeadChoiceCorrect.png","","null"
"image-button-response","539","552544","0.0-13.0-0.160","19","Low_HMMActual","","","","","","667","","","","Images/NewTrialBC.png","","0"
"image-button-response","540","552853","0.0-13.0-1.160","19","Low_HMMActual","","","","","","null","","","","Images/BlackBeadChoice.png","","null"
"image-button-response","541","553360","0.0-13.0-2.160","19","Low_HMMActual","","","","","","null","","","","Images/BlackBeadChoiceCorrect.png","","null"
"image-button-response","542","553719","0.0-13.0-0.161","19","Low_HMMActual","","","","","","355.19999998807907","","","","Images/NewTrialBC.png","","0"
"image-button-response","543","554026","0.0-13.0-1.161","19","Low_HMMActual","","","","","","274.80000001192093","","","","Images/BlackBeadChoice.png","","0"
"image-button-response","544","554543","0.0-13.0-2.161","19","Low_HMMActual","","","","","","null","","","","Images/BlackBeadChoiceWrong.png","","null"
"image-button-response","545","555539","0.0-13.0-0.162","19","Low_HMMActual","","","","","","991.6999999880791","","","","Images/NewTrialWC.png","","2"
"image-button-response","546","555841","0.0-13.0-1.162","19","Low_HMMActual","","","","","","null","","","","Images/WhiteBeadChoice.png","","null"
"image-button-response","547","556353","0.0-13.0-2.162","19","Low_HMMActual","","","","","","386.59999999403954","","","","Images/WhiteBeadChoiceCorrect.png","","2"
"image-button-response","548","556545","0.0-13.0-0.163","19","Low_HMMActual","","","","","","188.09999999403954","","","","Images/NewTrialWC.png","","2"
"image-button-response","549","556875","0.0-13.0-1.163","19","Low_HMMActual","","","","","","179.5","","","","Images/WhiteBeadChoice.png","","2"
"image-button-response","550","557393","0.0-13.0-2.163","19","Low_HMMActual","","","","","","326.7999999821186","","","","Images/WhiteBeadChoiceCorrect.png","","2"
"image-button-response","551","557627","0.0-13.0-0.164","19","Low_HMMActual","","","","","","230.5","","","","Images/NewTrialWC.png","","2"
"image-button-response","552","557931","0.0-13.0-1.164","19","Low_HMMActual","","","","","","null","","","","Images/WhiteBeadChoice.png","","null"
"image-button-response","553","558459","0.0-13.0-2.164","19","Low_HMMActual","","","","","","null","","","","Images/WhiteBeadChoiceCorrect.png","","null"
"image-button-response","554","558841","0.0-13.0-0.165","19","Low_HMMActual","","","","","","378","","","","Images/NewTrialWC.png","","2"
"image-button-response","555","559159","0.0-13.0-1.165","19","Low_HMMActual","","","","","","null","","","","Images/WhiteBeadChoice.png","","null"
"image-button-response","556","559665","0.0-13.0-2.165","19","Low_HMMActual","","","","","","null","","","","Images/WhiteBeadChoiceCorrect.png","","null"
"image-button-response","557","560337","0.0-13.0-0.166","19","Low_HMMActual","","","","","","667.3000000119209","","","","Images/NewTrialWC.png","","2"
"image-button-response","558","560643","0.0-13.0-1.166","19","Low_HMMActual","","","","","","null","","","","Images/WhiteBeadChoice.png","","null"
"image-button-response","559","561146","0.0-13.0-2.166","19","Low_HMMActual","","","","","","null","","","","Images/WhiteBeadChoiceCorrect.png","","null"
"image-button-response","560","561796","0.0-13.0-0.167","19","Low_HMMActual","","","","","","645.0999999940395","","","","Images/NewTrialWC.png","","2"
"image-button-response","561","562100","0.0-13.0-1.167","19","Low_HMMActual","","","","","","null","","","","Images/WhiteBeadChoice.png","","null"
"image-button-response","562","562618","0.0-13.0-2.167","19","Low_HMMActual","","","","","","null","","","","Images/WhiteBeadChoiceCorrect.png","","null"
"image-button-response","563","563040","0.0-13.0-0.168","19","Low_HMMActual","","","","","","403.69999998807907","","","","Images/NewTrialWC.png","","2"
"image-button-response","564","563354","0.0-13.0-1.168","19","Low_HMMActual","","","","","","null","","","","Images/WhiteBeadChoice.png","","null"
"image-button-response","565","563870","0.0-13.0-2.168","19","Low_HMMActual","","","","","","null","","","","Images/WhiteBeadChoiceWrong.png","","null"
"image-button-response","566","565512","0.0-13.0-0.169","19","Low_HMMActual","","","","","","1639.3999999761581","","","","Images/NewTrialBC.png","","0"
"image-button-response","567","565822","0.0-13.0-1.169","19","Low_HMMActual","","","","","","182.80000001192093","","","","Images/BlackBeadChoice.png","","0"
"image-button-response","568","566335","0.0-13.0-2.169","19","Low_HMMActual","","","","","","null","","","","Images/BlackBeadChoiceWrong.png","","null"
"image-button-response","569","567009","0.0-13.0-0.170","19","Low_HMMActual","","","","","","670.4000000059605","","","","Images/NewTrialWC.png","","0"
"image-button-response","570","567312","0.0-13.0-1.170","19","Low_HMMActual","","","","","","null","","","","Images/BlackBeadChoice.png","","null"
"image-button-response","571","567816","0.0-13.0-2.170","19","Low_HMMActual","","","","","","null","","","","Images/BlackBeadChoiceWrong.png","","null"
"image-button-response","572","568707","0.0-13.0-0.171","19","Low_HMMActual","","","","","","886.9000000059605","","","","Images/NewTrialWC.png","","2"
"image-button-response","573","569022","0.0-13.0-1.171","19","Low_HMMActual","","","","","","null","","","","Images/WhiteBeadChoice.png","","null"
"image-button-response","574","569529","0.0-13.0-2.171","19","Low_HMMActual","","","","","","341.89999997615814","","","","Images/WhiteBeadChoiceCorrect.png","","2"
"image-button-response","575","569858","0.0-13.0-0.172","19","Low_HMMActual","","","","","","325","","","","Images/NewTrialWC.png","","2"
"image-button-response","576","570177","0.0-13.0-1.172","19","Low_HMMActual","","","","","","null","","","","Images/WhiteBeadChoice.png","","null"
"image-button-response","577","570697","0.0-13.0-2.172","19","Low_HMMActual","","","","","","176.60000002384186","","","","Images/WhiteBeadChoiceCorrect.png","","2"
"image-button-response","578","571301","0.0-13.0-0.173","19","Low_HMMActual","","","","","","600.2000000178814","","","","Images/NewTrialWC.png","","2"
"image-button-response","579","571606","0.0-13.0-1.173","19","Low_HMMActual","","","","","","182.5","","","","Images/WhiteBeadChoice.png","","2"
"image-button-response","580","572126","0.0-13.0-2.173","19","Low_HMMActual","","","","","","213","","","","Images/WhiteBeadChoiceCorrect.png","","2"
"image-button-response","581","572306","0.0-13.0-0.174","19","Low_HMMActual","","","","","","177","","","","Images/NewTrialWC.png","","2"
"image-button-response","582","572633","0.0-13.0-1.174","19","Low_HMMActual","","","","","","null","","","","Images/WhiteBeadChoice.png","","null"
"image-button-response","583","573146","0.0-13.0-2.174","19","Low_HMMActual","","","","","","430.2000000178814","","","","Images/WhiteBeadChoiceCorrect.png","","2"
"image-button-response","584","573374","0.0-13.0-0.175","19","Low_HMMActual","","","","","","223.30000001192093","","","","Images/NewTrialWC.png","","2"
"image-button-response","585","573687","0.0-13.0-1.175","19","Low_HMMActual","","","","","","281.59999999403954","","","","Images/WhiteBeadChoice.png","","2"
"image-button-response","586","574192","0.0-13.0-2.175","19","Low_HMMActual","","","","","","322.09999999403954","","","","Images/WhiteBeadChoiceWrong.png","","2"
"image-button-response","587","575255","0.0-13.0-0.176","19","Low_HMMActual","","","","","","1056.7000000178814","","","","Images/NewTrialBC.png","","0"
"image-button-response","588","575563","0.0-13.0-1.176","19","Low_HMMActual","","","","","","304.89999997615814","","","","Images/BlackBeadChoice.png","","0"
"image-button-response","589","576080","0.0-13.0-2.176","19","Low_HMMActual","","","","","","182.09999999403954","","","","Images/BlackBeadChoiceCorrect.png","","0"
"image-button-response","590","576238","0.0-13.0-0.177","19","Low_HMMActual","","","","","","156","","","","Images/NewTrialBC.png","","0"
"image-button-response","591","576562","0.0-13.0-1.177","19","Low_HMMActual","","","","","","248.89999997615814","","","","Images/BlackBeadChoice.png","","0"
"image-button-response","592","577078","0.0-13.0-2.177","19","Low_HMMActual","","","","","","217.30000001192093","","","","Images/BlackBeadChoiceCorrect.png","","0"
"image-button-response","593","577297","0.0-13.0-0.178","19","Low_HMMActual","","","","","","215.30000001192093","","","","Images/NewTrialBC.png","","0"
"image-button-response","594","577610","0.0-13.0-1.178","19","Low_HMMActual","","","","","","null","","","","Images/BlackBeadChoice.png","","null"
"image-button-response","595","578128","0.0-13.0-2.178","19","Low_HMMActual","","","","","","199.09999999403954","","","","Images/BlackBeadChoiceWrong.png","","0"
"image-button-response","596","579124","0.0-13.0-0.179","19","Low_HMMActual","","","","","","992.5999999940395","","","","Images/NewTrialWC.png","","2"
"image-button-response","597","579447","0.0-13.0-1.179","19","Low_HMMActual","","","","","","242.80000001192093","","","","Images/WhiteBeadChoice.png","","2"
"image-button-response","598","579960","0.0-13.0-2.179","19","Low_HMMActual","","","","","","166.2000000178814","","","","Images/WhiteBeadChoiceWrong.png","","2"
"image-button-response","599","580338","0.0-13.0-0.180","19","Low_HMMActual","","","","","","374.19999998807907","","","","Images/NewTrialBC.png","","2"
"image-button-response","600","580646","0.0-13.0-1.180","19","Low_HMMActual","","","","","","251.19999998807907","","","","Images/WhiteBeadChoice.png","","2"
"image-button-response","601","581176","0.0-13.0-2.180","19","Low_HMMActual","","","","","","187.69999998807907","","","","Images/WhiteBeadChoiceWrong.png","","2"
"image-button-response","602","582533","0.0-13.0-0.181","19","Low_HMMActual","","","","","","1353","","","","Images/NewTrialBC.png","","0"
"image-button-response","603","582850","0.0-13.0-1.181","19","Low_HMMActual","","","","","","227.59999999403954","","","","Images/BlackBeadChoice.png","","0"
"image-button-response","604","583367","0.0-13.0-2.181","19","Low_HMMActual","","","","","","170.2000000178814","","","","Images/BlackBeadChoiceCorrect.png","","0"
"image-button-response","605","583607","0.0-13.0-0.182","19","Low_HMMActual","","","","","","235.60000002384186","","","","Images/NewTrialBC.png","","0"
"image-button-response","606","583913","0.0-13.0-1.182","19","Low_HMMActual","","","","","","180.7000000178814","","","","Images/BlackBeadChoice.png","","0"
"image-button-response","607","584427","0.0-13.0-2.182","19","Low_HMMActual","","","","","","null","","","","Images/BlackBeadChoiceCorrect.png","","null"
"image-button-response","608","584843","0.0-13.0-0.183","19","Low_HMMActual","","","","","","412","","","","Images/NewTrialBC.png","","0"
"image-button-response","609","585156","0.0-13.0-1.183","19","Low_HMMActual","","","","","","160.69999998807907","","","","Images/BlackBeadChoice.png","","0"
"image-button-response","610","585681","0.0-13.0-2.183","19","Low_HMMActual","","","","","","185.80000001192093","","","","Images/BlackBeadChoiceCorrect.png","","0"
"image-button-response","611","586157","0.0-13.0-0.184","19","Low_HMMActual","","","","","","471.69999998807907","","","","Images/NewTrialBC.png","","0"
"image-button-response","612","586465","0.0-13.0-1.184","19","Low_HMMActual","","","","","","167.40000000596046","","","","Images/BlackBeadChoice.png","","0"
"image-button-response","613","586975","0.0-13.0-2.184","19","Low_HMMActual","","","","","","432.90000000596046","","","","Images/BlackBeadChoiceCorrect.png","","0"
"image-button-response","614","587332","0.0-13.0-0.185","19","Low_HMMActual","","","","","","352.40000000596046","","","","Images/NewTrialBC.png","","0"
"image-button-response","615","587657","0.0-13.0-1.185","19","Low_HMMActual","","","","","","226.59999999403954","","","","Images/BlackBeadChoice.png","","0"
"image-button-response","616","588161","0.0-13.0-2.185","19","Low_HMMActual","","","","","","200","","","","Images/BlackBeadChoiceCorrect.png","","0"
"image-button-response","617","588552","0.0-13.0-0.186","19","Low_HMMActual","","","","","","387.40000000596046","","","","Images/NewTrialBC.png","","0"
"image-button-response","618","588857","0.0-13.0-1.186","19","Low_HMMActual","","","","","","267.5","","","","Images/BlackBeadChoice.png","","0"
"image-button-response","619","589391","0.0-13.0-2.186","19","Low_HMMActual","","","","","","219.5","","","","Images/BlackBeadChoiceCorrect.png","","0"
"image-button-response","620","589704","0.0-13.0-0.187","19","Low_HMMActual","","","","","","310.39999997615814","","","","Images/NewTrialBC.png","","0"
"image-button-response","621","590014","0.0-13.0-1.187","19","Low_HMMActual","","","","","","182.80000001192093","","","","Images/BlackBeadChoice.png","","0"
"image-button-response","622","590518","0.0-13.0-2.187","19","Low_HMMActual","","","","","","408","","","","Images/BlackBeadChoiceWrong.png","","0"
"image-button-response","623","591139","0.0-13.0-0.188","19","Low_HMMActual","","","","","","617.3000000119209","","","","Images/NewTrialWC.png","","0"
"image-button-response","624","591447","0.0-13.0-1.188","19","Low_HMMActual","","","","","","null","","","","Images/BlackBeadChoice.png","","null"
"image-button-response","625","591957","0.0-13.0-2.188","19","Low_HMMActual","","","","","","null","","","","Images/BlackBeadChoiceWrong.png","","null"
"image-button-response","626","592936","0.0-13.0-0.189","19","Low_HMMActual","","","","","","975.5","","","","Images/NewTrialWC.png","","2"
"image-button-response","627","593242","0.0-13.0-1.189","19","Low_HMMActual","","","","","","null","","","","Images/WhiteBeadChoice.png","","null"
"image-button-response","628","593759","0.0-13.0-2.189","19","Low_HMMActual","","","","","","328.30000001192093","","","","Images/WhiteBeadChoiceCorrect.png","","2"
"image-button-response","629","593896","0.0-13.0-0.190","19","Low_HMMActual","","","","","","132","","","","Images/NewTrialWC.png","","2"
"image-button-response","630","594211","0.0-13.0-1.190","19","Low_HMMActual","","","","","","null","","","","Images/WhiteBeadChoice.png","","null"
"image-button-response","631","594718","0.0-13.0-2.190","19","Low_HMMActual","","","","","","311.40000000596046","","","","Images/WhiteBeadChoiceCorrect.png","","2"
"image-button-response","632","595171","0.0-13.0-0.191","19","Low_HMMActual","","","","","","449.5","","","","Images/NewTrialWC.png","","2"
"image-button-response","633","595474","0.0-13.0-1.191","19","Low_HMMActual","","","","","","281.59999999403954","","","","Images/WhiteBeadChoice.png","","2"
"image-button-response","634","595979","0.0-13.0-2.191","19","Low_HMMActual","","","","","","268.30000001192093","","","","Images/WhiteBeadChoiceCorrect.png","","2"
"image-button-response","635","596605","0.0-13.0-0.192","19","Low_HMMActual","","","","","","623","","","","Images/NewTrialWC.png","","2"
"image-button-response","636","596922","0.0-13.0-1.192","19","Low_HMMActual","","","","","","313","","","","Images/WhiteBeadChoice.png","","2"
"image-button-response","637","597428","0.0-13.0-2.192","19","Low_HMMActual","","","","","","null","","","","Images/WhiteBeadChoiceCorrect.png","","null"
"image-button-response","638","597688","0.0-13.0-0.193","19","Low_HMMActual","","","","","","256","","","","Images/NewTrialWC.png","","2"
"image-button-response","639","597996","0.0-13.0-1.193","19","Low_HMMActual","","","","","","null","","","","Images/WhiteBeadChoice.png","","null"
"image-button-response","640","598522","0.0-13.0-2.193","19","Low_HMMActual","","","","","","null","","","","Images/WhiteBeadChoiceCorrect.png","","null"
"image-button-response","641","598678","0.0-13.0-0.194","19","Low_HMMActual","","","","","","151.7999999821186","","","","Images/NewTrialWC.png","","2"
"image-button-response","642","598984","0.0-13.0-1.194","19","Low_HMMActual","","","","","","null","","","","Images/WhiteBeadChoice.png","","null"
"image-button-response","643","599491","0.0-13.0-2.194","19","Low_HMMActual","","","","","","437.40000000596046","","","","Images/WhiteBeadChoiceCorrect.png","","2"
"image-button-response","644","600199","0.0-13.0-0.195","19","Low_HMMActual","","","","","","704.5999999940395","","","","Images/NewTrialWC.png","","2"
"image-button-response","645","600517","0.0-13.0-1.195","19","Low_HMMActual","","","","","","null","","","","Images/WhiteBeadChoice.png","","null"
"image-button-response","646","601041","0.0-13.0-2.195","19","Low_HMMActual","","","","","","null","","","","Images/WhiteBeadChoiceCorrect.png","","null"
"image-button-response","647","633359","0.0-13.0-0.196","19","Low_HMMActual","","","","","","32313.19999998808","","","","Images/NewTrialWC.png","","2"
"image-button-response","648","633663","0.0-13.0-1.196","19","Low_HMMActual","","","","","","null","","","","Images/WhiteBeadChoice.png","","null"
"image-button-response","649","634170","0.0-13.0-2.196","19","Low_HMMActual","","","","","","475.10000002384186","","","","Images/WhiteBeadChoiceCorrect.png","","2"
"image-button-response","650","634917","0.0-13.0-0.197","19","Low_HMMActual","","","","","","744.4000000059605","","","","Images/NewTrialWC.png","","2"
"image-button-response","651","635228","0.0-13.0-1.197","19","Low_HMMActual","","","","","","null","","","","Images/WhiteBeadChoice.png","","null"
"image-button-response","652","635732","0.0-13.0-2.197","19","Low_HMMActual","","","","","","492.09999999403954","","","","Images/WhiteBeadChoiceCorrect.png","","2"
"image-button-response","653","636253","0.0-13.0-0.198","19","Low_HMMActual","","","","","","519.3000000119209","","","","Images/NewTrialWC.png","","2"
"image-button-response","654","636561","0.0-13.0-1.198","19","Low_HMMActual","","","","","","null","","","","Images/WhiteBeadChoice.png","","null"
"image-button-response","655","637092","0.0-13.0-2.198","19","Low_HMMActual","","","","","","null","","","","Images/WhiteBeadChoiceWrong.png","","null"
"image-button-response","656","638075","0.0-13.0-0.199","19","Low_HMMActual","","","","","","979.3999999761581","","","","Images/NewTrialBC.png","","2"
"image-button-response","657","638394","0.0-13.0-1.199","19","Low_HMMActual","","","","","","null","","","","Images/WhiteBeadChoice.png","","null"
"image-button-response","658","638897","0.0-13.0-2.199","19","Low_HMMActual","","","","","","null","","","","Images/WhiteBeadChoiceCorrect.png","","null"
"image-button-response","659","640332","0.0-13.0-0.200","19","Low_HMMActual","","","","","","1430.2000000178814","","","","Images/NewTrialWC.png","","2"
"image-button-response","660","640644","0.0-13.0-1.200","19","Low_HMMActual","","","","","","null","","","","Images/WhiteBeadChoice.png","","null"
"image-button-response","661","641159","0.0-13.0-2.200","19","Low_HMMActual","","","","","","null","","","","Images/WhiteBeadChoiceCorrect.png","","null"
"image-button-response","662","641890","0.0-13.0-0.201","19","Low_HMMActual","","","","","","727.5","","","","Images/NewTrialWC.png","","2"
"image-button-response","663","642193","0.0-13.0-1.201","19","Low_HMMActual","","","","","","null","","","","Images/WhiteBeadChoice.png","","null"
"image-button-response","664","642725","0.0-13.0-2.201","19","Low_HMMActual","","","","","","425.7999999821186","","","","Images/WhiteBeadChoiceWrong.png","","2"
