"trial_type","trial_index","time_elapsed","internal_node_id","Script_Picker","Block_Type","success","timeout","failed_images","failed_audio","failed_video","rt","url","responses","question_order","stimulus","key_press","response"
"pavlovia","0","139","0.0-0.0","17","Low_HMMActual","","","","","","","","","","","",""
"preload","1","154","0.0-1.0","17","Low_HMMActual","true","false","[]","[]","[]","","","","","","",""
"external-html","2","6938","0.0-2.0-0.0","17","Low_HMMActual","","","","","","6283.279999624938","consent.html","","","","",""
"survey-multi-choice","3","16279","0.0-2.0-1.0","17","Low_HMMActual","","","","","","9327.49000005424","","{""Q0"":""Female"",""Q1"":""White""}","[0,1]","","",""
"survey-text","4","27397","0.0-2.0-2.0","17","Low_HMMActual","","","","","","11105.890000239015","","{""Q0"":""23""}","","","",""
"survey-text","5","36242","0.0-2.0-3.0","17","Low_HMMActual","","","","","","8737.12999979034","","{""Q0"":""5e8b4c59a70b7700081f5bff""}","","","",""
"image-keyboard-response","6","68801","0.0-3.0-0.0","17","Low_HMMActual","","","","","","32451.91999990493","","","","tutorial/tutorial1.png"," ",""
"image-keyboard-response","7","78551","0.0-3.0-0.1","17","Low_HMMActual","","","","","","9746.005000080913","","","","tutorial/tutorial2.png"," ",""
"image-keyboard-response","8","87969","0.0-3.0-0.2","17","Low_HMMActual","","","","","","9416.7500003241","","","","tutorial/tutorial3.png"," ",""
"image-keyboard-response","9","90612","0.0-3.0-0.3","17","Low_HMMActual","","","","","","2640.6050003133714","","","","tutorial/tutorial4.png"," ",""
"image-keyboard-response","10","96620","0.0-3.0-0.4","17","Low_HMMActual","","","","","","6005.169999785721","","","","tutorial/tutorial5.png"," ",""
"image-keyboard-response","11","105768","0.0-3.0-0.5","17","Low_HMMActual","","","","","","9145.870000123978","","","","tutorial/tutorial6.png"," ",""
"image-keyboard-response","12","111514","0.0-3.0-0.6","17","Low_HMMActual","","","","","","5743.13999991864","","","","tutorial/tutorial7.png"," ",""
"image-keyboard-response","13","135413","0.0-3.0-0.7","17","Low_HMMActual","","","","","","23897.069999948144","","","","tutorial/tutorial8.png"," ",""
"image-keyboard-response","14","144980","0.0-3.0-0.8","17","Low_HMMActual","","","","","","9564.884999766946","","","","tutorial/tutorial9.png"," ",""
"image-keyboard-response","15","162352","0.0-3.0-0.9","17","Low_HMMActual","","","","","","17370.140000246465","","","","tutorial/tutorial10.png"," ",""
"image-keyboard-response","16","171432","0.0-3.0-0.10","17","Low_HMMActual","","","","","","9077.090000268072","","","","tutorial/tutorial11.png"," ",""
"image-keyboard-response","17","176004","0.0-3.0-0.11","17","Low_HMMActual","","","","","","4568.930000066757","","","","tutorial/tutorial12.png"," ",""
"image-keyboard-response","18","183915","0.0-3.0-0.12","17","Low_HMMActual","","","","","","7908.464999869466","","","","tutorial/tutorial13.png"," ",""
"image-keyboard-response","19","195190","0.0-3.0-0.13","17","Low_HMMActual","","","","","","11271.960000041872","","","","tutorial/tutorial14.png"," ",""
"image-keyboard-response","20","198198","0.0-3.0-0.14","17","Low_HMMActual","","","","","","3005.505000241101","","","","tutorial/tutorial15.png"," ",""
"image-keyboard-response","21","222088","0.0-4.0","17","Low_HMMActual","","","","","","23887.994999997318","","","","tutorial/tutorial16.png","arrowup",""
"image-keyboard-response","22","232605","0.0-5.0","17","Low_HMMActual","","","","","","6519.404999911785","","","","tutorial/tutorial17.png","arrowright",""
"image-keyboard-response","23","243813","0.0-6.0","17","Low_HMMActual","","","","","","9001.464999746531","","","","tutorial/tutorial18.png","arrowleft",""
"image-keyboard-response","24","252427","0.0-7.0","17","Low_HMMActual","","","","","","7194.215000141412","","","","tutorial/tutorial19.png"," ",""
"html-keyboard-response","25","253207","0.0-8.0","18","Low_HMMActual","","","","","","771.5050000697374","","","","<div class=""container"" style=""height:800px;width:800px;display:flex;flex-direction:column;justify-content:center;align-items:center;text-align:center;font-weight:normal;font-family:Arial;font-size:20px""><p>Loading episode&hellip;</p><div>"," ",""
"image-button-response","26","262584","0.0-9.0-0.0","18","Low_HMMActual","","","","","","9366.15000013262","","","","Images/NoChoice.png","","0"
"image-button-response","27","262892","0.0-9.0-1.0","18","Low_HMMActual","","","","","","null","","","","Images/BlackBeadChoice.png","","null"
"image-button-response","28","263397","0.0-9.0-2.0","18","Low_HMMActual","","","","","","null","","","","Images/BlackBeadChoiceWrong.png","","null"
"image-button-response","29","270417","0.0-9.0-0.1","18","Low_HMMActual","","","","","","7013.770000077784","","","","Images/NewTrialWC.png","","2"
"image-button-response","30","270724","0.0-9.0-1.1","18","Low_HMMActual","","","","","","null","","","","Images/WhiteBeadChoice.png","","null"
"image-button-response","31","271229","0.0-9.0-2.1","18","Low_HMMActual","","","","","","null","","","","Images/WhiteBeadChoiceCorrect.png","","null"
"image-button-response","32","275176","0.0-9.0-0.2","18","Low_HMMActual","","","","","","3939.6449998021126","","","","Images/NewTrialWC.png","","0"
"image-button-response","33","275482","0.0-9.0-1.2","18","Low_HMMActual","","","","","","null","","","","Images/BlackBeadChoice.png","","null"
"image-button-response","34","276010","0.0-9.0-2.2","18","Low_HMMActual","","","","","","null","","","","Images/BlackBeadChoiceWrong.png","","null"
"image-button-response","35","279149","0.0-9.0-0.3","18","Low_HMMActual","","","","","","3130.539999809116","","","","Images/NewTrialWC.png","","2"
"image-button-response","36","279455","0.0-9.0-1.3","18","Low_HMMActual","","","","","","null","","","","Images/WhiteBeadChoice.png","","null"
"image-button-response","37","279960","0.0-9.0-2.3","18","Low_HMMActual","","","","","","null","","","","Images/WhiteBeadChoiceWrong.png","","null"
"image-button-response","38","284731","0.0-9.0-0.4","18","Low_HMMActual","","","","","","4766.079999972135","","","","Images/NewTrialBC.png","","0"
"image-button-response","39","285040","0.0-9.0-1.4","18","Low_HMMActual","","","","","","null","","","","Images/BlackBeadChoice.png","","null"
"image-button-response","40","285546","0.0-9.0-2.4","18","Low_HMMActual","","","","","","null","","","","Images/BlackBeadChoiceWrong.png","","null"
"image-button-response","41","289798","0.0-9.0-0.5","18","Low_HMMActual","","","","","","4245.19499996677","","","","Images/NewTrialWC.png","","2"
"image-button-response","42","290103","0.0-9.0-1.5","18","Low_HMMActual","","","","","","null","","","","Images/WhiteBeadChoice.png","","null"
"image-button-response","43","290609","0.0-9.0-2.5","18","Low_HMMActual","","","","","","null","","","","Images/WhiteBeadChoiceCorrect.png","","null"
"image-button-response","44","294534","0.0-9.0-0.6","18","Low_HMMActual","","","","","","3918.2950002141297","","","","Images/NewTrialWC.png","","0"
"image-button-response","45","294840","0.0-9.0-1.6","18","Low_HMMActual","","","","","","null","","","","Images/BlackBeadChoice.png","","null"
"image-button-response","46","295345","0.0-9.0-2.6","18","Low_HMMActual","","","","","","null","","","","Images/BlackBeadChoiceCorrect.png","","null"
"image-button-response","47","298809","0.0-9.0-0.7","18","Low_HMMActual","","","","","","3457.830000203103","","","","Images/NewTrialBC.png","","2"
"image-button-response","48","299116","0.0-9.0-1.7","18","Low_HMMActual","","","","","","null","","","","Images/WhiteBeadChoice.png","","null"
"image-button-response","49","299622","0.0-9.0-2.7","18","Low_HMMActual","","","","","","null","","","","Images/WhiteBeadChoiceCorrect.png","","null"
"image-button-response","50","301724","0.0-9.0-0.8","18","Low_HMMActual","","","","","","2096.4449997991323","","","","Images/NewTrialWC.png","","0"
"image-button-response","51","302030","0.0-9.0-1.8","18","Low_HMMActual","","","","","","null","","","","Images/BlackBeadChoice.png","","null"
"image-button-response","52","302536","0.0-9.0-2.8","18","Low_HMMActual","","","","","","null","","","","Images/BlackBeadChoiceWrong.png","","null"
"image-button-response","53","305659","0.0-9.0-0.9","18","Low_HMMActual","","","","","","3116.064999718219","","","","Images/NewTrialWC.png","","0"
"image-button-response","54","305966","0.0-9.0-1.9","18","Low_HMMActual","","","","","","null","","","","Images/BlackBeadChoice.png","","null"
"image-button-response","55","306470","0.0-9.0-2.9","18","Low_HMMActual","","","","","","null","","","","Images/BlackBeadChoiceCorrect.png","","null"
"html-keyboard-response","56","309866","0.0-10.0","18","Low_HMMActual","","","","","","3391.754999756813","","","",""," ",""
"image-keyboard-response","57","312991","0.0-11.0","18","Low_HMMActual","","","","","","3121.9600001350045","","","","tutorial/tutorial20.png"," ",""
"html-keyboard-response","58","326943","0.0-12.0","19","Low_HMMActual","","","","","","13944.914999883622","","","","<div class=""container"" style=""height:800px;width:800px;display:flex;flex-direction:column;justify-content:center;align-items:center;text-align:center;font-weight:normal;font-family:Arial;font-size:20px""><p>Loading episode&hellip;</p><div>"," ",""
"image-button-response","59","332025","0.0-13.0-0.0","19","Low_HMMActual","","","","","","5076.400000136346","","","","Images/NoChoice.png","","0"
"image-button-response","60","332332","0.0-13.0-1.0","19","Low_HMMActual","","","","","","null","","","","Images/BlackBeadChoice.png","","null"
"image-button-response","61","332836","0.0-13.0-2.0","19","Low_HMMActual","","","","","","null","","","","Images/BlackBeadChoiceWrong.png","","null"
"image-button-response","62","335231","0.0-13.0-0.1","19","Low_HMMActual","","","","","","2388.9150000177324","","","","Images/NewTrialWC.png","","0"
"image-button-response","63","335538","0.0-13.0-1.1","19","Low_HMMActual","","","","","","null","","","","Images/BlackBeadChoice.png","","null"
"image-button-response","64","336044","0.0-13.0-2.1","19","Low_HMMActual","","","","","","null","","","","Images/BlackBeadChoiceWrong.png","","null"
"image-button-response","65","338027","0.0-13.0-0.2","19","Low_HMMActual","","","","","","1974.029999691993","","","","Images/NewTrialWC.png","","2"
"image-button-response","66","338332","0.0-13.0-1.2","19","Low_HMMActual","","","","","","null","","","","Images/WhiteBeadChoice.png","","null"
"image-button-response","67","338837","0.0-13.0-2.2","19","Low_HMMActual","","","","","","null","","","","Images/WhiteBeadChoiceCorrect.png","","null"
"image-button-response","68","346451","0.0-13.0-0.3","19","Low_HMMActual","","","","","","7587.289999704808","","","","Images/NewTrialWC.png","","2"
"image-button-response","69","346756","0.0-13.0-1.3","19","Low_HMMActual","","","","","","null","","","","Images/WhiteBeadChoice.png","","null"
"image-button-response","70","347262","0.0-13.0-2.3","19","Low_HMMActual","","","","","","null","","","","Images/WhiteBeadChoiceCorrect.png","","null"
"image-button-response","71","348796","0.0-13.0-0.4","19","Low_HMMActual","","","","","","1525.2549997530878","","","","Images/NewTrialWC.png","","2"
"image-button-response","72","349103","0.0-13.0-1.4","19","Low_HMMActual","","","","","","null","","","","Images/WhiteBeadChoice.png","","null"
"image-button-response","73","349609","0.0-13.0-2.4","19","Low_HMMActual","","","","","","null","","","","Images/WhiteBeadChoiceCorrect.png","","null"
"image-button-response","74","353801","0.0-13.0-0.5","19","Low_HMMActual","","","","","","4183.505000080913","","","","Images/NewTrialWC.png","","2"
"image-button-response","75","354107","0.0-13.0-1.5","19","Low_HMMActual","","","","","","null","","","","Images/WhiteBeadChoice.png","","null"
"image-button-response","76","354612","0.0-13.0-2.5","19","Low_HMMActual","","","","","","null","","","","Images/WhiteBeadChoiceWrong.png","","null"
"image-button-response","77","357432","0.0-13.0-0.6","19","Low_HMMActual","","","","","","2814.2349999397993","","","","Images/NewTrialBC.png","","2"
"image-button-response","78","357738","0.0-13.0-1.6","19","Low_HMMActual","","","","","","null","","","","Images/WhiteBeadChoice.png","","null"
"image-button-response","79","358245","0.0-13.0-2.6","19","Low_HMMActual","","","","","","null","","","","Images/WhiteBeadChoiceWrong.png","","null"
"image-button-response","80","360300","0.0-13.0-0.7","19","Low_HMMActual","","","","","","2047.0400000922382","","","","Images/NewTrialBC.png","","0"
"image-button-response","81","360605","0.0-13.0-1.7","19","Low_HMMActual","","","","","","null","","","","Images/BlackBeadChoice.png","","null"
"image-button-response","82","361110","0.0-13.0-2.7","19","Low_HMMActual","","","","","","null","","","","Images/BlackBeadChoiceCorrect.png","","null"
"image-button-response","83","362510","0.0-13.0-0.8","19","Low_HMMActual","","","","","","1391.9150000438094","","","","Images/NewTrialBC.png","","0"
"image-button-response","84","362816","0.0-13.0-1.8","19","Low_HMMActual","","","","","","null","","","","Images/BlackBeadChoice.png","","null"
"image-button-response","85","363321","0.0-13.0-2.8","19","Low_HMMActual","","","","","","null","","","","Images/BlackBeadChoiceCorrect.png","","null"
"image-button-response","86","363969","0.0-13.0-0.9","19","Low_HMMActual","","","","","","640.7750002108514","","","","Images/NewTrialBC.png","","0"
"image-button-response","87","364276","0.0-13.0-1.9","19","Low_HMMActual","","","","","","null","","","","Images/BlackBeadChoice.png","","null"
"image-button-response","88","364785","0.0-13.0-2.9","19","Low_HMMActual","","","","","","null","","","","Images/BlackBeadChoiceCorrect.png","","null"
"image-button-response","89","366521","0.0-13.0-0.10","19","Low_HMMActual","","","","","","1728.5850001499057","","","","Images/NewTrialBC.png","","0"
"image-button-response","90","366827","0.0-13.0-1.10","19","Low_HMMActual","","","","","","null","","","","Images/BlackBeadChoice.png","","null"
"image-button-response","91","367332","0.0-13.0-2.10","19","Low_HMMActual","","","","","","null","","","","Images/BlackBeadChoiceWrong.png","","null"
"image-button-response","92","371394","0.0-13.0-0.11","19","Low_HMMActual","","","","","","4054.204999934882","","","","Images/NewTrialWC.png","","2"
"image-button-response","93","371700","0.0-13.0-1.11","19","Low_HMMActual","","","","","","null","","","","Images/WhiteBeadChoice.png","","null"
"image-button-response","94","372205","0.0-13.0-2.11","19","Low_HMMActual","","","","","","null","","","","Images/WhiteBeadChoiceWrong.png","","null"
"image-button-response","95","374871","0.0-13.0-0.12","19","Low_HMMActual","","","","","","2657.7949998900294","","","","Images/NewTrialBC.png","","0"
"image-button-response","96","375183","0.0-13.0-1.12","19","Low_HMMActual","","","","","","null","","","","Images/BlackBeadChoice.png","","null"
"image-button-response","97","375689","0.0-13.0-2.12","19","Low_HMMActual","","","","","","null","","","","Images/BlackBeadChoiceWrong.png","","null"
"image-button-response","98","377591","0.0-13.0-0.13","19","Low_HMMActual","","","","","","1893.4999997727573","","","","Images/NewTrialWC.png","","2"
"image-button-response","99","377901","0.0-13.0-1.13","19","Low_HMMActual","","","","","","null","","","","Images/WhiteBeadChoice.png","","null"
"image-button-response","100","378405","0.0-13.0-2.13","19","Low_HMMActual","","","","","","null","","","","Images/WhiteBeadChoiceCorrect.png","","null"
"image-button-response","101","380630","0.0-13.0-0.14","19","Low_HMMActual","","","","","","2216.9300001114607","","","","Images/NewTrialWC.png","","2"
"image-button-response","102","380941","0.0-13.0-1.14","19","Low_HMMActual","","","","","","null","","","","Images/WhiteBeadChoice.png","","null"
"image-button-response","103","381446","0.0-13.0-2.14","19","Low_HMMActual","","","","","","null","","","","Images/WhiteBeadChoiceCorrect.png","","null"
"image-button-response","104","383207","0.0-13.0-0.15","19","Low_HMMActual","","","","","","1753.6599999293685","","","","Images/NewTrialWC.png","","2"
"image-button-response","105","383517","0.0-13.0-1.15","19","Low_HMMActual","","","","","","null","","","","Images/WhiteBeadChoice.png","","null"
"image-button-response","106","384025","0.0-13.0-2.15","19","Low_HMMActual","","","","","","null","","","","Images/WhiteBeadChoiceCorrect.png","","null"
"image-button-response","107","385769","0.0-13.0-0.16","19","Low_HMMActual","","","","","","1736.999999731779","","","","Images/NewTrialWC.png","","2"
"image-button-response","108","386080","0.0-13.0-1.16","19","Low_HMMActual","","","","","","null","","","","Images/WhiteBeadChoice.png","","null"
"image-button-response","109","386585","0.0-13.0-2.16","19","Low_HMMActual","","","","","","null","","","","Images/WhiteBeadChoiceWrong.png","","null"
"image-button-response","110","387445","0.0-13.0-0.17","19","Low_HMMActual","","","","","","854.0399996563792","","","","Images/NewTrialBC.png","","0"
"image-button-response","111","387756","0.0-13.0-1.17","19","Low_HMMActual","","","","","","null","","","","Images/BlackBeadChoice.png","","null"
"image-button-response","112","388262","0.0-13.0-2.17","19","Low_HMMActual","","","","","","null","","","","Images/BlackBeadChoiceCorrect.png","","null"
"image-button-response","113","388601","0.0-13.0-0.18","19","Low_HMMActual","","","","","","330.0449997186661","","","","Images/NewTrialBC.png","","0"
"image-button-response","114","388915","0.0-13.0-1.18","19","Low_HMMActual","","","","","","null","","","","Images/BlackBeadChoice.png","","null"
"image-button-response","115","389423","0.0-13.0-2.18","19","Low_HMMActual","","","","","","null","","","","Images/BlackBeadChoiceCorrect.png","","null"
"image-button-response","116","390422","0.0-13.0-0.19","19","Low_HMMActual","","","","","","990.7749998383224","","","","Images/NewTrialBC.png","","0"
"image-button-response","117","390735","0.0-13.0-1.19","19","Low_HMMActual","","","","","","null","","","","Images/BlackBeadChoice.png","","null"
"image-button-response","118","391241","0.0-13.0-2.19","19","Low_HMMActual","","","","","","null","","","","Images/BlackBeadChoiceCorrect.png","","null"
"image-button-response","119","391334","0.0-13.0-0.20","19","Low_HMMActual","","","","","","84.87999998033047","","","","Images/NewTrialBC.png","","0"
"image-button-response","120","391645","0.0-13.0-1.20","19","Low_HMMActual","","","","","","null","","","","Images/BlackBeadChoice.png","","null"
"image-button-response","121","392151","0.0-13.0-2.20","19","Low_HMMActual","","","","","","448.51999962702394","","","","Images/BlackBeadChoiceCorrect.png","","0"
"image-button-response","122","393006","0.0-13.0-0.21","19","Low_HMMActual","","","","","","844.7650000452995","","","","Images/NewTrialBC.png","","0"
"image-button-response","123","393319","0.0-13.0-1.21","19","Low_HMMActual","","","","","","null","","","","Images/BlackBeadChoice.png","","null"
"image-button-response","124","393825","0.0-13.0-2.21","19","Low_HMMActual","","","","","","null","","","","Images/BlackBeadChoiceWrong.png","","null"
"image-button-response","125","395656","0.0-13.0-0.22","19","Low_HMMActual","","","","","","1824.255000334233","","","","Images/NewTrialWC.png","","2"
"image-button-response","126","395969","0.0-13.0-1.22","19","Low_HMMActual","","","","","","null","","","","Images/WhiteBeadChoice.png","","null"
"image-button-response","127","396474","0.0-13.0-2.22","19","Low_HMMActual","","","","","","null","","","","Images/WhiteBeadChoiceWrong.png","","null"
"image-button-response","128","397137","0.0-13.0-0.23","19","Low_HMMActual","","","","","","655.1450002007186","","","","Images/NewTrialBC.png","","0"
"image-button-response","129","397449","0.0-13.0-1.23","19","Low_HMMActual","","","","","","null","","","","Images/BlackBeadChoice.png","","null"
"image-button-response","130","397956","0.0-13.0-2.23","19","Low_HMMActual","","","","","","null","","","","Images/BlackBeadChoiceWrong.png","","null"
"image-button-response","131","399895","0.0-13.0-0.24","19","Low_HMMActual","","","","","","1932.0749999023974","","","","Images/NewTrialWC.png","","3"
"image-button-response","132","400204","0.0-13.0-1.24","19","Low_HMMActual","","","","","","null","","","","Images/WhiteBeadChoice.png","","null"
"image-button-response","133","400709","0.0-13.0-2.24","19","Low_HMMActual","","","","","","null","","","","Images/WhiteBeadChoiceWrong.png","","null"
"image-button-response","134","402946","0.0-13.0-0.25","19","Low_HMMActual","","","","","","2229.874999728054","","","","Images/NewTrialBC.png","","1"
"image-button-response","135","403260","0.0-13.0-1.25","19","Low_HMMActual","","","","","","null","","","","Images/BlackBeadChoice.png","","null"
"image-button-response","136","403766","0.0-13.0-2.25","19","Low_HMMActual","","","","","","null","","","","Images/BlackBeadChoiceWrong.png","","null"
"image-button-response","137","405437","0.0-13.0-0.26","19","Low_HMMActual","","","","","","1662.5100001692772","","","","Images/NewTrialWC.png","","2"
"image-button-response","138","405747","0.0-13.0-1.26","19","Low_HMMActual","","","","","","null","","","","Images/WhiteBeadChoice.png","","null"
"image-button-response","139","406252","0.0-13.0-2.26","19","Low_HMMActual","","","","","","null","","","","Images/WhiteBeadChoiceWrong.png","","null"
"image-button-response","140","407670","0.0-13.0-0.27","19","Low_HMMActual","","","","","","1411.560000386089","","","","Images/NewTrialBC.png","","0"
"image-button-response","141","407983","0.0-13.0-1.27","19","Low_HMMActual","","","","","","null","","","","Images/BlackBeadChoice.png","","null"
"image-button-response","142","408489","0.0-13.0-2.27","19","Low_HMMActual","","","","","","null","","","","Images/BlackBeadChoiceCorrect.png","","null"
"image-button-response","143","409603","0.0-13.0-0.28","19","Low_HMMActual","","","","","","1104.4749999418855","","","","Images/NewTrialBC.png","","0"
"image-button-response","144","409916","0.0-13.0-1.28","19","Low_HMMActual","","","","","","null","","","","Images/BlackBeadChoice.png","","null"
"image-button-response","145","410420","0.0-13.0-2.28","19","Low_HMMActual","","","","","","null","","","","Images/BlackBeadChoiceWrong.png","","null"
"image-button-response","146","412408","0.0-13.0-0.29","19","Low_HMMActual","","","","","","1979.6349997632205","","","","Images/NewTrialWC.png","","2"
"image-button-response","147","412719","0.0-13.0-1.29","19","Low_HMMActual","","","","","","null","","","","Images/WhiteBeadChoice.png","","null"
"image-button-response","148","413227","0.0-13.0-2.29","19","Low_HMMActual","","","","","","null","","","","Images/WhiteBeadChoiceWrong.png","","null"
"image-button-response","149","419694","0.0-13.0-0.30","19","Low_HMMActual","","","","","","6457.220000214875","","","","Images/NewTrialBC.png","","2"
"image-button-response","150","420006","0.0-13.0-1.30","19","Low_HMMActual","","","","","","null","","","","Images/WhiteBeadChoice.png","","null"
"image-button-response","151","420512","0.0-13.0-2.30","19","Low_HMMActual","","","","","","null","","","","Images/WhiteBeadChoiceCorrect.png","","null"
"image-button-response","152","420725","0.0-13.0-0.31","19","Low_HMMActual","","","","","","204.30999994277954","","","","Images/NewTrialWC.png","","2"
"image-button-response","153","421037","0.0-13.0-1.31","19","Low_HMMActual","","","","","","null","","","","Images/WhiteBeadChoice.png","","null"
"image-button-response","154","421542","0.0-13.0-2.31","19","Low_HMMActual","","","","","","479.6549999155104","","","","Images/WhiteBeadChoiceCorrect.png","","2"
"image-button-response","155","422192","0.0-13.0-0.32","19","Low_HMMActual","","","","","","636.3249998539686","","","","Images/NewTrialWC.png","","2"
"image-button-response","156","422501","0.0-13.0-1.32","19","Low_HMMActual","","","","","","null","","","","Images/WhiteBeadChoice.png","","null"
"image-button-response","157","423008","0.0-13.0-2.32","19","Low_HMMActual","","","","","","null","","","","Images/WhiteBeadChoiceCorrect.png","","null"
"image-button-response","158","423393","0.0-13.0-0.33","19","Low_HMMActual","","","","","","376.4749998226762","","","","Images/NewTrialWC.png","","2"
"image-button-response","159","423708","0.0-13.0-1.33","19","Low_HMMActual","","","","","","null","","","","Images/WhiteBeadChoice.png","","null"
"image-button-response","160","424214","0.0-13.0-2.33","19","Low_HMMActual","","","","","","418.48500026389956","","","","Images/WhiteBeadChoiceCorrect.png","","2"
"image-button-response","161","424799","0.0-13.0-0.34","19","Low_HMMActual","","","","","","574.1849998012185","","","","Images/NewTrialWC.png","","2"
"image-button-response","162","425110","0.0-13.0-1.34","19","Low_HMMActual","","","","","","null","","","","Images/WhiteBeadChoice.png","","null"
"image-button-response","163","425614","0.0-13.0-2.34","19","Low_HMMActual","","","","","","null","","","","Images/WhiteBeadChoiceWrong.png","","null"
"image-button-response","164","426184","0.0-13.0-0.35","19","Low_HMMActual","","","","","","520.554999820888","","","","Images/NewTrialBC.png","","2"
"image-button-response","165","426494","0.0-13.0-1.35","19","Low_HMMActual","","","","","","null","","","","Images/WhiteBeadChoice.png","","null"
"image-button-response","166","426999","0.0-13.0-2.35","19","Low_HMMActual","","","","","","null","","","","Images/WhiteBeadChoiceCorrect.png","","null"
"image-button-response","167","427257","0.0-13.0-0.36","19","Low_HMMActual","","","","","","249.93000039830804","","","","Images/NewTrialWC.png","","2"
"image-button-response","168","427571","0.0-13.0-1.36","19","Low_HMMActual","","","","","","null","","","","Images/WhiteBeadChoice.png","","null"
"image-button-response","169","428078","0.0-13.0-2.36","19","Low_HMMActual","","","","","","null","","","","Images/WhiteBeadChoiceWrong.png","","null"
"image-button-response","170","428699","0.0-13.0-0.37","19","Low_HMMActual","","","","","","610.1599996909499","","","","Images/NewTrialBC.png","","2"
"image-button-response","171","429019","0.0-13.0-1.37","19","Low_HMMActual","","","","","","null","","","","Images/WhiteBeadChoice.png","","null"
"image-button-response","172","429577","0.0-13.0-2.37","19","Low_HMMActual","","","","","","null","","","","Images/WhiteBeadChoiceWrong.png","","null"
"image-button-response","173","430220","0.0-13.0-0.38","19","Low_HMMActual","","","","","","634.7500002011657","","","","Images/NewTrialBC.png","","0"
"image-button-response","174","430536","0.0-13.0-1.38","19","Low_HMMActual","","","","","","null","","","","Images/BlackBeadChoice.png","","null"
"image-button-response","175","431041","0.0-13.0-2.38","19","Low_HMMActual","","","","","","463.9650001190603","","","","Images/BlackBeadChoiceCorrect.png","","0"
"image-button-response","176","432627","0.0-13.0-0.39","19","Low_HMMActual","","","","","","1574.6450000442564","","","","Images/NewTrialBC.png","","0"
"image-button-response","177","432937","0.0-13.0-1.39","19","Low_HMMActual","","","","","","null","","","","Images/BlackBeadChoice.png","","null"
"image-button-response","178","433442","0.0-13.0-2.39","19","Low_HMMActual","","","","","","null","","","","Images/BlackBeadChoiceWrong.png","","null"
"image-button-response","179","435216","0.0-13.0-0.40","19","Low_HMMActual","","","","","","1766.9949997216463","","","","Images/NewTrialWC.png","","2"
"image-button-response","180","435528","0.0-13.0-1.40","19","Low_HMMActual","","","","","","null","","","","Images/WhiteBeadChoice.png","","null"
"image-button-response","181","436089","0.0-13.0-2.40","19","Low_HMMActual","","","","","","null","","","","Images/WhiteBeadChoiceCorrect.png","","null"
"image-button-response","182","436738","0.0-13.0-0.41","19","Low_HMMActual","","","","","","639.485000167042","","","","Images/NewTrialWC.png","","2"
"image-button-response","183","437044","0.0-13.0-1.41","19","Low_HMMActual","","","","","","null","","","","Images/WhiteBeadChoice.png","","null"
"image-button-response","184","437551","0.0-13.0-2.41","19","Low_HMMActual","","","","","","450.6949996575713","","","","Images/WhiteBeadChoiceCorrect.png","","2"
"image-button-response","185","438205","0.0-13.0-0.42","19","Low_HMMActual","","","","","","645.215000025928","","","","Images/NewTrialWC.png","","2"
"image-button-response","186","438513","0.0-13.0-1.42","19","Low_HMMActual","","","","","","null","","","","Images/WhiteBeadChoice.png","","null"
"image-button-response","187","439019","0.0-13.0-2.42","19","Low_HMMActual","","","","","","null","","","","Images/WhiteBeadChoiceWrong.png","","null"
"image-button-response","188","439845","0.0-13.0-0.43","19","Low_HMMActual","","","","","","818.4899999760091","","","","Images/NewTrialBC.png","","0"
"image-button-response","189","440152","0.0-13.0-1.43","19","Low_HMMActual","","","","","","null","","","","Images/BlackBeadChoice.png","","null"
"image-button-response","190","440657","0.0-13.0-2.43","19","Low_HMMActual","","","","","","null","","","","Images/BlackBeadChoiceWrong.png","","null"
"image-button-response","191","441546","0.0-13.0-0.44","19","Low_HMMActual","","","","","","880.4699997417629","","","","Images/NewTrialWC.png","","2"
"image-button-response","192","441854","0.0-13.0-1.44","19","Low_HMMActual","","","","","","null","","","","Images/WhiteBeadChoice.png","","null"
"image-button-response","193","442359","0.0-13.0-2.44","19","Low_HMMActual","","","","","","null","","","","Images/WhiteBeadChoiceWrong.png","","null"
"image-button-response","194","443453","0.0-13.0-0.45","19","Low_HMMActual","","","","","","1085.969999898225","","","","Images/NewTrialBC.png","","2"
"image-button-response","195","443763","0.0-13.0-1.45","19","Low_HMMActual","","","","","","null","","","","Images/WhiteBeadChoice.png","","null"
"image-button-response","196","444270","0.0-13.0-2.45","19","Low_HMMActual","","","","","","null","","","","Images/WhiteBeadChoiceWrong.png","","null"
"image-button-response","197","445154","0.0-13.0-0.46","19","Low_HMMActual","","","","","","875.3149998374283","","","","Images/NewTrialBC.png","","1"
"image-button-response","198","445460","0.0-13.0-1.46","19","Low_HMMActual","","","","","","null","","","","Images/BlackBeadChoice.png","","null"
"image-button-response","199","445966","0.0-13.0-2.46","19","Low_HMMActual","","","","","","null","","","","Images/BlackBeadChoiceWrong.png","","null"
"image-button-response","200","447318","0.0-13.0-0.47","19","Low_HMMActual","","","","","","1344.2150000482798","","","","Images/NewTrialWC.png","","2"
"image-button-response","201","447623","0.0-13.0-1.47","19","Low_HMMActual","","","","","","null","","","","Images/WhiteBeadChoice.png","","null"
"image-button-response","202","448130","0.0-13.0-2.47","19","Low_HMMActual","","","","","","null","","","","Images/WhiteBeadChoiceCorrect.png","","null"
"image-button-response","203","448374","0.0-13.0-0.48","19","Low_HMMActual","","","","","","236.19999969378114","","","","Images/NewTrialWC.png","","2"
"image-button-response","204","448681","0.0-13.0-1.48","19","Low_HMMActual","","","","","","null","","","","Images/WhiteBeadChoice.png","","null"
"image-button-response","205","449189","0.0-13.0-2.48","19","Low_HMMActual","","","","","","null","","","","Images/WhiteBeadChoiceCorrect.png","","null"
"image-button-response","206","449895","0.0-13.0-0.49","19","Low_HMMActual","","","","","","688.0649998784065","","","","Images/NewTrialWC.png","","2"
"image-button-response","207","450207","0.0-13.0-1.49","19","Low_HMMActual","","","","","","null","","","","Images/WhiteBeadChoice.png","","null"
"image-button-response","208","450716","0.0-13.0-2.49","19","Low_HMMActual","","","","","","461.55499992892146","","","","Images/WhiteBeadChoiceCorrect.png","","2"
"image-button-response","209","451291","0.0-13.0-0.50","19","Low_HMMActual","","","","","","520.5400004051626","","","","Images/NewTrialWC.png","","2"
"image-button-response","210","451602","0.0-13.0-1.50","19","Low_HMMActual","","","","","","null","","","","Images/WhiteBeadChoice.png","","null"
"image-button-response","211","452113","0.0-13.0-2.50","19","Low_HMMActual","","","","","","null","","","","Images/WhiteBeadChoiceWrong.png","","null"
"image-button-response","212","454086","0.0-13.0-0.51","19","Low_HMMActual","","","","","","1966.9350003823638","","","","Images/NewTrialBC.png","","0"
"image-button-response","213","454396","0.0-13.0-1.51","19","Low_HMMActual","","","","","","null","","","","Images/BlackBeadChoice.png","","null"
"image-button-response","214","454900","0.0-13.0-2.51","19","Low_HMMActual","","","","","","null","","","","Images/BlackBeadChoiceCorrect.png","","null"
"image-button-response","215","455491","0.0-13.0-0.52","19","Low_HMMActual","","","","","","581.7399998195469","","","","Images/NewTrialBC.png","","0"
"image-button-response","216","455799","0.0-13.0-1.52","19","Low_HMMActual","","","","","","null","","","","Images/BlackBeadChoice.png","","null"
"image-button-response","217","456306","0.0-13.0-2.52","19","Low_HMMActual","","","","","","null","","","","Images/BlackBeadChoiceCorrect.png","","null"
"image-button-response","218","457000","0.0-13.0-0.53","19","Low_HMMActual","","","","","","685.5900003574789","","","","Images/NewTrialBC.png","","0"
"image-button-response","219","457308","0.0-13.0-1.53","19","Low_HMMActual","","","","","","null","","","","Images/BlackBeadChoice.png","","null"
"image-button-response","220","457812","0.0-13.0-2.53","19","Low_HMMActual","","","","","","null","","","","Images/BlackBeadChoiceWrong.png","","null"
"image-button-response","221","458239","0.0-13.0-0.54","19","Low_HMMActual","","","","","","362.41000005975366","","","","Images/NewTrialWC.png","","0"
"image-button-response","222","458546","0.0-13.0-1.54","19","Low_HMMActual","","","","","","null","","","","Images/BlackBeadChoice.png","","null"
"image-button-response","223","459051","0.0-13.0-2.54","19","Low_HMMActual","","","","","","null","","","","Images/BlackBeadChoiceCorrect.png","","null"
"image-button-response","224","460135","0.0-13.0-0.55","19","Low_HMMActual","","","","","","1077.7400000952184","","","","Images/NewTrialBC.png","","0"
"image-button-response","225","460443","0.0-13.0-1.55","19","Low_HMMActual","","","","","","null","","","","Images/BlackBeadChoice.png","","null"
"image-button-response","226","460949","0.0-13.0-2.55","19","Low_HMMActual","","","","","","null","","","","Images/BlackBeadChoiceCorrect.png","","null"
"image-button-response","227","461508","0.0-13.0-0.56","19","Low_HMMActual","","","","","","551.5649998560548","","","","Images/NewTrialBC.png","","2"
"image-button-response","228","461827","0.0-13.0-1.56","19","Low_HMMActual","","","","","","null","","","","Images/WhiteBeadChoice.png","","null"
"image-button-response","229","462356","0.0-13.0-2.56","19","Low_HMMActual","","","","","","null","","","","Images/WhiteBeadChoiceWrong.png","","null"
"image-button-response","230","463093","0.0-13.0-0.57","19","Low_HMMActual","","","","","","727.0949999801815","","","","Images/NewTrialBC.png","","2"
"image-button-response","231","463400","0.0-13.0-1.57","19","Low_HMMActual","","","","","","null","","","","Images/WhiteBeadChoice.png","","null"
"image-button-response","232","463907","0.0-13.0-2.57","19","Low_HMMActual","","","","","","null","","","","Images/WhiteBeadChoiceWrong.png","","null"
"image-button-response","233","464696","0.0-13.0-0.58","19","Low_HMMActual","","","","","","782.150000333786","","","","Images/NewTrialBC.png","","0"
"image-button-response","234","465002","0.0-13.0-1.58","19","Low_HMMActual","","","","","","null","","","","Images/BlackBeadChoice.png","","null"
"image-button-response","235","465507","0.0-13.0-2.58","19","Low_HMMActual","","","","","","null","","","","Images/BlackBeadChoiceCorrect.png","","null"
"image-button-response","236","465971","0.0-13.0-0.59","19","Low_HMMActual","","","","","","457.1549999527633","","","","Images/NewTrialBC.png","","0"
"image-button-response","237","466278","0.0-13.0-1.59","19","Low_HMMActual","","","","","","null","","","","Images/BlackBeadChoice.png","","null"
"image-button-response","238","466782","0.0-13.0-2.59","19","Low_HMMActual","","","","","","null","","","","Images/BlackBeadChoiceWrong.png","","null"
"image-button-response","239","467431","0.0-13.0-0.60","19","Low_HMMActual","","","","","","642.7150000818074","","","","Images/NewTrialWC.png","","2"
"image-button-response","240","467743","0.0-13.0-1.60","19","Low_HMMActual","","","","","","null","","","","Images/WhiteBeadChoice.png","","null"
"image-button-response","241","468252","0.0-13.0-2.60","19","Low_HMMActual","","","","","","null","","","","Images/WhiteBeadChoiceCorrect.png","","null"
"image-button-response","242","468831","0.0-13.0-0.61","19","Low_HMMActual","","","","","","566.5750000625849","","","","Images/NewTrialWC.png","","2"
"image-button-response","243","469138","0.0-13.0-1.61","19","Low_HMMActual","","","","","","null","","","","Images/WhiteBeadChoice.png","","null"
"image-button-response","244","469645","0.0-13.0-2.61","19","Low_HMMActual","","","","","","null","","","","Images/WhiteBeadChoiceCorrect.png","","null"
"image-button-response","245","470455","0.0-13.0-0.62","19","Low_HMMActual","","","","","","801.7899999395013","","","","Images/NewTrialWC.png","","2"
"image-button-response","246","470761","0.0-13.0-1.62","19","Low_HMMActual","","","","","","null","","","","Images/WhiteBeadChoice.png","","null"
"image-button-response","247","471266","0.0-13.0-2.62","19","Low_HMMActual","","","","","","null","","","","Images/WhiteBeadChoiceWrong.png","","null"
"image-button-response","248","472362","0.0-13.0-0.63","19","Low_HMMActual","","","","","","1089.4450000487268","","","","Images/NewTrialBC.png","","0"
"image-button-response","249","472668","0.0-13.0-1.63","19","Low_HMMActual","","","","","","null","","","","Images/BlackBeadChoice.png","","null"
"image-button-response","250","473176","0.0-13.0-2.63","19","Low_HMMActual","","","","","","null","","","","Images/BlackBeadChoiceCorrect.png","","null"
"image-button-response","251","473905","0.0-13.0-0.64","19","Low_HMMActual","","","","","","718.6150001361966","","","","Images/NewTrialBC.png","","0"
"image-button-response","252","474213","0.0-13.0-1.64","19","Low_HMMActual","","","","","","null","","","","Images/BlackBeadChoice.png","","null"
"image-button-response","253","474718","0.0-13.0-2.64","19","Low_HMMActual","","","","","","null","","","","Images/BlackBeadChoiceWrong.png","","null"
"image-button-response","254","476105","0.0-13.0-0.65","19","Low_HMMActual","","","","","","1379.2050001211464","","","","Images/NewTrialWC.png","","2"
"image-button-response","255","476410","0.0-13.0-1.65","19","Low_HMMActual","","","","","","null","","","","Images/WhiteBeadChoice.png","","null"
"image-button-response","256","476921","0.0-13.0-2.65","19","Low_HMMActual","","","","","","null","","","","Images/WhiteBeadChoiceWrong.png","","null"
"image-button-response","257","479034","0.0-13.0-0.66","19","Low_HMMActual","","","","","","2105.7850001379848","","","","Images/NewTrialBC.png","","2"
"image-button-response","258","479340","0.0-13.0-1.66","19","Low_HMMActual","","","","","","null","","","","Images/WhiteBeadChoice.png","","null"
"image-button-response","259","479847","0.0-13.0-2.66","19","Low_HMMActual","","","","","","null","","","","Images/WhiteBeadChoiceWrong.png","","null"
"image-button-response","260","480479","0.0-13.0-0.67","19","Low_HMMActual","","","","","","625.7699998095632","","","","Images/NewTrialBC.png","","0"
"image-button-response","261","480784","0.0-13.0-1.67","19","Low_HMMActual","","","","","","null","","","","Images/BlackBeadChoice.png","","null"
"image-button-response","262","481289","0.0-13.0-2.67","19","Low_HMMActual","","","","","","472.21000026911497","","","","Images/BlackBeadChoiceCorrect.png","","0"
"image-button-response","263","481832","0.0-13.0-0.68","19","Low_HMMActual","","","","","","531.9750001654029","","","","Images/NewTrialBC.png","","0"
"image-button-response","264","482140","0.0-13.0-1.68","19","Low_HMMActual","","","","","","null","","","","Images/BlackBeadChoice.png","","null"
"image-button-response","265","482644","0.0-13.0-2.68","19","Low_HMMActual","","","","","","null","","","","Images/BlackBeadChoiceWrong.png","","null"
"image-button-response","266","483309","0.0-13.0-0.69","19","Low_HMMActual","","","","","","653.8550001569092","","","","Images/NewTrialWC.png","","3"
"image-button-response","267","483615","0.0-13.0-1.69","19","Low_HMMActual","","","","","","null","","","","Images/WhiteBeadChoice.png","","null"
"image-button-response","268","484120","0.0-13.0-2.69","19","Low_HMMActual","","","","","","null","","","","Images/WhiteBeadChoiceWrong.png","","null"
"image-button-response","269","485690","0.0-13.0-0.70","19","Low_HMMActual","","","","","","1563.0100001581013","","","","Images/NewTrialBC.png","","0"
"image-button-response","270","485997","0.0-13.0-1.70","19","Low_HMMActual","","","","","","null","","","","Images/BlackBeadChoice.png","","null"
"image-button-response","271","486502","0.0-13.0-2.70","19","Low_HMMActual","","","","","","null","","","","Images/BlackBeadChoiceWrong.png","","null"
"image-button-response","272","487343","0.0-13.0-0.71","19","Low_HMMActual","","","","","","834.0850002132356","","","","Images/NewTrialWC.png","","2"
"image-button-response","273","487649","0.0-13.0-1.71","19","Low_HMMActual","","","","","","null","","","","Images/WhiteBeadChoice.png","","null"
"image-button-response","274","488156","0.0-13.0-2.71","19","Low_HMMActual","","","","","","null","","","","Images/WhiteBeadChoiceWrong.png","","null"
"image-button-response","275","489299","0.0-13.0-0.72","19","Low_HMMActual","","","","","","1132.2400001809","","","","Images/NewTrialBC.png","","0"
"image-button-response","276","489604","0.0-13.0-1.72","19","Low_HMMActual","","","","","","null","","","","Images/BlackBeadChoice.png","","null"
"image-button-response","277","490108","0.0-13.0-2.72","19","Low_HMMActual","","","","","","null","","","","Images/BlackBeadChoiceCorrect.png","","null"
"image-button-response","278","490564","0.0-13.0-0.73","19","Low_HMMActual","","","","","","449.3749998509884","","","","Images/NewTrialBC.png","","0"
"image-button-response","279","490871","0.0-13.0-1.73","19","Low_HMMActual","","","","","","null","","","","Images/BlackBeadChoice.png","","null"
"image-button-response","280","491377","0.0-13.0-2.73","19","Low_HMMActual","","","","","","null","","","","Images/BlackBeadChoiceCorrect.png","","null"
"image-button-response","281","491983","0.0-13.0-0.74","19","Low_HMMActual","","","","","","599.225000012666","","","","Images/NewTrialBC.png","","0"
"image-button-response","282","492290","0.0-13.0-1.74","19","Low_HMMActual","","","","","","null","","","","Images/BlackBeadChoice.png","","null"
"image-button-response","283","492795","0.0-13.0-2.74","19","Low_HMMActual","","","","","","null","","","","Images/BlackBeadChoiceCorrect.png","","null"
"image-button-response","284","494365","0.0-13.0-0.75","19","Low_HMMActual","","","","","","1563.7850002385676","","","","Images/NewTrialBC.png","","2"
"image-button-response","285","494672","0.0-13.0-1.75","19","Low_HMMActual","","","","","","null","","","","Images/WhiteBeadChoice.png","","null"
"image-button-response","286","495177","0.0-13.0-2.75","19","Low_HMMActual","","","","","","null","","","","Images/WhiteBeadChoiceWrong.png","","null"
"image-button-response","287","496042","0.0-13.0-0.76","19","Low_HMMActual","","","","","","857.9449998214841","","","","Images/NewTrialBC.png","","2"
"image-button-response","288","496348","0.0-13.0-1.76","19","Low_HMMActual","","","","","","null","","","","Images/WhiteBeadChoice.png","","null"
"image-button-response","289","496855","0.0-13.0-2.76","19","Low_HMMActual","","","","","","null","","","","Images/WhiteBeadChoiceWrong.png","","null"
"image-button-response","290","496978","0.0-13.0-0.77","19","Low_HMMActual","","","","","","114.88500004634261","","","","Images/NewTrialBC.png","","2"
"image-button-response","291","497287","0.0-13.0-1.77","19","Low_HMMActual","","","","","","null","","","","Images/WhiteBeadChoice.png","","null"
"image-button-response","292","497798","0.0-13.0-2.77","19","Low_HMMActual","","","","","","null","","","","Images/WhiteBeadChoiceCorrect.png","","null"
"image-button-response","293","499224","0.0-13.0-0.78","19","Low_HMMActual","","","","","","1419.680000282824","","","","Images/NewTrialWC.png","","2"
"image-button-response","294","499531","0.0-13.0-1.78","19","Low_HMMActual","","","","","","null","","","","Images/WhiteBeadChoice.png","","null"
"image-button-response","295","500036","0.0-13.0-2.78","19","Low_HMMActual","","","","","","null","","","","Images/WhiteBeadChoiceWrong.png","","null"
"image-button-response","296","500924","0.0-13.0-0.79","19","Low_HMMActual","","","","","","880.2399998530746","","","","Images/NewTrialBC.png","","0"
"image-button-response","297","501230","0.0-13.0-1.79","19","Low_HMMActual","","","","","","null","","","","Images/BlackBeadChoice.png","","null"
"image-button-response","298","501735","0.0-13.0-2.79","19","Low_HMMActual","","","","","","null","","","","Images/BlackBeadChoiceCorrect.png","","null"
"image-button-response","299","501848","0.0-13.0-0.80","19","Low_HMMActual","","","","","","100.91000003740191","","","","Images/NewTrialBC.png","","0"
"image-button-response","300","502154","0.0-13.0-1.80","19","Low_HMMActual","","","","","","199.08999977633357","","","","Images/BlackBeadChoice.png","","0"
"image-button-response","301","502665","0.0-13.0-2.80","19","Low_HMMActual","","","","","","null","","","","Images/BlackBeadChoiceWrong.png","","null"
"image-button-response","302","503549","0.0-13.0-0.81","19","Low_HMMActual","","","","","","878.0549997463822","","","","Images/NewTrialWC.png","","2"
"image-button-response","303","503855","0.0-13.0-1.81","19","Low_HMMActual","","","","","","null","","","","Images/WhiteBeadChoice.png","","null"
"image-button-response","304","504360","0.0-13.0-2.81","19","Low_HMMActual","","","","","","454.6850002370775","","","","Images/WhiteBeadChoiceCorrect.png","","2"
"image-button-response","305","504901","0.0-13.0-0.82","19","Low_HMMActual","","","","","","531.2399999238551","","","","Images/NewTrialWC.png","","2"
"image-button-response","306","505208","0.0-13.0-1.82","19","Low_HMMActual","","","","","","null","","","","Images/WhiteBeadChoice.png","","null"
"image-button-response","307","505712","0.0-13.0-2.82","19","Low_HMMActual","","","","","","null","","","","Images/WhiteBeadChoiceWrong.png","","null"
"image-button-response","308","506237","0.0-13.0-0.83","19","Low_HMMActual","","","","","","518.2750001549721","","","","Images/NewTrialBC.png","","2"
"image-button-response","309","506544","0.0-13.0-1.83","19","Low_HMMActual","","","","","","null","","","","Images/WhiteBeadChoice.png","","null"
"image-button-response","310","507055","0.0-13.0-2.83","19","Low_HMMActual","","","","","","null","","","","Images/WhiteBeadChoiceWrong.png","","null"
"image-button-response","311","507598","0.0-13.0-0.84","19","Low_HMMActual","","","","","","536.0650001093745","","","","Images/NewTrialBC.png","","0"
"image-button-response","312","507906","0.0-13.0-1.84","19","Low_HMMActual","","","","","","null","","","","Images/BlackBeadChoice.png","","null"
"image-button-response","313","508410","0.0-13.0-2.84","19","Low_HMMActual","","","","","","439.80500008910894","","","","Images/BlackBeadChoiceCorrect.png","","0"
"image-button-response","314","508873","0.0-13.0-0.85","19","Low_HMMActual","","","","","","455.8099997229874","","","","Images/NewTrialBC.png","","0"
"image-button-response","315","509181","0.0-13.0-1.85","19","Low_HMMActual","","","","","","null","","","","Images/BlackBeadChoice.png","","null"
"image-button-response","316","509686","0.0-13.0-2.85","19","Low_HMMActual","","","","","","483.75000013038516","","","","Images/BlackBeadChoiceCorrect.png","","0"
"image-button-response","317","510266","0.0-13.0-0.86","19","Low_HMMActual","","","","","","572.5750001147389","","","","Images/NewTrialBC.png","","0"
"image-button-response","318","510579","0.0-13.0-1.86","19","Low_HMMActual","","","","","","null","","","","Images/BlackBeadChoice.png","","null"
"image-button-response","319","511084","0.0-13.0-2.86","19","Low_HMMActual","","","","","","null","","","","Images/BlackBeadChoiceWrong.png","","null"
"image-button-response","320","511810","0.0-13.0-0.87","19","Low_HMMActual","","","","","","719.6599999442697","","","","Images/NewTrialWC.png","","2"
"image-button-response","321","512115","0.0-13.0-1.87","19","Low_HMMActual","","","","","","null","","","","Images/WhiteBeadChoice.png","","null"
"image-button-response","322","512621","0.0-13.0-2.87","19","Low_HMMActual","","","","","","null","","","","Images/WhiteBeadChoiceCorrect.png","","null"
"image-button-response","323","513134","0.0-13.0-0.88","19","Low_HMMActual","","","","","","505.925000179559","","","","Images/NewTrialWC.png","","2"
"image-button-response","324","513441","0.0-13.0-1.88","19","Low_HMMActual","","","","","","null","","","","Images/WhiteBeadChoice.png","","null"
"image-button-response","325","513947","0.0-13.0-2.88","19","Low_HMMActual","","","","","","null","","","","Images/WhiteBeadChoiceCorrect.png","","null"
"image-button-response","326","514195","0.0-13.0-0.89","19","Low_HMMActual","","","","","","235.4700001887977","","","","Images/NewTrialWC.png","","2"
"image-button-response","327","514502","0.0-13.0-1.89","19","Low_HMMActual","","","","","","null","","","","Images/WhiteBeadChoice.png","","null"
"image-button-response","328","515007","0.0-13.0-2.89","19","Low_HMMActual","","","","","","464.8400000296533","","","","Images/WhiteBeadChoiceWrong.png","","2"
"image-button-response","329","515737","0.0-13.0-0.90","19","Low_HMMActual","","","","","","720.9700001403689","","","","Images/NewTrialBC.png","","2"
"image-button-response","330","516045","0.0-13.0-1.90","19","Low_HMMActual","","","","","","null","","","","Images/WhiteBeadChoice.png","","null"
"image-button-response","331","516552","0.0-13.0-2.90","19","Low_HMMActual","","","","","","null","","","","Images/WhiteBeadChoiceWrong.png","","null"
"image-button-response","332","517450","0.0-13.0-0.91","19","Low_HMMActual","","","","","","891.9199998490512","","","","Images/NewTrialBC.png","","1"
"image-button-response","333","517756","0.0-13.0-1.91","19","Low_HMMActual","","","","","","null","","","","Images/BlackBeadChoice.png","","null"
"image-button-response","334","518261","0.0-13.0-2.91","19","Low_HMMActual","","","","","","null","","","","Images/BlackBeadChoiceCorrect.png","","null"
"image-button-response","335","518898","0.0-13.0-0.92","19","Low_HMMActual","","","","","","622.7700002491474","","","","Images/NewTrialBC.png","","0"
"image-button-response","336","519203","0.0-13.0-1.92","19","Low_HMMActual","","","","","","null","","","","Images/BlackBeadChoice.png","","null"
"image-button-response","337","519707","0.0-13.0-2.92","19","Low_HMMActual","","","","","","null","","","","Images/BlackBeadChoiceWrong.png","","null"
"image-button-response","338","520555","0.0-13.0-0.93","19","Low_HMMActual","","","","","","842.2600002959371","","","","Images/NewTrialWC.png","","0"
"image-button-response","339","520861","0.0-13.0-1.93","19","Low_HMMActual","","","","","","null","","","","Images/BlackBeadChoice.png","","null"
"image-button-response","340","521366","0.0-13.0-2.93","19","Low_HMMActual","","","","","","null","","","","Images/BlackBeadChoiceWrong.png","","null"
"image-button-response","341","523023","0.0-13.0-0.94","19","Low_HMMActual","","","","","","1650.4100002348423","","","","Images/NewTrialWC.png","","2"
"image-button-response","342","523328","0.0-13.0-1.94","19","Low_HMMActual","","","","","","null","","","","Images/WhiteBeadChoice.png","","null"
"image-button-response","343","523834","0.0-13.0-2.94","19","Low_HMMActual","","","","","","null","","","","Images/WhiteBeadChoiceWrong.png","","null"
"image-button-response","344","525271","0.0-13.0-0.95","19","Low_HMMActual","","","","","","1431.499999947846","","","","Images/NewTrialBC.png","","0"
"image-button-response","345","525578","0.0-13.0-1.95","19","Low_HMMActual","","","","","","null","","","","Images/BlackBeadChoice.png","","null"
"image-button-response","346","526084","0.0-13.0-2.95","19","Low_HMMActual","","","","","","null","","","","Images/BlackBeadChoiceCorrect.png","","null"
"image-button-response","347","526692","0.0-13.0-0.96","19","Low_HMMActual","","","","","","601.2150002643466","","","","Images/NewTrialBC.png","","0"
"image-button-response","348","527000","0.0-13.0-1.96","19","Low_HMMActual","","","","","","null","","","","Images/BlackBeadChoice.png","","null"
"image-button-response","349","527519","0.0-13.0-2.96","19","Low_HMMActual","","","","","","null","","","","Images/BlackBeadChoiceCorrect.png","","null"
"image-button-response","350","528180","0.0-13.0-0.97","19","Low_HMMActual","","","","","","647.849999833852","","","","Images/NewTrialBC.png","","0"
"image-button-response","351","528487","0.0-13.0-1.97","19","Low_HMMActual","","","","","","null","","","","Images/BlackBeadChoice.png","","null"
"image-button-response","352","528992","0.0-13.0-2.97","19","Low_HMMActual","","","","","","null","","","","Images/BlackBeadChoiceCorrect.png","","null"
"image-button-response","353","529322","0.0-13.0-0.98","19","Low_HMMActual","","","","","","323.66500003263354","","","","Images/NewTrialBC.png","","0"
"image-button-response","354","529630","0.0-13.0-1.98","19","Low_HMMActual","","","","","","null","","","","Images/BlackBeadChoice.png","","null"
"image-button-response","355","530135","0.0-13.0-2.98","19","Low_HMMActual","","","","","","null","","","","Images/BlackBeadChoiceWrong.png","","null"
"image-button-response","356","531638","0.0-13.0-0.99","19","Low_HMMActual","","","","","","1494.5600000210106","","","","Images/NewTrialWC.png","","2"
"image-button-response","357","531948","0.0-13.0-1.99","19","Low_HMMActual","","","","","","null","","","","Images/WhiteBeadChoice.png","","null"
"image-button-response","358","532456","0.0-13.0-2.99","19","Low_HMMActual","","","","","","null","","","","Images/WhiteBeadChoiceWrong.png","","null"
"image-button-response","359","533751","0.0-13.0-0.100","19","Low_HMMActual","","","","","","1279.8150000162423","","","","Images/NewTrialBC.png","","0"
"image-button-response","360","534059","0.0-13.0-1.100","19","Low_HMMActual","","","","","","null","","","","Images/BlackBeadChoice.png","","null"
"image-button-response","361","534579","0.0-13.0-2.100","19","Low_HMMActual","","","","","","null","","","","Images/BlackBeadChoiceWrong.png","","null"
"image-button-response","362","535212","0.0-13.0-0.101","19","Low_HMMActual","","","","","","624.1100002080202","","","","Images/NewTrialWC.png","","2"
"image-button-response","363","535518","0.0-13.0-1.101","19","Low_HMMActual","","","","","","null","","","","Images/WhiteBeadChoice.png","","null"
"image-button-response","364","536023","0.0-13.0-2.101","19","Low_HMMActual","","","","","","null","","","","Images/WhiteBeadChoiceCorrect.png","","null"
"image-button-response","365","536619","0.0-13.0-0.102","19","Low_HMMActual","","","","","","588.8899997808039","","","","Images/NewTrialWC.png","","2"
"image-button-response","366","536926","0.0-13.0-1.102","19","Low_HMMActual","","","","","","null","","","","Images/WhiteBeadChoice.png","","null"
"image-button-response","367","537433","0.0-13.0-2.102","19","Low_HMMActual","","","","","","null","","","","Images/WhiteBeadChoiceCorrect.png","","null"
"image-button-response","368","538008","0.0-13.0-0.103","19","Low_HMMActual","","","","","","560.3750003501773","","","","Images/NewTrialWC.png","","2"
"image-button-response","369","538315","0.0-13.0-1.103","19","Low_HMMActual","","","","","","null","","","","Images/WhiteBeadChoice.png","","null"
"image-button-response","370","538818","0.0-13.0-2.103","19","Low_HMMActual","","","","","","null","","","","Images/WhiteBeadChoiceWrong.png","","null"
"image-button-response","371","539453","0.0-13.0-0.104","19","Low_HMMActual","","","","","","628.45000019297","","","","Images/NewTrialBC.png","","0"
"image-button-response","372","539759","0.0-13.0-1.104","19","Low_HMMActual","","","","","","null","","","","Images/BlackBeadChoice.png","","null"
"image-button-response","373","540265","0.0-13.0-2.104","19","Low_HMMActual","","","","","","null","","","","Images/BlackBeadChoiceWrong.png","","null"
"image-button-response","374","540875","0.0-13.0-0.105","19","Low_HMMActual","","","","","","602.4250001646578","","","","Images/NewTrialWC.png","","2"
"image-button-response","375","541182","0.0-13.0-1.105","19","Low_HMMActual","","","","","","null","","","","Images/WhiteBeadChoice.png","","null"
"image-button-response","376","541689","0.0-13.0-2.105","19","Low_HMMActual","","","","","","null","","","","Images/WhiteBeadChoiceCorrect.png","","null"
"image-button-response","377","542163","0.0-13.0-0.106","19","Low_HMMActual","","","","","","456.3400000333786","","","","Images/NewTrialWC.png","","2"
"image-button-response","378","542469","0.0-13.0-1.106","19","Low_HMMActual","","","","","","null","","","","Images/WhiteBeadChoice.png","","null"
"image-button-response","379","542976","0.0-13.0-2.106","19","Low_HMMActual","","","","","","null","","","","Images/WhiteBeadChoiceCorrect.png","","null"
"image-button-response","380","543603","0.0-13.0-0.107","19","Low_HMMActual","","","","","","618.9199998043478","","","","Images/NewTrialWC.png","","2"
"image-button-response","381","543909","0.0-13.0-1.107","19","Low_HMMActual","","","","","","null","","","","Images/WhiteBeadChoice.png","","null"
"image-button-response","382","544414","0.0-13.0-2.107","19","Low_HMMActual","","","","","","null","","","","Images/WhiteBeadChoiceCorrect.png","","null"
"image-button-response","383","544676","0.0-13.0-0.108","19","Low_HMMActual","","","","","","252.82999966293573","","","","Images/NewTrialWC.png","","2"
"image-button-response","384","544985","0.0-13.0-1.108","19","Low_HMMActual","","","","","","null","","","","Images/WhiteBeadChoice.png","","null"
"image-button-response","385","545492","0.0-13.0-2.108","19","Low_HMMActual","","","","","","null","","","","Images/WhiteBeadChoiceCorrect.png","","null"
"image-button-response","386","546081","0.0-13.0-0.109","19","Low_HMMActual","","","","","","579.4199998490512","","","","Images/NewTrialWC.png","","2"
"image-button-response","387","546392","0.0-13.0-1.109","19","Low_HMMActual","","","","","","null","","","","Images/WhiteBeadChoice.png","","null"
"image-button-response","388","546898","0.0-13.0-2.109","19","Low_HMMActual","","","","","","null","","","","Images/WhiteBeadChoiceCorrect.png","","null"
"image-button-response","389","547343","0.0-13.0-0.110","19","Low_HMMActual","","","","","","434.7950001247227","","","","Images/NewTrialWC.png","","2"
"image-button-response","390","547651","0.0-13.0-1.110","19","Low_HMMActual","","","","","","null","","","","Images/WhiteBeadChoice.png","","null"
"image-button-response","391","548209","0.0-13.0-2.110","19","Low_HMMActual","","","","","","null","","","","Images/WhiteBeadChoiceWrong.png","","null"
"image-button-response","392","549252","0.0-13.0-0.111","19","Low_HMMActual","","","","","","1037.6699999906123","","","","Images/NewTrialBC.png","","0"
"image-button-response","393","549558","0.0-13.0-1.111","19","Low_HMMActual","","","","","","null","","","","Images/BlackBeadChoice.png","","null"
"image-button-response","394","550063","0.0-13.0-2.111","19","Low_HMMActual","","","","","","null","","","","Images/BlackBeadChoiceCorrect.png","","null"
"image-button-response","395","551318","0.0-13.0-0.112","19","Low_HMMActual","","","","","","1247.630000114441","","","","Images/NewTrialBC.png","","0"
"image-button-response","396","551626","0.0-13.0-1.112","19","Low_HMMActual","","","","","","null","","","","Images/BlackBeadChoice.png","","null"
"image-button-response","397","552138","0.0-13.0-2.112","19","Low_HMMActual","","","","","","null","","","","Images/BlackBeadChoiceWrong.png","","null"
"image-button-response","398","552703","0.0-13.0-0.113","19","Low_HMMActual","","","","","","509.95999993756413","","","","Images/NewTrialWC.png","","2"
"image-button-response","399","553011","0.0-13.0-1.113","19","Low_HMMActual","","","","","","null","","","","Images/WhiteBeadChoice.png","","null"
"image-button-response","400","553519","0.0-13.0-2.113","19","Low_HMMActual","","","","","","null","","","","Images/WhiteBeadChoiceCorrect.png","","null"
"image-button-response","401","553981","0.0-13.0-0.114","19","Low_HMMActual","","","","","","453.04000005126","","","","Images/NewTrialWC.png","","2"
"image-button-response","402","554288","0.0-13.0-1.114","19","Low_HMMActual","","","","","","null","","","","Images/WhiteBeadChoice.png","","null"
"image-button-response","403","554794","0.0-13.0-2.114","19","Low_HMMActual","","","","","","459.72999976947904","","","","Images/WhiteBeadChoiceCorrect.png","","2"
"image-button-response","404","554890","0.0-13.0-0.115","19","Low_HMMActual","","","","","","80.00999968498945","","","","Images/NewTrialWC.png","","2"
"image-button-response","405","555197","0.0-13.0-1.115","19","Low_HMMActual","","","","","","null","","","","Images/WhiteBeadChoice.png","","null"
"image-button-response","406","555703","0.0-13.0-2.115","19","Low_HMMActual","","","","","","329.0150002576411","","","","Images/WhiteBeadChoiceCorrect.png","","2"
"image-button-response","407","556188","0.0-13.0-0.116","19","Low_HMMActual","","","","","","477.03499998897314","","","","Images/NewTrialWC.png","","2"
"image-button-response","408","556540","0.0-13.0-1.116","19","Low_HMMActual","","","","","","null","","","","Images/WhiteBeadChoice.png","","null"
"image-button-response","409","557046","0.0-13.0-2.116","19","Low_HMMActual","","","","","","null","","","","Images/WhiteBeadChoiceWrong.png","","null"
"image-button-response","410","558621","0.0-13.0-0.117","19","Low_HMMActual","","","","","","1567.9450002498925","","","","Images/NewTrialBC.png","","0"
"image-button-response","411","558927","0.0-13.0-1.117","19","Low_HMMActual","","","","","","null","","","","Images/BlackBeadChoice.png","","null"
"image-button-response","412","559432","0.0-13.0-2.117","19","Low_HMMActual","","","","","","null","","","","Images/BlackBeadChoiceCorrect.png","","null"
"image-button-response","413","559667","0.0-13.0-0.118","19","Low_HMMActual","","","","","","227.46000019833446","","","","Images/NewTrialBC.png","","0"
"image-button-response","414","559980","0.0-13.0-1.118","19","Low_HMMActual","","","","","","null","","","","Images/BlackBeadChoice.png","","null"
"image-button-response","415","560502","0.0-13.0-2.118","19","Low_HMMActual","","","","","","null","","","","Images/BlackBeadChoiceCorrect.png","","null"
"image-button-response","416","560638","0.0-13.0-0.119","19","Low_HMMActual","","","","","","127.7649998664856","","","","Images/NewTrialBC.png","","0"
"image-button-response","417","560945","0.0-13.0-1.119","19","Low_HMMActual","","","","","","null","","","","Images/BlackBeadChoice.png","","null"
"image-button-response","418","561451","0.0-13.0-2.119","19","Low_HMMActual","","","","","","null","","","","Images/BlackBeadChoiceCorrect.png","","null"
"image-button-response","419","561598","0.0-13.0-0.120","19","Low_HMMActual","","","","","","139.4199999049306","","","","Images/NewTrialBC.png","","0"
"image-button-response","420","561910","0.0-13.0-1.120","19","Low_HMMActual","","","","","","null","","","","Images/BlackBeadChoice.png","","null"
"image-button-response","421","562415","0.0-13.0-2.120","19","Low_HMMActual","","","","","","null","","","","Images/BlackBeadChoiceWrong.png","","null"
"image-button-response","422","563462","0.0-13.0-0.121","19","Low_HMMActual","","","","","","1040.789999999106","","","","Images/NewTrialWC.png","","2"
"image-button-response","423","563767","0.0-13.0-1.121","19","Low_HMMActual","","","","","","null","","","","Images/WhiteBeadChoice.png","","null"
"image-button-response","424","564272","0.0-13.0-2.121","19","Low_HMMActual","","","","","","null","","","","Images/WhiteBeadChoiceCorrect.png","","null"
"image-button-response","425","564857","0.0-13.0-0.122","19","Low_HMMActual","","","","","","574.41999996081","","","","Images/NewTrialWC.png","","2"
"image-button-response","426","565163","0.0-13.0-1.122","19","Low_HMMActual","","","","","","null","","","","Images/WhiteBeadChoice.png","","null"
"image-button-response","427","565669","0.0-13.0-2.122","19","Low_HMMActual","","","","","","null","","","","Images/WhiteBeadChoiceCorrect.png","","null"
"image-button-response","428","566565","0.0-13.0-0.123","19","Low_HMMActual","","","","","","887.6450001262128","","","","Images/NewTrialWC.png","","2"
"image-button-response","429","566872","0.0-13.0-1.123","19","Low_HMMActual","","","","","","null","","","","Images/WhiteBeadChoice.png","","null"
"image-button-response","430","567377","0.0-13.0-2.123","19","Low_HMMActual","","","","","","null","","","","Images/WhiteBeadChoiceWrong.png","","null"
"image-button-response","431","568606","0.0-13.0-0.124","19","Low_HMMActual","","","","","","1218.299999833107","","","","Images/NewTrialBC.png","","0"
"image-button-response","432","568911","0.0-13.0-1.124","19","Low_HMMActual","","","","","","null","","","","Images/BlackBeadChoice.png","","null"
"image-button-response","433","569415","0.0-13.0-2.124","19","Low_HMMActual","","","","","","null","","","","Images/BlackBeadChoiceCorrect.png","","null"
"image-button-response","434","574839","0.0-13.0-0.125","19","Low_HMMActual","","","","","","5413.669999688864","","","","Images/NewTrialBC.png","","0"
"image-button-response","435","575145","0.0-13.0-1.125","19","Low_HMMActual","","","","","","null","","","","Images/BlackBeadChoice.png","","null"
"image-button-response","436","575649","0.0-13.0-2.125","19","Low_HMMActual","","","","","","null","","","","Images/BlackBeadChoiceWrong.png","","null"
"image-button-response","437","576636","0.0-13.0-0.126","19","Low_HMMActual","","","","","","979.6750000678003","","","","Images/NewTrialWC.png","","3"
"image-button-response","438","576945","0.0-13.0-1.126","19","Low_HMMActual","","","","","","68.74499982222915","","","","Images/WhiteBeadChoice.png","","3"
"image-button-response","439","577449","0.0-13.0-2.126","19","Low_HMMActual","","","","","","null","","","","Images/WhiteBeadChoiceWrong.png","","null"
"image-button-response","440","577721","0.0-13.0-0.127","19","Low_HMMActual","","","","","","260.33500023186207","","","","Images/NewTrialBC.png","","2"
"image-button-response","441","578029","0.0-13.0-1.127","19","Low_HMMActual","","","","","","null","","","","Images/WhiteBeadChoice.png","","null"
"image-button-response","442","578534","0.0-13.0-2.127","19","Low_HMMActual","","","","","","null","","","","Images/WhiteBeadChoiceWrong.png","","null"
"image-button-response","443","578936","0.0-13.0-0.128","19","Low_HMMActual","","","","","","393.1999998167157","","","","Images/NewTrialBC.png","","0"
"image-button-response","444","579244","0.0-13.0-1.128","19","Low_HMMActual","","","","","","null","","","","Images/BlackBeadChoice.png","","null"
"image-button-response","445","579748","0.0-13.0-2.128","19","Low_HMMActual","","","","","","487.0000001974404","","","","Images/BlackBeadChoiceCorrect.png","","1"
"image-button-response","446","580271","0.0-13.0-0.129","19","Low_HMMActual","","","","","","513.0300000309944","","","","Images/NewTrialBC.png","","1"
"image-button-response","447","580578","0.0-13.0-1.129","19","Low_HMMActual","","","","","","null","","","","Images/BlackBeadChoice.png","","null"
"image-button-response","448","581086","0.0-13.0-2.129","19","Low_HMMActual","","","","","","null","","","","Images/BlackBeadChoiceCorrect.png","","null"
"image-button-response","449","581718","0.0-13.0-0.130","19","Low_HMMActual","","","","","","614.0049998648465","","","","Images/NewTrialBC.png","","0"
"image-button-response","450","582025","0.0-13.0-1.130","19","Low_HMMActual","","","","","","null","","","","Images/BlackBeadChoice.png","","null"
"image-button-response","451","582531","0.0-13.0-2.130","19","Low_HMMActual","","","","","","null","","","","Images/BlackBeadChoiceCorrect.png","","null"
"image-button-response","452","583112","0.0-13.0-0.131","19","Low_HMMActual","","","","","","530.91000020504","","","","Images/NewTrialBC.png","","0"
"image-button-response","453","583418","0.0-13.0-1.131","19","Low_HMMActual","","","","","","null","","","","Images/BlackBeadChoice.png","","null"
"image-button-response","454","583924","0.0-13.0-2.131","19","Low_HMMActual","","","","","","null","","","","Images/BlackBeadChoiceCorrect.png","","null"
"image-button-response","455","584482","0.0-13.0-0.132","19","Low_HMMActual","","","","","","543.8399999402463","","","","Images/NewTrialBC.png","","0"
"image-button-response","456","584789","0.0-13.0-1.132","19","Low_HMMActual","","","","","","null","","","","Images/BlackBeadChoice.png","","null"
"image-button-response","457","585297","0.0-13.0-2.132","19","Low_HMMActual","","","","","","null","","","","Images/BlackBeadChoiceCorrect.png","","null"
"image-button-response","458","585600","0.0-13.0-0.133","19","Low_HMMActual","","","","","","288.3450002409518","","","","Images/NewTrialBC.png","","0"
"image-button-response","459","585909","0.0-13.0-1.133","19","Low_HMMActual","","","","","","224.29500008001924","","","","Images/BlackBeadChoice.png","","0"
"image-button-response","460","586419","0.0-13.0-2.133","19","Low_HMMActual","","","","","","null","","","","Images/BlackBeadChoiceCorrect.png","","null"
"image-button-response","461","587266","0.0-13.0-0.134","19","Low_HMMActual","","","","","","841.4400001056492","","","","Images/NewTrialBC.png","","2"
"image-button-response","462","587572","0.0-13.0-1.134","19","Low_HMMActual","","","","","","null","","","","Images/WhiteBeadChoice.png","","null"
"image-button-response","463","588078","0.0-13.0-2.134","19","Low_HMMActual","","","","","","null","","","","Images/WhiteBeadChoiceWrong.png","","null"
"image-button-response","464","588470","0.0-13.0-0.135","19","Low_HMMActual","","","","","","383.9500001631677","","","","Images/NewTrialBC.png","","2"
"image-button-response","465","588776","0.0-13.0-1.135","19","Low_HMMActual","","","","","","null","","","","Images/WhiteBeadChoice.png","","null"
"image-button-response","466","589285","0.0-13.0-2.135","19","Low_HMMActual","","","","","","null","","","","Images/WhiteBeadChoiceCorrect.png","","null"
"image-button-response","467","589891","0.0-13.0-0.136","19","Low_HMMActual","","","","","","599.930000025779","","","","Images/NewTrialWC.png","","3"
"image-button-response","468","590199","0.0-13.0-1.136","19","Low_HMMActual","","","","","","null","","","","Images/WhiteBeadChoice.png","","null"
"image-button-response","469","590705","0.0-13.0-2.136","19","Low_HMMActual","","","","","","null","","","","Images/WhiteBeadChoiceCorrect.png","","null"
"image-button-response","470","591557","0.0-13.0-0.137","19","Low_HMMActual","","","","","","842.1950000338256","","","","Images/NewTrialWC.png","","2"
"image-button-response","471","591864","0.0-13.0-1.137","19","Low_HMMActual","","","","","","null","","","","Images/WhiteBeadChoice.png","","null"
"image-button-response","472","592370","0.0-13.0-2.137","19","Low_HMMActual","","","","","","null","","","","Images/WhiteBeadChoiceCorrect.png","","null"
"image-button-response","473","592950","0.0-13.0-0.138","19","Low_HMMActual","","","","","","569.7999997064471","","","","Images/NewTrialWC.png","","2"
"image-button-response","474","593257","0.0-13.0-1.138","19","Low_HMMActual","","","","","","null","","","","Images/WhiteBeadChoice.png","","null"
"image-button-response","475","593771","0.0-13.0-2.138","19","Low_HMMActual","","","","","","null","","","","Images/WhiteBeadChoiceCorrect.png","","null"
"image-button-response","476","594139","0.0-13.0-0.139","19","Low_HMMActual","","","","","","361.4699998870492","","","","Images/NewTrialWC.png","","3"
"image-button-response","477","594445","0.0-13.0-1.139","19","Low_HMMActual","","","","","","null","","","","Images/WhiteBeadChoice.png","","null"
"image-button-response","478","594950","0.0-13.0-2.139","19","Low_HMMActual","","","","","","null","","","","Images/WhiteBeadChoiceCorrect.png","","null"
"image-button-response","479","596424","0.0-13.0-0.140","19","Low_HMMActual","","","","","","1466.1549995653331","","","","Images/NewTrialWC.png","","2"
"image-button-response","480","596731","0.0-13.0-1.140","19","Low_HMMActual","","","","","","null","","","","Images/WhiteBeadChoice.png","","null"
"image-button-response","481","597237","0.0-13.0-2.140","19","Low_HMMActual","","","","","","null","","","","Images/WhiteBeadChoiceCorrect.png","","null"
"image-button-response","482","597825","0.0-13.0-0.141","19","Low_HMMActual","","","","","","580.3999998606741","","","","Images/NewTrialWC.png","","2"
"image-button-response","483","598137","0.0-13.0-1.141","19","Low_HMMActual","","","","","","null","","","","Images/WhiteBeadChoice.png","","null"
"image-button-response","484","598642","0.0-13.0-2.141","19","Low_HMMActual","","","","","","485.2399998344481","","","","Images/WhiteBeadChoiceCorrect.png","","2"
"image-button-response","485","599090","0.0-13.0-0.142","19","Low_HMMActual","","","","","","439.19000029563904","","","","Images/NewTrialWC.png","","2"
"image-button-response","486","599397","0.0-13.0-1.142","19","Low_HMMActual","","","","","","null","","","","Images/WhiteBeadChoice.png","","null"
"image-button-response","487","599901","0.0-13.0-2.142","19","Low_HMMActual","","","","","","null","","","","Images/WhiteBeadChoiceWrong.png","","null"
"image-button-response","488","600593","0.0-13.0-0.143","19","Low_HMMActual","","","","","","686.514999717474","","","","Images/NewTrialBC.png","","0"
"image-button-response","489","600900","0.0-13.0-1.143","19","Low_HMMActual","","","","","","null","","","","Images/BlackBeadChoice.png","","null"
"image-button-response","490","601405","0.0-13.0-2.143","19","Low_HMMActual","","","","","","null","","","","Images/BlackBeadChoiceWrong.png","","null"
"image-button-response","491","602419","0.0-13.0-0.144","19","Low_HMMActual","","","","","","1006.1300001107156","","","","Images/NewTrialWC.png","","2"
"image-button-response","492","602725","0.0-13.0-1.144","19","Low_HMMActual","","","","","","null","","","","Images/WhiteBeadChoice.png","","null"
"image-button-response","493","603235","0.0-13.0-2.144","19","Low_HMMActual","","","","","","null","","","","Images/WhiteBeadChoiceCorrect.png","","null"
"image-button-response","494","603797","0.0-13.0-0.145","19","Low_HMMActual","","","","","","554.0000000037253","","","","Images/NewTrialWC.png","","2"
"image-button-response","495","604102","0.0-13.0-1.145","19","Low_HMMActual","","","","","","null","","","","Images/WhiteBeadChoice.png","","null"
"image-button-response","496","604609","0.0-13.0-2.145","19","Low_HMMActual","","","","","","441.32000021636486","","","","Images/WhiteBeadChoiceCorrect.png","","2"
"image-button-response","497","605170","0.0-13.0-0.146","19","Low_HMMActual","","","","","","507.85499997437","","","","Images/NewTrialWC.png","","2"
"image-button-response","498","605476","0.0-13.0-1.146","19","Low_HMMActual","","","","","","null","","","","Images/WhiteBeadChoice.png","","null"
"image-button-response","499","605982","0.0-13.0-2.146","19","Low_HMMActual","","","","","","null","","","","Images/WhiteBeadChoiceWrong.png","","null"
"image-button-response","500","606776","0.0-13.0-0.147","19","Low_HMMActual","","","","","","787.3700000345707","","","","Images/NewTrialBC.png","","0"
"image-button-response","501","607081","0.0-13.0-1.147","19","Low_HMMActual","","","","","","null","","","","Images/BlackBeadChoice.png","","null"
"image-button-response","502","607591","0.0-13.0-2.147","19","Low_HMMActual","","","","","","null","","","","Images/BlackBeadChoiceWrong.png","","null"
"image-button-response","503","608599","0.0-13.0-0.148","19","Low_HMMActual","","","","","","1001.1200001463294","","","","Images/NewTrialWC.png","","2"
"image-button-response","504","608905","0.0-13.0-1.148","19","Low_HMMActual","","","","","","null","","","","Images/WhiteBeadChoice.png","","null"
"image-button-response","505","609411","0.0-13.0-2.148","19","Low_HMMActual","","","","","","452.51999981701374","","","","Images/WhiteBeadChoiceCorrect.png","","2"
"image-button-response","506","610154","0.0-13.0-0.149","19","Low_HMMActual","","","","","","734.5300000160933","","","","Images/NewTrialWC.png","","2"
"image-button-response","507","610461","0.0-13.0-1.149","19","Low_HMMActual","","","","","","null","","","","Images/WhiteBeadChoice.png","","null"
"image-button-response","508","610966","0.0-13.0-2.149","19","Low_HMMActual","","","","","","null","","","","Images/WhiteBeadChoiceWrong.png","","null"
"image-button-response","509","611917","0.0-13.0-0.150","19","Low_HMMActual","","","","","","944.8400000110269","","","","Images/NewTrialBC.png","","0"
"image-button-response","510","612223","0.0-13.0-1.150","19","Low_HMMActual","","","","","","null","","","","Images/BlackBeadChoice.png","","null"
"image-button-response","511","612728","0.0-13.0-2.150","19","Low_HMMActual","","","","","","null","","","","Images/BlackBeadChoiceWrong.png","","null"
"image-button-response","512","613692","0.0-13.0-0.151","19","Low_HMMActual","","","","","","949.1599998436868","","","","Images/NewTrialWC.png","","2"
"image-button-response","513","613999","0.0-13.0-1.151","19","Low_HMMActual","","","","","","null","","","","Images/WhiteBeadChoice.png","","null"
"image-button-response","514","614505","0.0-13.0-2.151","19","Low_HMMActual","","","","","","null","","","","Images/WhiteBeadChoiceCorrect.png","","null"
"image-button-response","515","615113","0.0-13.0-0.152","19","Low_HMMActual","","","","","","596.9250001944602","","","","Images/NewTrialWC.png","","2"
"image-button-response","516","615421","0.0-13.0-1.152","19","Low_HMMActual","","","","","","null","","","","Images/WhiteBeadChoice.png","","null"
"image-button-response","517","615926","0.0-13.0-2.152","19","Low_HMMActual","","","","","","null","","","","Images/WhiteBeadChoiceCorrect.png","","null"
"image-button-response","518","616472","0.0-13.0-0.153","19","Low_HMMActual","","","","","","536.7800001986325","","","","Images/NewTrialWC.png","","0"
"image-button-response","519","616779","0.0-13.0-1.153","19","Low_HMMActual","","","","","","null","","","","Images/BlackBeadChoice.png","","null"
"image-button-response","520","617283","0.0-13.0-2.153","19","Low_HMMActual","","","","","","null","","","","Images/BlackBeadChoiceWrong.png","","null"
"image-button-response","521","617638","0.0-13.0-0.154","19","Low_HMMActual","","","","","","347.96000039204955","","","","Images/NewTrialWC.png","","0"
"image-button-response","522","617950","0.0-13.0-1.154","19","Low_HMMActual","","","","","","null","","","","Images/BlackBeadChoice.png","","null"
"image-button-response","523","618456","0.0-13.0-2.154","19","Low_HMMActual","","","","","","null","","","","Images/BlackBeadChoiceWrong.png","","null"
"image-button-response","524","619646","0.0-13.0-0.155","19","Low_HMMActual","","","","","","1183.614999987185","","","","Images/NewTrialWC.png","","2"
"image-button-response","525","619953","0.0-13.0-1.155","19","Low_HMMActual","","","","","","null","","","","Images/WhiteBeadChoice.png","","null"
"image-button-response","526","620458","0.0-13.0-2.155","19","Low_HMMActual","","","","","","null","","","","Images/WhiteBeadChoiceWrong.png","","null"
"image-button-response","527","620935","0.0-13.0-0.156","19","Low_HMMActual","","","","","","470.97499994561076","","","","Images/NewTrialBC.png","","0"
"image-button-response","528","621241","0.0-13.0-1.156","19","Low_HMMActual","","","","","","null","","","","Images/BlackBeadChoice.png","","null"
"image-button-response","529","621748","0.0-13.0-2.156","19","Low_HMMActual","","","","","","null","","","","Images/BlackBeadChoiceCorrect.png","","null"
"image-button-response","530","622274","0.0-13.0-0.157","19","Low_HMMActual","","","","","","509.1150002554059","","","","Images/NewTrialBC.png","","0"
"image-button-response","531","622580","0.0-13.0-1.157","19","Low_HMMActual","","","","","","null","","","","Images/BlackBeadChoice.png","","null"
"image-button-response","532","623087","0.0-13.0-2.157","19","Low_HMMActual","","","","","","395.94999980181456","","","","Images/BlackBeadChoiceCorrect.png","","0"
"image-button-response","533","623347","0.0-13.0-0.158","19","Low_HMMActual","","","","","","253.14499996602535","","","","Images/NewTrialBC.png","","0"
"image-button-response","534","623654","0.0-13.0-1.158","19","Low_HMMActual","","","","","","null","","","","Images/BlackBeadChoice.png","","null"
"image-button-response","535","624159","0.0-13.0-2.158","19","Low_HMMActual","","","","","","null","","","","Images/BlackBeadChoiceCorrect.png","","null"
"image-button-response","536","624333","0.0-13.0-0.159","19","Low_HMMActual","","","","","","166.4800001308322","","","","Images/NewTrialBC.png","","0"
"image-button-response","537","624640","0.0-13.0-1.159","19","Low_HMMActual","","","","","","281.4699998125434","","","","Images/BlackBeadChoice.png","","0"
"image-button-response","538","625147","0.0-13.0-2.159","19","Low_HMMActual","","","","","","null","","","","Images/BlackBeadChoiceCorrect.png","","null"
"image-button-response","539","625752","0.0-13.0-0.160","19","Low_HMMActual","","","","","","596.9449998810887","","","","Images/NewTrialBC.png","","0"
"image-button-response","540","626064","0.0-13.0-1.160","19","Low_HMMActual","","","","","","null","","","","Images/BlackBeadChoice.png","","null"
"image-button-response","541","626569","0.0-13.0-2.160","19","Low_HMMActual","","","","","","459.90499993786216","","","","Images/BlackBeadChoiceCorrect.png","","0"
"image-button-response","542","626798","0.0-13.0-0.161","19","Low_HMMActual","","","","","","219.40999990329146","","","","Images/NewTrialBC.png","","0"
"image-button-response","543","627104","0.0-13.0-1.161","19","Low_HMMActual","","","","","","null","","","","Images/BlackBeadChoice.png","","null"
"image-button-response","544","627651","0.0-13.0-2.161","19","Low_HMMActual","","","","","","null","","","","Images/BlackBeadChoiceWrong.png","","null"
"image-button-response","545","628669","0.0-13.0-0.162","19","Low_HMMActual","","","","","","1011.0949999652803","","","","Images/NewTrialWC.png","","2"
"image-button-response","546","628976","0.0-13.0-1.162","19","Low_HMMActual","","","","","","null","","","","Images/WhiteBeadChoice.png","","null"
"image-button-response","547","629481","0.0-13.0-2.162","19","Low_HMMActual","","","","","","null","","","","Images/WhiteBeadChoiceCorrect.png","","null"
"image-button-response","548","630059","0.0-13.0-0.163","19","Low_HMMActual","","","","","","568.2500000111759","","","","Images/NewTrialWC.png","","2"
"image-button-response","549","630374","0.0-13.0-1.163","19","Low_HMMActual","","","","","","null","","","","Images/WhiteBeadChoice.png","","null"
"image-button-response","550","630881","0.0-13.0-2.163","19","Low_HMMActual","","","","","","null","","","","Images/WhiteBeadChoiceCorrect.png","","null"
"image-button-response","551","631189","0.0-13.0-0.164","19","Low_HMMActual","","","","","","300.21500028669834","","","","Images/NewTrialWC.png","","2"
"image-button-response","552","631496","0.0-13.0-1.164","19","Low_HMMActual","","","","","","null","","","","Images/WhiteBeadChoice.png","","null"
"image-button-response","553","632004","0.0-13.0-2.164","19","Low_HMMActual","","","","","","497.3100000061095","","","","Images/WhiteBeadChoiceCorrect.png","","2"
"image-button-response","554","632230","0.0-13.0-0.165","19","Low_HMMActual","","","","","","216.86500031501055","","","","Images/NewTrialWC.png","","2"
"image-button-response","555","632537","0.0-13.0-1.165","19","Low_HMMActual","","","","","","null","","","","Images/WhiteBeadChoice.png","","null"
"image-button-response","556","633045","0.0-13.0-2.165","19","Low_HMMActual","","","","","","463.5149999521673","","","","Images/WhiteBeadChoiceCorrect.png","","2"
"image-button-response","557","633203","0.0-13.0-0.166","19","Low_HMMActual","","","","","","143.6999998986721","","","","Images/NewTrialWC.png","","2"
"image-button-response","558","633510","0.0-13.0-1.166","19","Low_HMMActual","","","","","","null","","","","Images/WhiteBeadChoice.png","","null"
"image-button-response","559","634017","0.0-13.0-2.166","19","Low_HMMActual","","","","","","411.38500021770597","","","","Images/WhiteBeadChoiceCorrect.png","","2"
"image-button-response","560","634496","0.0-13.0-0.167","19","Low_HMMActual","","","","","","470.0450003147125","","","","Images/NewTrialWC.png","","2"
"image-button-response","561","634802","0.0-13.0-1.167","19","Low_HMMActual","","","","","","null","","","","Images/WhiteBeadChoice.png","","null"
"image-button-response","562","635307","0.0-13.0-2.167","19","Low_HMMActual","","","","","","417.42000030353665","","","","Images/WhiteBeadChoiceCorrect.png","","2"
"image-button-response","563","635534","0.0-13.0-0.168","19","Low_HMMActual","","","","","","218.16000016406178","","","","Images/NewTrialWC.png","","2"
"image-button-response","564","635842","0.0-13.0-1.168","19","Low_HMMActual","","","","","","null","","","","Images/WhiteBeadChoice.png","","null"
"image-button-response","565","636349","0.0-13.0-2.168","19","Low_HMMActual","","","","","","null","","","","Images/WhiteBeadChoiceWrong.png","","null"
"image-button-response","566","636833","0.0-13.0-0.169","19","Low_HMMActual","","","","","","477.57000010460615","","","","Images/NewTrialBC.png","","0"
"image-button-response","567","637147","0.0-13.0-1.169","19","Low_HMMActual","","","","","","217.25000021979213","","","","Images/BlackBeadChoice.png","","0"
"image-button-response","568","637653","0.0-13.0-2.169","19","Low_HMMActual","","","","","","421.97500029578805","","","","Images/BlackBeadChoiceWrong.png","","0"
"image-button-response","569","639155","0.0-13.0-0.170","19","Low_HMMActual","","","","","","1495.0299998745322","","","","Images/NewTrialWC.png","","1"
"image-button-response","570","639463","0.0-13.0-1.170","19","Low_HMMActual","","","","","","188.3399998769164","","","","Images/BlackBeadChoice.png","","1"
"image-button-response","571","640016","0.0-13.0-2.170","19","Low_HMMActual","","","","","","null","","","","Images/BlackBeadChoiceWrong.png","","null"
"image-button-response","572","640495","0.0-13.0-0.171","19","Low_HMMActual","","","","","","468.53999979794025","","","","Images/NewTrialWC.png","","3"
"image-button-response","573","640800","0.0-13.0-1.171","19","Low_HMMActual","","","","","","212.82000001519918","","","","Images/WhiteBeadChoice.png","","3"
"image-button-response","574","641312","0.0-13.0-2.171","19","Low_HMMActual","","","","","","421.9900001771748","","","","Images/WhiteBeadChoiceCorrect.png","","2"
"image-button-response","575","641490","0.0-13.0-0.172","19","Low_HMMActual","","","","","","157.80499996617436","","","","Images/NewTrialWC.png","","2"
"image-button-response","576","641797","0.0-13.0-1.172","19","Low_HMMActual","","","","","","null","","","","Images/WhiteBeadChoice.png","","null"
"image-button-response","577","642304","0.0-13.0-2.172","19","Low_HMMActual","","","","","","null","","","","Images/WhiteBeadChoiceCorrect.png","","null"
"image-button-response","578","648083","0.0-13.0-0.173","19","Low_HMMActual","","","","","","5770.5099997110665","","","","Images/NewTrialWC.png","","2"
"image-button-response","579","648393","0.0-13.0-1.173","19","Low_HMMActual","","","","","","null","","","","Images/WhiteBeadChoice.png","","null"
"image-button-response","580","648899","0.0-13.0-2.173","19","Low_HMMActual","","","","","","325.59499982744455","","","","Images/WhiteBeadChoiceCorrect.png","","2"
"image-button-response","581","649186","0.0-13.0-0.174","19","Low_HMMActual","","","","","","232.05000022426248","","","","Images/NewTrialWC.png","","2"
"image-button-response","582","649493","0.0-13.0-1.174","19","Low_HMMActual","","","","","","null","","","","Images/WhiteBeadChoice.png","","null"
"image-button-response","583","649999","0.0-13.0-2.174","19","Low_HMMActual","","","","","","428.56500018388033","","","","Images/WhiteBeadChoiceCorrect.png","","2"
"image-button-response","584","650233","0.0-13.0-0.175","19","Low_HMMActual","","","","","","223.91000017523766","","","","Images/NewTrialWC.png","","2"
"image-button-response","585","650547","0.0-13.0-1.175","19","Low_HMMActual","","","","","","null","","","","Images/WhiteBeadChoice.png","","null"
"image-button-response","586","651051","0.0-13.0-2.175","19","Low_HMMActual","","","","","","null","","","","Images/WhiteBeadChoiceWrong.png","","null"
"image-button-response","587","663337","0.0-13.0-0.176","19","Low_HMMActual","","","","","","12281.320000067353","","","","Images/NewTrialBC.png","","0"
"image-button-response","588","663643","0.0-13.0-1.176","19","Low_HMMActual","","","","","","null","","","","Images/BlackBeadChoice.png","","null"
"image-button-response","589","664147","0.0-13.0-2.176","19","Low_HMMActual","","","","","","443.7099997885525","","","","Images/BlackBeadChoiceCorrect.png","","0"
"image-button-response","590","664494","0.0-13.0-0.177","19","Low_HMMActual","","","","","","338.7799998745322","","","","Images/NewTrialBC.png","","0"
"image-button-response","591","664802","0.0-13.0-1.177","19","Low_HMMActual","","","","","","null","","","","Images/BlackBeadChoice.png","","null"
"image-button-response","592","665309","0.0-13.0-2.177","19","Low_HMMActual","","","","","","null","","","","Images/BlackBeadChoiceCorrect.png","","null"
"image-button-response","593","665480","0.0-13.0-0.178","19","Low_HMMActual","","","","","","163.06499997153878","","","","Images/NewTrialBC.png","","0"
"image-button-response","594","665794","0.0-13.0-1.178","19","Low_HMMActual","","","","","","null","","","","Images/BlackBeadChoice.png","","null"
"image-button-response","595","666298","0.0-13.0-2.178","19","Low_HMMActual","","","","","","null","","","","Images/BlackBeadChoiceWrong.png","","null"
"image-button-response","596","667948","0.0-13.0-0.179","19","Low_HMMActual","","","","","","1643.4100000187755","","","","Images/NewTrialWC.png","","2"
"image-button-response","597","668254","0.0-13.0-1.179","19","Low_HMMActual","","","","","","null","","","","Images/WhiteBeadChoice.png","","null"
"image-button-response","598","668758","0.0-13.0-2.179","19","Low_HMMActual","","","","","","null","","","","Images/WhiteBeadChoiceWrong.png","","null"
"image-button-response","599","669577","0.0-13.0-0.180","19","Low_HMMActual","","","","","","812.8349999897182","","","","Images/NewTrialBC.png","","0"
"image-button-response","600","669884","0.0-13.0-1.180","19","Low_HMMActual","","","","","","null","","","","Images/BlackBeadChoice.png","","null"
"image-button-response","601","670390","0.0-13.0-2.180","19","Low_HMMActual","","","","","","null","","","","Images/BlackBeadChoiceCorrect.png","","null"
"image-button-response","602","670646","0.0-13.0-0.181","19","Low_HMMActual","","","","","","247.70000018179417","","","","Images/NewTrialBC.png","","0"
"image-button-response","603","670960","0.0-13.0-1.181","19","Low_HMMActual","","","","","","168.73499983921647","","","","Images/BlackBeadChoice.png","","0"
"image-button-response","604","671467","0.0-13.0-2.181","19","Low_HMMActual","","","","","","468.79500010982156","","","","Images/BlackBeadChoiceCorrect.png","","0"
"image-button-response","605","672052","0.0-13.0-0.182","19","Low_HMMActual","","","","","","577.4050001055002","","","","Images/NewTrialBC.png","","0"
"image-button-response","606","672358","0.0-13.0-1.182","19","Low_HMMActual","","","","","","null","","","","Images/BlackBeadChoice.png","","null"
"image-button-response","607","672864","0.0-13.0-2.182","19","Low_HMMActual","","","","","","429.38499990850687","","","","Images/BlackBeadChoiceCorrect.png","","0"
"image-button-response","608","673255","0.0-13.0-0.183","19","Low_HMMActual","","","","","","383.67999996989965","","","","Images/NewTrialBC.png","","0"
"image-button-response","609","673563","0.0-13.0-1.183","19","Low_HMMActual","","","","","","null","","","","Images/BlackBeadChoice.png","","null"
"image-button-response","610","674068","0.0-13.0-2.183","19","Low_HMMActual","","","","","","467.7149998024106","","","","Images/BlackBeadChoiceCorrect.png","","0"
"image-button-response","611","674397","0.0-13.0-0.184","19","Low_HMMActual","","","","","","320.1849996112287","","","","Images/NewTrialBC.png","","0"
"image-button-response","612","674708","0.0-13.0-1.184","19","Low_HMMActual","","","","","","null","","","","Images/BlackBeadChoice.png","","null"
"image-button-response","613","675220","0.0-13.0-2.184","19","Low_HMMActual","","","","","","418.20499999448657","","","","Images/BlackBeadChoiceCorrect.png","","0"
"image-button-response","614","675744","0.0-13.0-0.185","19","Low_HMMActual","","","","","","515.7950003631413","","","","Images/NewTrialBC.png","","0"
"image-button-response","615","676050","0.0-13.0-1.185","19","Low_HMMActual","","","","","","null","","","","Images/BlackBeadChoice.png","","null"
"image-button-response","616","676555","0.0-13.0-2.185","19","Low_HMMActual","","","","","","null","","","","Images/BlackBeadChoiceCorrect.png","","null"
"image-button-response","617","677461","0.0-13.0-0.186","19","Low_HMMActual","","","","","","896.1799996905029","","","","Images/NewTrialBC.png","","1"
"image-button-response","618","677768","0.0-13.0-1.186","19","Low_HMMActual","","","","","","null","","","","Images/BlackBeadChoice.png","","null"
"image-button-response","619","678277","0.0-13.0-2.186","19","Low_HMMActual","","","","","","null","","","","Images/BlackBeadChoiceCorrect.png","","null"
"image-button-response","620","678806","0.0-13.0-0.187","19","Low_HMMActual","","","","","","518.974999897182","","","","Images/NewTrialBC.png","","0"
"image-button-response","621","679120","0.0-13.0-1.187","19","Low_HMMActual","","","","","","null","","","","Images/BlackBeadChoice.png","","null"
"image-button-response","622","679624","0.0-13.0-2.187","19","Low_HMMActual","","","","","","null","","","","Images/BlackBeadChoiceWrong.png","","null"
"image-button-response","623","680243","0.0-13.0-0.188","19","Low_HMMActual","","","","","","609.8899999633431","","","","Images/NewTrialWC.png","","2"
"image-button-response","624","680549","0.0-13.0-1.188","19","Low_HMMActual","","","","","","272.1600001677871","","","","Images/WhiteBeadChoice.png","","2"
"image-button-response","625","681054","0.0-13.0-2.188","19","Low_HMMActual","","","","","","356.4399997703731","","","","Images/WhiteBeadChoiceCorrect.png","","2"
"image-button-response","626","681253","0.0-13.0-0.189","19","Low_HMMActual","","","","","","142.23500015214086","","","","Images/NewTrialWC.png","","2"
"image-button-response","627","681559","0.0-13.0-1.189","19","Low_HMMActual","","","","","","294.0850001759827","","","","Images/WhiteBeadChoice.png","","2"
"image-button-response","628","682067","0.0-13.0-2.189","19","Low_HMMActual","","","","","","199.3550001643598","","","","Images/WhiteBeadChoiceCorrect.png","","2"
"image-button-response","629","682629","0.0-13.0-0.190","19","Low_HMMActual","","","","","","552.1999998018146","","","","Images/NewTrialWC.png","","2"
"image-button-response","630","682935","0.0-13.0-1.190","19","Low_HMMActual","","","","","","null","","","","Images/WhiteBeadChoice.png","","null"
"image-button-response","631","683447","0.0-13.0-2.190","19","Low_HMMActual","","","","","","449.59500012919307","","","","Images/WhiteBeadChoiceCorrect.png","","2"
"image-button-response","632","684018","0.0-13.0-0.191","19","Low_HMMActual","","","","","","562.4799998477101","","","","Images/NewTrialWC.png","","2"
"image-button-response","633","684327","0.0-13.0-1.191","19","Low_HMMActual","","","","","","null","","","","Images/WhiteBeadChoice.png","","null"
"image-button-response","634","684833","0.0-13.0-2.191","19","Low_HMMActual","","","","","","null","","","","Images/WhiteBeadChoiceCorrect.png","","null"
"image-button-response","635","685018","0.0-13.0-0.192","19","Low_HMMActual","","","","","","176.52500001713634","","","","Images/NewTrialWC.png","","2"
"image-button-response","636","685325","0.0-13.0-1.192","19","Low_HMMActual","","","","","","null","","","","Images/WhiteBeadChoice.png","","null"
"image-button-response","637","685834","0.0-13.0-2.192","19","Low_HMMActual","","","","","","null","","","","Images/WhiteBeadChoiceCorrect.png","","null"
"image-button-response","638","686997","0.0-13.0-0.193","19","Low_HMMActual","","","","","","1154.2050000280142","","","","Images/NewTrialWC.png","","2"
"image-button-response","639","687310","0.0-13.0-1.193","19","Low_HMMActual","","","","","","null","","","","Images/WhiteBeadChoice.png","","null"
"image-button-response","640","687817","0.0-13.0-2.193","19","Low_HMMActual","","","","","","null","","","","Images/WhiteBeadChoiceCorrect.png","","null"
"image-button-response","641","688549","0.0-13.0-0.194","19","Low_HMMActual","","","","","","723.8449999131262","","","","Images/NewTrialWC.png","","2"
"image-button-response","642","688855","0.0-13.0-1.194","19","Low_HMMActual","","","","","","null","","","","Images/WhiteBeadChoice.png","","null"
"image-button-response","643","689361","0.0-13.0-2.194","19","Low_HMMActual","","","","","","491.8599999509752","","","","Images/WhiteBeadChoiceCorrect.png","","2"
"image-button-response","644","689570","0.0-13.0-0.195","19","Low_HMMActual","","","","","","199.59000032395124","","","","Images/NewTrialWC.png","","2"
"image-button-response","645","689877","0.0-13.0-1.195","19","Low_HMMActual","","","","","","null","","","","Images/WhiteBeadChoice.png","","null"
"image-button-response","646","690386","0.0-13.0-2.195","19","Low_HMMActual","","","","","","null","","","","Images/WhiteBeadChoiceCorrect.png","","null"
"image-button-response","647","690684","0.0-13.0-0.196","19","Low_HMMActual","","","","","","289.0399997122586","","","","Images/NewTrialWC.png","","2"
"image-button-response","648","690997","0.0-13.0-1.196","19","Low_HMMActual","","","","","","null","","","","Images/WhiteBeadChoice.png","","null"
"image-button-response","649","691502","0.0-13.0-2.196","19","Low_HMMActual","","","","","","458.8249996304512","","","","Images/WhiteBeadChoiceCorrect.png","","2"
"image-button-response","650","691774","0.0-13.0-0.197","19","Low_HMMActual","","","","","","264.4999995827675","","","","Images/NewTrialWC.png","","2"
"image-button-response","651","692081","0.0-13.0-1.197","19","Low_HMMActual","","","","","","null","","","","Images/WhiteBeadChoice.png","","null"
"image-button-response","652","692585","0.0-13.0-2.197","19","Low_HMMActual","","","","","","381.41999999061227","","","","Images/WhiteBeadChoiceCorrect.png","","2"
"image-button-response","653","692735","0.0-13.0-0.198","19","Low_HMMActual","","","","","","95.3999999910593","","","","Images/NewTrialWC.png","","2"
"image-button-response","654","693041","0.0-13.0-1.198","19","Low_HMMActual","","","","","","null","","","","Images/WhiteBeadChoice.png","","null"
"image-button-response","655","693547","0.0-13.0-2.198","19","Low_HMMActual","","","","","","null","","","","Images/WhiteBeadChoiceWrong.png","","null"
"image-button-response","656","694605","0.0-13.0-0.199","19","Low_HMMActual","","","","","","1051.285000052303","","","","Images/NewTrialBC.png","","0"
"image-button-response","657","694912","0.0-13.0-1.199","19","Low_HMMActual","","","","","","174.44999981671572","","","","Images/BlackBeadChoice.png","","0"
"image-button-response","658","695428","0.0-13.0-2.199","19","Low_HMMActual","","","","","","null","","","","Images/BlackBeadChoiceWrong.png","","null"
