"trial_type","trial_index","time_elapsed","internal_node_id","Script_Picker","Block_Type","success","timeout","failed_images","failed_audio","failed_video","rt","url","responses","question_order","stimulus","key_press","response"
"pavlovia","0","10","0.0-0.0","17","Low_HMMActual","","","","","","","","","","","",""
"preload","1","12","0.0-1.0","17","Low_HMMActual","true","false","[]","[]","[]","","","","","","",""
"external-html","2","22800","0.0-2.0-0.0","17","Low_HMMActual","","","","","","22671.200000047684","consent.html","","","","",""
"survey-multi-choice","3","28745","0.0-2.0-1.0","17","Low_HMMActual","","","","","","5942.699999928474","","{""Q0"":""Female"",""Q1"":""White""}","[0,1]","","",""
"survey-text","4","31842","0.0-2.0-2.0","17","Low_HMMActual","","","","","","3092.399999976158","","{""Q0"":""20""}","","","",""
"survey-text","5","34261","0.0-2.0-3.0","17","Low_HMMActual","","","","","","2311.2999999523163","","{""Q0"":""60fee335efe61e35ac985549""}","","","",""
"image-keyboard-response","6","55285","0.0-3.0-0.0","17","Low_HMMActual","","","","","","20920.799999952316","","","","tutorial/tutorial1.png"," ",""
"image-keyboard-response","7","63098","0.0-3.0-0.1","17","Low_HMMActual","","","","","","7812.600000023842","","","","tutorial/tutorial2.png"," ",""
"image-keyboard-response","8","67513","0.0-3.0-0.2","17","Low_HMMActual","","","","","","4413.300000071526","","","","tutorial/tutorial3.png"," ",""
"image-keyboard-response","9","69934","0.0-3.0-0.3","17","Low_HMMActual","","","","","","2420.399999976158","","","","tutorial/tutorial4.png"," ",""
"image-keyboard-response","10","72224","0.0-3.0-0.4","17","Low_HMMActual","","","","","","2288.7999999523163","","","","tutorial/tutorial5.png"," ",""
"image-keyboard-response","11","82141","0.0-3.0-0.5","17","Low_HMMActual","","","","","","9916.600000023842","","","","tutorial/tutorial6.png"," ",""
"image-keyboard-response","12","88445","0.0-3.0-0.6","17","Low_HMMActual","","","","","","6303.399999976158","","","","tutorial/tutorial7.png"," ",""
"image-keyboard-response","13","111165","0.0-3.0-0.7","17","Low_HMMActual","","","","","","22718.400000095367","","","","tutorial/tutorial8.png"," ",""
"image-keyboard-response","14","118951","0.0-3.0-0.8","17","Low_HMMActual","","","","","","7785.199999928474","","","","tutorial/tutorial9.png"," ",""
"image-keyboard-response","15","129541","0.0-3.0-0.9","17","Low_HMMActual","","","","","","10589.300000071526","","","","tutorial/tutorial10.png"," ",""
"image-keyboard-response","16","134909","0.0-3.0-0.10","17","Low_HMMActual","","","","","","5366.899999976158","","","","tutorial/tutorial11.png"," ",""
"image-keyboard-response","17","138023","0.0-3.0-0.11","17","Low_HMMActual","","","","","","3113.399999976158","","","","tutorial/tutorial12.png"," ",""
"image-keyboard-response","18","152205","0.0-3.0-0.12","17","Low_HMMActual","","","","","","14180.400000095367","","","","tutorial/tutorial13.png"," ",""
"image-keyboard-response","19","166272","0.0-3.0-0.13","17","Low_HMMActual","","","","","","14065.899999976158","","","","tutorial/tutorial14.png"," ",""
"image-keyboard-response","20","169400","0.0-3.0-0.14","17","Low_HMMActual","","","","","","3127.5999999046326","","","","tutorial/tutorial15.png"," ",""
"image-keyboard-response","21","173685","0.0-4.0","17","Low_HMMActual","","","","","","4284.799999952316","","","","tutorial/tutorial16.png","arrowup",""
"image-keyboard-response","22","179713","0.0-5.0","17","Low_HMMActual","","","","","","3737","","","","tutorial/tutorial17.png","arrowright",""
"image-keyboard-response","23","183262","0.0-6.0","17","Low_HMMActual","","","","","","2325.7000000476837","","","","tutorial/tutorial18.png","arrowleft",""
"image-keyboard-response","24","201825","0.0-7.0","17","Low_HMMActual","","","","","","17872.899999976158","","","","tutorial/tutorial19.png"," ",""
"html-keyboard-response","25","207534","0.0-8.0","18","Low_HMMActual","","","","","","5706.399999976158","","","","<div class=""container"" style=""height:800px;width:800px;display:flex;flex-direction:column;justify-content:center;align-items:center;text-align:center;font-weight:normal;font-family:Arial;font-size:20px""><p>Loading episode&hellip;</p><div>"," ",""
"image-button-response","26","219762","0.0-9.0-0.0","18","Low_HMMActual","","","","","","12223.5","","","","Images/NoChoice.png","","0"
"image-button-response","27","220064","0.0-9.0-1.0","18","Low_HMMActual","","","","","","null","","","","Images/BlackBeadChoice.png","","null"
"image-button-response","28","220571","0.0-9.0-2.0","18","Low_HMMActual","","","","","","null","","","","Images/BlackBeadChoiceWrong.png","","null"
"image-button-response","29","224789","0.0-9.0-0.1","18","Low_HMMActual","","","","","","4216.200000047684","","","","Images/NewTrialWC.png","","2"
"image-button-response","30","225094","0.0-9.0-1.1","18","Low_HMMActual","","","","","","null","","","","Images/WhiteBeadChoice.png","","null"
"image-button-response","31","225599","0.0-9.0-2.1","18","Low_HMMActual","","","","","","null","","","","Images/WhiteBeadChoiceCorrect.png","","null"
"image-button-response","32","228131","0.0-9.0-0.2","18","Low_HMMActual","","","","","","2529.600000023842","","","","Images/NewTrialWC.png","","2"
"image-button-response","33","228434","0.0-9.0-1.2","18","Low_HMMActual","","","","","","null","","","","Images/WhiteBeadChoice.png","","null"
"image-button-response","34","228941","0.0-9.0-2.2","18","Low_HMMActual","","","","","","null","","","","Images/WhiteBeadChoiceCorrect.png","","null"
"image-button-response","35","234847","0.0-9.0-0.3","18","Low_HMMActual","","","","","","5902.799999952316","","","","Images/NewTrialWC.png","","3"
"image-button-response","36","235153","0.0-9.0-1.3","18","Low_HMMActual","","","","","","null","","","","Images/WhiteBeadChoice.png","","null"
"image-button-response","37","235658","0.0-9.0-2.3","18","Low_HMMActual","","","","","","null","","","","Images/WhiteBeadChoiceWrong.png","","null"
"image-button-response","38","239554","0.0-9.0-0.4","18","Low_HMMActual","","","","","","3893.399999976158","","","","Images/NewTrialBC.png","","0"
"image-button-response","39","239856","0.0-9.0-1.4","18","Low_HMMActual","","","","","","null","","","","Images/BlackBeadChoice.png","","null"
"image-button-response","40","240360","0.0-9.0-2.4","18","Low_HMMActual","","","","","","null","","","","Images/BlackBeadChoiceWrong.png","","null"
"image-button-response","41","242392","0.0-9.0-0.5","18","Low_HMMActual","","","","","","2029.7999999523163","","","","Images/NewTrialWC.png","","1"
"image-button-response","42","242694","0.0-9.0-1.5","18","Low_HMMActual","","","","","","null","","","","Images/BlackBeadChoice.png","","null"
"image-button-response","43","243199","0.0-9.0-2.5","18","Low_HMMActual","","","","","","null","","","","Images/BlackBeadChoiceWrong.png","","null"
"image-button-response","44","245870","0.0-9.0-0.6","18","Low_HMMActual","","","","","","2669.0999999046326","","","","Images/NewTrialWC.png","","2"
"image-button-response","45","246174","0.0-9.0-1.6","18","Low_HMMActual","","","","","","null","","","","Images/WhiteBeadChoice.png","","null"
"image-button-response","46","246681","0.0-9.0-2.6","18","Low_HMMActual","","","","","","null","","","","Images/WhiteBeadChoiceWrong.png","","null"
"image-button-response","47","248441","0.0-9.0-0.7","18","Low_HMMActual","","","","","","1759.1999999284744","","","","Images/NewTrialBC.png","","0"
"image-button-response","48","248743","0.0-9.0-1.7","18","Low_HMMActual","","","","","","null","","","","Images/BlackBeadChoice.png","","null"
"image-button-response","49","249248","0.0-9.0-2.7","18","Low_HMMActual","","","","","","null","","","","Images/BlackBeadChoiceWrong.png","","null"
"image-button-response","50","250909","0.0-9.0-0.8","18","Low_HMMActual","","","","","","1658.2999999523163","","","","Images/NewTrialWC.png","","3"
"image-button-response","51","251214","0.0-9.0-1.8","18","Low_HMMActual","","","","","","null","","","","Images/WhiteBeadChoice.png","","null"
"image-button-response","52","251720","0.0-9.0-2.8","18","Low_HMMActual","","","","","","null","","","","Images/WhiteBeadChoiceCorrect.png","","null"
"image-button-response","53","252793","0.0-9.0-0.9","18","Low_HMMActual","","","","","","1071.1000000238419","","","","Images/NewTrialWC.png","","3"
"image-button-response","54","253097","0.0-9.0-1.9","18","Low_HMMActual","","","","","","null","","","","Images/WhiteBeadChoice.png","","null"
"image-button-response","55","253599","0.0-9.0-2.9","18","Low_HMMActual","","","","","","null","","","","Images/WhiteBeadChoiceWrong.png","","null"
"html-keyboard-response","56","257195","0.0-10.0","18","Low_HMMActual","","","","","","3594.899999976158","","","",""," ",""
"image-keyboard-response","57","259593","0.0-11.0","18","Low_HMMActual","","","","","","2397","","","","tutorial/tutorial20.png"," ",""
"html-keyboard-response","58","264011","0.0-12.0","19","Low_HMMActual","","","","","","4415.899999976158","","","","<div class=""container"" style=""height:800px;width:800px;display:flex;flex-direction:column;justify-content:center;align-items:center;text-align:center;font-weight:normal;font-family:Arial;font-size:20px""><p>Loading episode&hellip;</p><div>"," ",""
"image-button-response","59","265720","0.0-13.0-0.0","19","Low_HMMActual","","","","","","1708.5","","","","Images/NoChoice.png","","1"
"image-button-response","60","266023","0.0-13.0-1.0","19","Low_HMMActual","","","","","","null","","","","Images/BlackBeadChoice.png","","null"
"image-button-response","61","266524","0.0-13.0-2.0","19","Low_HMMActual","","","","","","null","","","","Images/BlackBeadChoiceWrong.png","","null"
"image-button-response","62","268955","0.0-13.0-0.1","19","Low_HMMActual","","","","","","2429.100000023842","","","","Images/NewTrialWC.png","","2"
"image-button-response","63","269258","0.0-13.0-1.1","19","Low_HMMActual","","","","","","null","","","","Images/WhiteBeadChoice.png","","null"
"image-button-response","64","269763","0.0-13.0-2.1","19","Low_HMMActual","","","","","","null","","","","Images/WhiteBeadChoiceCorrect.png","","null"
"image-button-response","65","270500","0.0-13.0-0.2","19","Low_HMMActual","","","","","","735.1999999284744","","","","Images/NewTrialWC.png","","3"
"image-button-response","66","270804","0.0-13.0-1.2","19","Low_HMMActual","","","","","","null","","","","Images/WhiteBeadChoice.png","","null"
"image-button-response","67","271307","0.0-13.0-2.2","19","Low_HMMActual","","","","","","null","","","","Images/WhiteBeadChoiceCorrect.png","","null"
"image-button-response","68","273445","0.0-13.0-0.3","19","Low_HMMActual","","","","","","2135.7999999523163","","","","Images/NewTrialWC.png","","1"
"image-button-response","69","273751","0.0-13.0-1.3","19","Low_HMMActual","","","","","","null","","","","Images/BlackBeadChoice.png","","null"
"image-button-response","70","274255","0.0-13.0-2.3","19","Low_HMMActual","","","","","","null","","","","Images/BlackBeadChoiceWrong.png","","null"
"image-button-response","71","275224","0.0-13.0-0.4","19","Low_HMMActual","","","","","","967.1999999284744","","","","Images/NewTrialWC.png","","1"
"image-button-response","72","275530","0.0-13.0-1.4","19","Low_HMMActual","","","","","","null","","","","Images/BlackBeadChoice.png","","null"
"image-button-response","73","276034","0.0-13.0-2.4","19","Low_HMMActual","","","","","","null","","","","Images/BlackBeadChoiceWrong.png","","null"
"image-button-response","74","276794","0.0-13.0-0.5","19","Low_HMMActual","","","","","","757.3999999761581","","","","Images/NewTrialWC.png","","1"
"image-button-response","75","277108","0.0-13.0-1.5","19","Low_HMMActual","","","","","","null","","","","Images/BlackBeadChoice.png","","null"
"image-button-response","76","277611","0.0-13.0-2.5","19","Low_HMMActual","","","","","","null","","","","Images/BlackBeadChoiceCorrect.png","","null"
"image-button-response","77","278905","0.0-13.0-0.6","19","Low_HMMActual","","","","","","1292.2999999523163","","","","Images/NewTrialBC.png","","0"
"image-button-response","78","279211","0.0-13.0-1.6","19","Low_HMMActual","","","","","","null","","","","Images/BlackBeadChoice.png","","null"
"image-button-response","79","279714","0.0-13.0-2.6","19","Low_HMMActual","","","","","","null","","","","Images/BlackBeadChoiceCorrect.png","","null"
"image-button-response","80","280264","0.0-13.0-0.7","19","Low_HMMActual","","","","","","547.6999999284744","","","","Images/NewTrialBC.png","","0"
"image-button-response","81","280570","0.0-13.0-1.7","19","Low_HMMActual","","","","","","null","","","","Images/BlackBeadChoice.png","","null"
"image-button-response","82","281074","0.0-13.0-2.7","19","Low_HMMActual","","","","","","null","","","","Images/BlackBeadChoiceCorrect.png","","null"
"image-button-response","83","281825","0.0-13.0-0.8","19","Low_HMMActual","","","","","","749","","","","Images/NewTrialBC.png","","1"
"image-button-response","84","282132","0.0-13.0-1.8","19","Low_HMMActual","","","","","","null","","","","Images/BlackBeadChoice.png","","null"
"image-button-response","85","282634","0.0-13.0-2.8","19","Low_HMMActual","","","","","","null","","","","Images/BlackBeadChoiceCorrect.png","","null"
"image-button-response","86","283653","0.0-13.0-0.9","19","Low_HMMActual","","","","","","1016.5999999046326","","","","Images/NewTrialBC.png","","1"
"image-button-response","87","283960","0.0-13.0-1.9","19","Low_HMMActual","","","","","","null","","","","Images/BlackBeadChoice.png","","null"
"image-button-response","88","284464","0.0-13.0-2.9","19","Low_HMMActual","","","","","","null","","","","Images/BlackBeadChoiceCorrect.png","","null"
"image-button-response","89","285125","0.0-13.0-0.10","19","Low_HMMActual","","","","","","658.3000000715256","","","","Images/NewTrialBC.png","","1"
"image-button-response","90","285432","0.0-13.0-1.10","19","Low_HMMActual","","","","","","null","","","","Images/BlackBeadChoice.png","","null"
"image-button-response","91","285934","0.0-13.0-2.10","19","Low_HMMActual","","","","","","null","","","","Images/BlackBeadChoiceWrong.png","","null"
"image-button-response","92","287196","0.0-13.0-0.11","19","Low_HMMActual","","","","","","1260.6000000238419","","","","Images/NewTrialWC.png","","2"
"image-button-response","93","287503","0.0-13.0-1.11","19","Low_HMMActual","","","","","","null","","","","Images/WhiteBeadChoice.png","","null"
"image-button-response","94","288007","0.0-13.0-2.11","19","Low_HMMActual","","","","","","null","","","","Images/WhiteBeadChoiceWrong.png","","null"
"image-button-response","95","288652","0.0-13.0-0.12","19","Low_HMMActual","","","","","","642.6999999284744","","","","Images/NewTrialBC.png","","2"
"image-button-response","96","288955","0.0-13.0-1.12","19","Low_HMMActual","","","","","","null","","","","Images/WhiteBeadChoice.png","","null"
"image-button-response","97","289460","0.0-13.0-2.12","19","Low_HMMActual","","","","","","null","","","","Images/WhiteBeadChoiceCorrect.png","","null"
"image-button-response","98","290237","0.0-13.0-0.13","19","Low_HMMActual","","","","","","775.2000000476837","","","","Images/NewTrialWC.png","","2"
"image-button-response","99","290544","0.0-13.0-1.13","19","Low_HMMActual","","","","","","null","","","","Images/WhiteBeadChoice.png","","null"
"image-button-response","100","291051","0.0-13.0-2.13","19","Low_HMMActual","","","","","","null","","","","Images/WhiteBeadChoiceCorrect.png","","null"
"image-button-response","101","291435","0.0-13.0-0.14","19","Low_HMMActual","","","","","","382.2000000476837","","","","Images/NewTrialWC.png","","2"
"image-button-response","102","291741","0.0-13.0-1.14","19","Low_HMMActual","","","","","","null","","","","Images/WhiteBeadChoice.png","","null"
"image-button-response","103","292244","0.0-13.0-2.14","19","Low_HMMActual","","","","","","null","","","","Images/WhiteBeadChoiceCorrect.png","","null"
"image-button-response","104","292438","0.0-13.0-0.15","19","Low_HMMActual","","","","","","191.5","","","","Images/NewTrialWC.png","","2"
"image-button-response","105","292745","0.0-13.0-1.15","19","Low_HMMActual","","","","","","null","","","","Images/WhiteBeadChoice.png","","null"
"image-button-response","106","293251","0.0-13.0-2.15","19","Low_HMMActual","","","","","","null","","","","Images/WhiteBeadChoiceCorrect.png","","null"
"image-button-response","107","293748","0.0-13.0-0.16","19","Low_HMMActual","","","","","","495.6999999284744","","","","Images/NewTrialWC.png","","3"
"image-button-response","108","294055","0.0-13.0-1.16","19","Low_HMMActual","","","","","","null","","","","Images/WhiteBeadChoice.png","","null"
"image-button-response","109","294558","0.0-13.0-2.16","19","Low_HMMActual","","","","","","null","","","","Images/WhiteBeadChoiceWrong.png","","null"
"image-button-response","110","295722","0.0-13.0-0.17","19","Low_HMMActual","","","","","","1162","","","","Images/NewTrialBC.png","","0"
"image-button-response","111","296025","0.0-13.0-1.17","19","Low_HMMActual","","","","","","null","","","","Images/BlackBeadChoice.png","","null"
"image-button-response","112","296532","0.0-13.0-2.17","19","Low_HMMActual","","","","","","null","","","","Images/BlackBeadChoiceCorrect.png","","null"
"image-button-response","113","296855","0.0-13.0-0.18","19","Low_HMMActual","","","","","","321.2000000476837","","","","Images/NewTrialBC.png","","0"
"image-button-response","114","297160","0.0-13.0-1.18","19","Low_HMMActual","","","","","","null","","","","Images/BlackBeadChoice.png","","null"
"image-button-response","115","297665","0.0-13.0-2.18","19","Low_HMMActual","","","","","","null","","","","Images/BlackBeadChoiceCorrect.png","","null"
"image-button-response","116","298100","0.0-13.0-0.19","19","Low_HMMActual","","","","","","434.10000002384186","","","","Images/NewTrialBC.png","","1"
"image-button-response","117","298405","0.0-13.0-1.19","19","Low_HMMActual","","","","","","null","","","","Images/BlackBeadChoice.png","","null"
"image-button-response","118","298910","0.0-13.0-2.19","19","Low_HMMActual","","","","","","null","","","","Images/BlackBeadChoiceCorrect.png","","null"
"image-button-response","119","299047","0.0-13.0-0.20","19","Low_HMMActual","","","","","","125.19999992847443","","","","Images/NewTrialBC.png","","1"
"image-button-response","120","299353","0.0-13.0-1.20","19","Low_HMMActual","","","","","","null","","","","Images/BlackBeadChoice.png","","null"
"image-button-response","121","299856","0.0-13.0-2.20","19","Low_HMMActual","","","","","","null","","","","Images/BlackBeadChoiceCorrect.png","","null"
"image-button-response","122","300349","0.0-13.0-0.21","19","Low_HMMActual","","","","","","490.39999997615814","","","","Images/NewTrialBC.png","","1"
"image-button-response","123","300655","0.0-13.0-1.21","19","Low_HMMActual","","","","","","null","","","","Images/BlackBeadChoice.png","","null"
"image-button-response","124","301157","0.0-13.0-2.21","19","Low_HMMActual","","","","","","null","","","","Images/BlackBeadChoiceWrong.png","","null"
"image-button-response","125","301902","0.0-13.0-0.22","19","Low_HMMActual","","","","","","743.3999999761581","","","","Images/NewTrialWC.png","","2"
"image-button-response","126","302205","0.0-13.0-1.22","19","Low_HMMActual","","","","","","null","","","","Images/WhiteBeadChoice.png","","null"
"image-button-response","127","302707","0.0-13.0-2.22","19","Low_HMMActual","","","","","","null","","","","Images/WhiteBeadChoiceWrong.png","","null"
"image-button-response","128","303269","0.0-13.0-0.23","19","Low_HMMActual","","","","","","549.7000000476837","","","","Images/NewTrialBC.png","","2"
"image-button-response","129","303575","0.0-13.0-1.23","19","Low_HMMActual","","","","","","null","","","","Images/WhiteBeadChoice.png","","null"
"image-button-response","130","304081","0.0-13.0-2.23","19","Low_HMMActual","","","","","","null","","","","Images/WhiteBeadChoiceCorrect.png","","null"
"image-button-response","131","304547","0.0-13.0-0.24","19","Low_HMMActual","","","","","","462.60000002384186","","","","Images/NewTrialWC.png","","2"
"image-button-response","132","304852","0.0-13.0-1.24","19","Low_HMMActual","","","","","","null","","","","Images/WhiteBeadChoice.png","","null"
"image-button-response","133","305354","0.0-13.0-2.24","19","Low_HMMActual","","","","","","null","","","","Images/WhiteBeadChoiceWrong.png","","null"
"image-button-response","134","306440","0.0-13.0-0.25","19","Low_HMMActual","","","","","","1084.6000000238419","","","","Images/NewTrialBC.png","","0"
"image-button-response","135","306746","0.0-13.0-1.25","19","Low_HMMActual","","","","","","null","","","","Images/BlackBeadChoice.png","","null"
"image-button-response","136","307257","0.0-13.0-2.25","19","Low_HMMActual","","","","","","null","","","","Images/BlackBeadChoiceWrong.png","","null"
"image-button-response","137","308115","0.0-13.0-0.26","19","Low_HMMActual","","","","","","855.6000000238419","","","","Images/NewTrialWC.png","","3"
"image-button-response","138","308421","0.0-13.0-1.26","19","Low_HMMActual","","","","","","null","","","","Images/WhiteBeadChoice.png","","null"
"image-button-response","139","308924","0.0-13.0-2.26","19","Low_HMMActual","","","","","","null","","","","Images/WhiteBeadChoiceWrong.png","","null"
"image-button-response","140","309878","0.0-13.0-0.27","19","Low_HMMActual","","","","","","952","","","","Images/NewTrialBC.png","","3"
"image-button-response","141","310185","0.0-13.0-1.27","19","Low_HMMActual","","","","","","null","","","","Images/WhiteBeadChoice.png","","null"
"image-button-response","142","310688","0.0-13.0-2.27","19","Low_HMMActual","","","","","","null","","","","Images/WhiteBeadChoiceWrong.png","","null"
"image-button-response","143","312359","0.0-13.0-0.28","19","Low_HMMActual","","","","","","1668.6000000238419","","","","Images/NewTrialBC.png","","0"
"image-button-response","144","312665","0.0-13.0-1.28","19","Low_HMMActual","","","","","","null","","","","Images/BlackBeadChoice.png","","null"
"image-button-response","145","313166","0.0-13.0-2.28","19","Low_HMMActual","","","","","","null","","","","Images/BlackBeadChoiceWrong.png","","null"
"image-button-response","146","313906","0.0-13.0-0.29","19","Low_HMMActual","","","","","","738.1999999284744","","","","Images/NewTrialWC.png","","2"
"image-button-response","147","314213","0.0-13.0-1.29","19","Low_HMMActual","","","","","","null","","","","Images/WhiteBeadChoice.png","","null"
"image-button-response","148","314717","0.0-13.0-2.29","19","Low_HMMActual","","","","","","null","","","","Images/WhiteBeadChoiceWrong.png","","null"
"image-button-response","149","317101","0.0-13.0-0.30","19","Low_HMMActual","","","","","","2382.1999999284744","","","","Images/NewTrialBC.png","","1"
"image-button-response","150","317405","0.0-13.0-1.30","19","Low_HMMActual","","","","","","null","","","","Images/BlackBeadChoice.png","","null"
"image-button-response","151","317907","0.0-13.0-2.30","19","Low_HMMActual","","","","","","null","","","","Images/BlackBeadChoiceWrong.png","","null"
"image-button-response","152","318573","0.0-13.0-0.31","19","Low_HMMActual","","","","","","663.8999999761581","","","","Images/NewTrialWC.png","","2"
"image-button-response","153","318880","0.0-13.0-1.31","19","Low_HMMActual","","","","","","null","","","","Images/WhiteBeadChoice.png","","null"
"image-button-response","154","319385","0.0-13.0-2.31","19","Low_HMMActual","","","","","","null","","","","Images/WhiteBeadChoiceCorrect.png","","null"
"image-button-response","155","319706","0.0-13.0-0.32","19","Low_HMMActual","","","","","","318.90000009536743","","","","Images/NewTrialWC.png","","2"
"image-button-response","156","320010","0.0-13.0-1.32","19","Low_HMMActual","","","","","","null","","","","Images/WhiteBeadChoice.png","","null"
"image-button-response","157","320515","0.0-13.0-2.32","19","Low_HMMActual","","","","","","null","","","","Images/WhiteBeadChoiceCorrect.png","","null"
"image-button-response","158","320620","0.0-13.0-0.33","19","Low_HMMActual","","","","","","103","","","","Images/NewTrialWC.png","","2"
"image-button-response","159","320925","0.0-13.0-1.33","19","Low_HMMActual","","","","","","null","","","","Images/WhiteBeadChoice.png","","null"
"image-button-response","160","321428","0.0-13.0-2.33","19","Low_HMMActual","","","","","","null","","","","Images/WhiteBeadChoiceCorrect.png","","null"
"image-button-response","161","322949","0.0-13.0-0.34","19","Low_HMMActual","","","","","","1519.4000000953674","","","","Images/NewTrialWC.png","","2"
"image-button-response","162","323265","0.0-13.0-1.34","19","Low_HMMActual","","","","","","null","","","","Images/WhiteBeadChoice.png","","null"
"image-button-response","163","323771","0.0-13.0-2.34","19","Low_HMMActual","","","","","","null","","","","Images/WhiteBeadChoiceWrong.png","","null"
"image-button-response","164","324632","0.0-13.0-0.35","19","Low_HMMActual","","","","","","858.2999999523163","","","","Images/NewTrialBC.png","","0"
"image-button-response","165","324935","0.0-13.0-1.35","19","Low_HMMActual","","","","","","null","","","","Images/BlackBeadChoice.png","","null"
"image-button-response","166","325438","0.0-13.0-2.35","19","Low_HMMActual","","","","","","null","","","","Images/BlackBeadChoiceWrong.png","","null"
"image-button-response","167","326055","0.0-13.0-0.36","19","Low_HMMActual","","","","","","615.5999999046326","","","","Images/NewTrialWC.png","","2"
"image-button-response","168","326357","0.0-13.0-1.36","19","Low_HMMActual","","","","","","null","","","","Images/WhiteBeadChoice.png","","null"
"image-button-response","169","326860","0.0-13.0-2.36","19","Low_HMMActual","","","","","","null","","","","Images/WhiteBeadChoiceWrong.png","","null"
"image-button-response","170","329324","0.0-13.0-0.37","19","Low_HMMActual","","","","","","2461.899999976158","","","","Images/NewTrialBC.png","","0"
"image-button-response","171","329628","0.0-13.0-1.37","19","Low_HMMActual","","","","","","null","","","","Images/BlackBeadChoice.png","","null"
"image-button-response","172","330135","0.0-13.0-2.37","19","Low_HMMActual","","","","","","null","","","","Images/BlackBeadChoiceCorrect.png","","null"
"image-button-response","173","333060","0.0-13.0-0.38","19","Low_HMMActual","","","","","","2923.2000000476837","","","","Images/NewTrialBC.png","","3"
"image-button-response","174","333365","0.0-13.0-1.38","19","Low_HMMActual","","","","","","null","","","","Images/WhiteBeadChoice.png","","null"
"image-button-response","175","333869","0.0-13.0-2.38","19","Low_HMMActual","","","","","","null","","","","Images/WhiteBeadChoiceWrong.png","","null"
"image-button-response","176","334905","0.0-13.0-0.39","19","Low_HMMActual","","","","","","1033.8000000715256","","","","Images/NewTrialBC.png","","0"
"image-button-response","177","335209","0.0-13.0-1.39","19","Low_HMMActual","","","","","","null","","","","Images/BlackBeadChoice.png","","null"
"image-button-response","178","335715","0.0-13.0-2.39","19","Low_HMMActual","","","","","","null","","","","Images/BlackBeadChoiceWrong.png","","null"
"image-button-response","179","336668","0.0-13.0-0.40","19","Low_HMMActual","","","","","","950.7000000476837","","","","Images/NewTrialWC.png","","2"
"image-button-response","180","336971","0.0-13.0-1.40","19","Low_HMMActual","","","","","","null","","","","Images/WhiteBeadChoice.png","","null"
"image-button-response","181","337475","0.0-13.0-2.40","19","Low_HMMActual","","","","","","null","","","","Images/WhiteBeadChoiceCorrect.png","","null"
"image-button-response","182","338569","0.0-13.0-0.41","19","Low_HMMActual","","","","","","1091.7000000476837","","","","Images/NewTrialWC.png","","2"
"image-button-response","183","338875","0.0-13.0-1.41","19","Low_HMMActual","","","","","","null","","","","Images/WhiteBeadChoice.png","","null"
"image-button-response","184","339378","0.0-13.0-2.41","19","Low_HMMActual","","","","","","null","","","","Images/WhiteBeadChoiceCorrect.png","","null"
"image-button-response","185","339726","0.0-13.0-0.42","19","Low_HMMActual","","","","","","346.1999999284744","","","","Images/NewTrialWC.png","","2"
"image-button-response","186","340033","0.0-13.0-1.42","19","Low_HMMActual","","","","","","null","","","","Images/WhiteBeadChoice.png","","null"
"image-button-response","187","340535","0.0-13.0-2.42","19","Low_HMMActual","","","","","","null","","","","Images/WhiteBeadChoiceWrong.png","","null"
"image-button-response","188","341205","0.0-13.0-0.43","19","Low_HMMActual","","","","","","668.4000000953674","","","","Images/NewTrialBC.png","","0"
"image-button-response","189","341511","0.0-13.0-1.43","19","Low_HMMActual","","","","","","null","","","","Images/BlackBeadChoice.png","","null"
"image-button-response","190","342015","0.0-13.0-2.43","19","Low_HMMActual","","","","","","null","","","","Images/BlackBeadChoiceWrong.png","","null"
"image-button-response","191","342961","0.0-13.0-0.44","19","Low_HMMActual","","","","","","944.1999999284744","","","","Images/NewTrialWC.png","","2"
"image-button-response","192","343265","0.0-13.0-1.44","19","Low_HMMActual","","","","","","null","","","","Images/WhiteBeadChoice.png","","null"
"image-button-response","193","343767","0.0-13.0-2.44","19","Low_HMMActual","","","","","","null","","","","Images/WhiteBeadChoiceWrong.png","","null"
"image-button-response","194","344425","0.0-13.0-0.45","19","Low_HMMActual","","","","","","655.2999999523163","","","","Images/NewTrialBC.png","","0"
"image-button-response","195","344729","0.0-13.0-1.45","19","Low_HMMActual","","","","","","null","","","","Images/BlackBeadChoice.png","","null"
"image-button-response","196","345235","0.0-13.0-2.45","19","Low_HMMActual","","","","","","null","","","","Images/BlackBeadChoiceCorrect.png","","null"
"image-button-response","197","345743","0.0-13.0-0.46","19","Low_HMMActual","","","","","","506.10000002384186","","","","Images/NewTrialBC.png","","0"
"image-button-response","198","346045","0.0-13.0-1.46","19","Low_HMMActual","","","","","","null","","","","Images/BlackBeadChoice.png","","null"
"image-button-response","199","346552","0.0-13.0-2.46","19","Low_HMMActual","","","","","","null","","","","Images/BlackBeadChoiceWrong.png","","null"
"image-button-response","200","347733","0.0-13.0-0.47","19","Low_HMMActual","","","","","","1179.5","","","","Images/NewTrialWC.png","","3"
"image-button-response","201","348035","0.0-13.0-1.47","19","Low_HMMActual","","","","","","null","","","","Images/WhiteBeadChoice.png","","null"
"image-button-response","202","348542","0.0-13.0-2.47","19","Low_HMMActual","","","","","","null","","","","Images/WhiteBeadChoiceCorrect.png","","null"
"image-button-response","203","349198","0.0-13.0-0.48","19","Low_HMMActual","","","","","","653.8000000715256","","","","Images/NewTrialWC.png","","2"
"image-button-response","204","349502","0.0-13.0-1.48","19","Low_HMMActual","","","","","","null","","","","Images/WhiteBeadChoice.png","","null"
"image-button-response","205","350004","0.0-13.0-2.48","19","Low_HMMActual","","","","","","null","","","","Images/WhiteBeadChoiceCorrect.png","","null"
"image-button-response","206","350224","0.0-13.0-0.49","19","Low_HMMActual","","","","","","218.39999997615814","","","","Images/NewTrialWC.png","","2"
"image-button-response","207","350531","0.0-13.0-1.49","19","Low_HMMActual","","","","","","null","","","","Images/WhiteBeadChoice.png","","null"
"image-button-response","208","351034","0.0-13.0-2.49","19","Low_HMMActual","","","","","","null","","","","Images/WhiteBeadChoiceCorrect.png","","null"
"image-button-response","209","351826","0.0-13.0-0.50","19","Low_HMMActual","","","","","","790.1000000238419","","","","Images/NewTrialWC.png","","3"
"image-button-response","210","352133","0.0-13.0-1.50","19","Low_HMMActual","","","","","","null","","","","Images/WhiteBeadChoice.png","","null"
"image-button-response","211","352635","0.0-13.0-2.50","19","Low_HMMActual","","","","","","null","","","","Images/WhiteBeadChoiceWrong.png","","null"
"image-button-response","212","353468","0.0-13.0-0.51","19","Low_HMMActual","","","","","","831.5","","","","Images/NewTrialBC.png","","0"
"image-button-response","213","353774","0.0-13.0-1.51","19","Low_HMMActual","","","","","","null","","","","Images/BlackBeadChoice.png","","null"
"image-button-response","214","354281","0.0-13.0-2.51","19","Low_HMMActual","","","","","","null","","","","Images/BlackBeadChoiceCorrect.png","","null"
"image-button-response","215","354520","0.0-13.0-0.52","19","Low_HMMActual","","","","","","236.5","","","","Images/NewTrialBC.png","","0"
"image-button-response","216","354825","0.0-13.0-1.52","19","Low_HMMActual","","","","","","null","","","","Images/BlackBeadChoice.png","","null"
"image-button-response","217","355329","0.0-13.0-2.52","19","Low_HMMActual","","","","","","null","","","","Images/BlackBeadChoiceCorrect.png","","null"
"image-button-response","218","355782","0.0-13.0-0.53","19","Low_HMMActual","","","","","","449.3000000715256","","","","Images/NewTrialBC.png","","0"
"image-button-response","219","356085","0.0-13.0-1.53","19","Low_HMMActual","","","","","","null","","","","Images/BlackBeadChoice.png","","null"
"image-button-response","220","356588","0.0-13.0-2.53","19","Low_HMMActual","","","","","","null","","","","Images/BlackBeadChoiceWrong.png","","null"
"image-button-response","221","357303","0.0-13.0-0.54","19","Low_HMMActual","","","","","","711.9000000953674","","","","Images/NewTrialWC.png","","2"
"image-button-response","222","357606","0.0-13.0-1.54","19","Low_HMMActual","","","","","","null","","","","Images/WhiteBeadChoice.png","","null"
"image-button-response","223","358108","0.0-13.0-2.54","19","Low_HMMActual","","","","","","null","","","","Images/WhiteBeadChoiceWrong.png","","null"
"image-button-response","224","358702","0.0-13.0-0.55","19","Low_HMMActual","","","","","","591","","","","Images/NewTrialBC.png","","0"
"image-button-response","225","359004","0.0-13.0-1.55","19","Low_HMMActual","","","","","","null","","","","Images/BlackBeadChoice.png","","null"
"image-button-response","226","359508","0.0-13.0-2.55","19","Low_HMMActual","","","","","","null","","","","Images/BlackBeadChoiceCorrect.png","","null"
"image-button-response","227","361412","0.0-13.0-0.56","19","Low_HMMActual","","","","","","1901.1000000238419","","","","Images/NewTrialBC.png","","0"
"image-button-response","228","361715","0.0-13.0-1.56","19","Low_HMMActual","","","","","","null","","","","Images/BlackBeadChoice.png","","null"
"image-button-response","229","362222","0.0-13.0-2.56","19","Low_HMMActual","","","","","","null","","","","Images/BlackBeadChoiceCorrect.png","","null"
"image-button-response","230","363677","0.0-13.0-0.57","19","Low_HMMActual","","","","","","1452.3999999761581","","","","Images/NewTrialBC.png","","3"
"image-button-response","231","363980","0.0-13.0-1.57","19","Low_HMMActual","","","","","","null","","","","Images/WhiteBeadChoice.png","","null"
"image-button-response","232","364485","0.0-13.0-2.57","19","Low_HMMActual","","","","","","null","","","","Images/WhiteBeadChoiceWrong.png","","null"
"image-button-response","233","365642","0.0-13.0-0.58","19","Low_HMMActual","","","","","","1154.5","","","","Images/NewTrialBC.png","","0"
"image-button-response","234","365946","0.0-13.0-1.58","19","Low_HMMActual","","","","","","null","","","","Images/BlackBeadChoice.png","","null"
"image-button-response","235","366448","0.0-13.0-2.58","19","Low_HMMActual","","","","","","null","","","","Images/BlackBeadChoiceCorrect.png","","null"
"image-button-response","236","366977","0.0-13.0-0.59","19","Low_HMMActual","","","","","","526.3000000715256","","","","Images/NewTrialBC.png","","0"
"image-button-response","237","367281","0.0-13.0-1.59","19","Low_HMMActual","","","","","","null","","","","Images/BlackBeadChoice.png","","null"
"image-button-response","238","367783","0.0-13.0-2.59","19","Low_HMMActual","","","","","","null","","","","Images/BlackBeadChoiceWrong.png","","null"
"image-button-response","239","368547","0.0-13.0-0.60","19","Low_HMMActual","","","","","","761.8999999761581","","","","Images/NewTrialWC.png","","2"
"image-button-response","240","368853","0.0-13.0-1.60","19","Low_HMMActual","","","","","","null","","","","Images/WhiteBeadChoice.png","","null"
"image-button-response","241","369355","0.0-13.0-2.60","19","Low_HMMActual","","","","","","null","","","","Images/WhiteBeadChoiceCorrect.png","","null"
"image-button-response","242","369493","0.0-13.0-0.61","19","Low_HMMActual","","","","","","135.5","","","","Images/NewTrialWC.png","","2"
"image-button-response","243","369796","0.0-13.0-1.61","19","Low_HMMActual","","","","","","null","","","","Images/WhiteBeadChoice.png","","null"
"image-button-response","244","370303","0.0-13.0-2.61","19","Low_HMMActual","","","","","","null","","","","Images/WhiteBeadChoiceCorrect.png","","null"
"image-button-response","245","370706","0.0-13.0-0.62","19","Low_HMMActual","","","","","","400.89999997615814","","","","Images/NewTrialWC.png","","2"
"image-button-response","246","371010","0.0-13.0-1.62","19","Low_HMMActual","","","","","","null","","","","Images/WhiteBeadChoice.png","","null"
"image-button-response","247","371514","0.0-13.0-2.62","19","Low_HMMActual","","","","","","null","","","","Images/WhiteBeadChoiceWrong.png","","null"
"image-button-response","248","373125","0.0-13.0-0.63","19","Low_HMMActual","","","","","","1609.1999999284744","","","","Images/NewTrialBC.png","","0"
"image-button-response","249","373430","0.0-13.0-1.63","19","Low_HMMActual","","","","","","null","","","","Images/BlackBeadChoice.png","","null"
"image-button-response","250","373935","0.0-13.0-2.63","19","Low_HMMActual","","","","","","null","","","","Images/BlackBeadChoiceCorrect.png","","null"
"image-button-response","251","374152","0.0-13.0-0.64","19","Low_HMMActual","","","","","","214.60000002384186","","","","Images/NewTrialBC.png","","0"
"image-button-response","252","374456","0.0-13.0-1.64","19","Low_HMMActual","","","","","","null","","","","Images/BlackBeadChoice.png","","null"
"image-button-response","253","374958","0.0-13.0-2.64","19","Low_HMMActual","","","","","","null","","","","Images/BlackBeadChoiceWrong.png","","null"
"image-button-response","254","375431","0.0-13.0-0.65","19","Low_HMMActual","","","","","","469","","","","Images/NewTrialWC.png","","2"
"image-button-response","255","375736","0.0-13.0-1.65","19","Low_HMMActual","","","","","","null","","","","Images/WhiteBeadChoice.png","","null"
"image-button-response","256","376242","0.0-13.0-2.65","19","Low_HMMActual","","","","","","null","","","","Images/WhiteBeadChoiceWrong.png","","null"
"image-button-response","257","377049","0.0-13.0-0.66","19","Low_HMMActual","","","","","","804.7999999523163","","","","Images/NewTrialBC.png","","0"
"image-button-response","258","377354","0.0-13.0-1.66","19","Low_HMMActual","","","","","","null","","","","Images/BlackBeadChoice.png","","null"
"image-button-response","259","377859","0.0-13.0-2.66","19","Low_HMMActual","","","","","","null","","","","Images/BlackBeadChoiceCorrect.png","","null"
"image-button-response","260","378100","0.0-13.0-0.67","19","Low_HMMActual","","","","","","238.70000004768372","","","","Images/NewTrialBC.png","","0"
"image-button-response","261","378405","0.0-13.0-1.67","19","Low_HMMActual","","","","","","null","","","","Images/BlackBeadChoice.png","","null"
"image-button-response","262","378910","0.0-13.0-2.67","19","Low_HMMActual","","","","","","null","","","","Images/BlackBeadChoiceCorrect.png","","null"
"image-button-response","263","379200","0.0-13.0-0.68","19","Low_HMMActual","","","","","","287.1999999284744","","","","Images/NewTrialBC.png","","0"
"image-button-response","264","379506","0.0-13.0-1.68","19","Low_HMMActual","","","","","","null","","","","Images/BlackBeadChoice.png","","null"
"image-button-response","265","380007","0.0-13.0-2.68","19","Low_HMMActual","","","","","","null","","","","Images/BlackBeadChoiceWrong.png","","null"
"image-button-response","266","380826","0.0-13.0-0.69","19","Low_HMMActual","","","","","","817.5999999046326","","","","Images/NewTrialWC.png","","3"
"image-button-response","267","381132","0.0-13.0-1.69","19","Low_HMMActual","","","","","","null","","","","Images/WhiteBeadChoice.png","","null"
"image-button-response","268","381635","0.0-13.0-2.69","19","Low_HMMActual","","","","","","null","","","","Images/WhiteBeadChoiceWrong.png","","null"
"image-button-response","269","382250","0.0-13.0-0.70","19","Low_HMMActual","","","","","","612.8000000715256","","","","Images/NewTrialBC.png","","1"
"image-button-response","270","382555","0.0-13.0-1.70","19","Low_HMMActual","","","","","","null","","","","Images/BlackBeadChoice.png","","null"
"image-button-response","271","383062","0.0-13.0-2.70","19","Low_HMMActual","","","","","","null","","","","Images/BlackBeadChoiceWrong.png","","null"
"image-button-response","272","384661","0.0-13.0-0.71","19","Low_HMMActual","","","","","","1596.6999999284744","","","","Images/NewTrialWC.png","","2"
"image-button-response","273","384965","0.0-13.0-1.71","19","Low_HMMActual","","","","","","null","","","","Images/WhiteBeadChoice.png","","null"
"image-button-response","274","385467","0.0-13.0-2.71","19","Low_HMMActual","","","","","","null","","","","Images/WhiteBeadChoiceWrong.png","","null"
"image-button-response","275","386950","0.0-13.0-0.72","19","Low_HMMActual","","","","","","1481","","","","Images/NewTrialBC.png","","2"
"image-button-response","276","387255","0.0-13.0-1.72","19","Low_HMMActual","","","","","","null","","","","Images/WhiteBeadChoice.png","","null"
"image-button-response","277","387757","0.0-13.0-2.72","19","Low_HMMActual","","","","","","null","","","","Images/WhiteBeadChoiceWrong.png","","null"
"image-button-response","278","388535","0.0-13.0-0.73","19","Low_HMMActual","","","","","","774.3999999761581","","","","Images/NewTrialBC.png","","2"
"image-button-response","279","388841","0.0-13.0-1.73","19","Low_HMMActual","","","","","","null","","","","Images/WhiteBeadChoice.png","","null"
"image-button-response","280","389343","0.0-13.0-2.73","19","Low_HMMActual","","","","","","null","","","","Images/WhiteBeadChoiceWrong.png","","null"
"image-button-response","281","389943","0.0-13.0-0.74","19","Low_HMMActual","","","","","","597.2999999523163","","","","Images/NewTrialBC.png","","0"
"image-button-response","282","390246","0.0-13.0-1.74","19","Low_HMMActual","","","","","","null","","","","Images/BlackBeadChoice.png","","null"
"image-button-response","283","390752","0.0-13.0-2.74","19","Low_HMMActual","","","","","","null","","","","Images/BlackBeadChoiceCorrect.png","","null"
"image-button-response","284","390858","0.0-13.0-0.75","19","Low_HMMActual","","","","","","103.69999992847443","","","","Images/NewTrialBC.png","","0"
"image-button-response","285","391165","0.0-13.0-1.75","19","Low_HMMActual","","","","","","null","","","","Images/BlackBeadChoice.png","","null"
"image-button-response","286","391669","0.0-13.0-2.75","19","Low_HMMActual","","","","","","null","","","","Images/BlackBeadChoiceCorrect.png","","null"
"image-button-response","287","391900","0.0-13.0-0.76","19","Low_HMMActual","","","","","","229.5","","","","Images/NewTrialBC.png","","0"
"image-button-response","288","392206","0.0-13.0-1.76","19","Low_HMMActual","","","","","","null","","","","Images/BlackBeadChoice.png","","null"
"image-button-response","289","392714","0.0-13.0-2.76","19","Low_HMMActual","","","","","","null","","","","Images/BlackBeadChoiceCorrect.png","","null"
"image-button-response","290","393729","0.0-13.0-0.77","19","Low_HMMActual","","","","","","1013.1999999284744","","","","Images/NewTrialBC.png","","0"
"image-button-response","291","394033","0.0-13.0-1.77","19","Low_HMMActual","","","","","","null","","","","Images/BlackBeadChoice.png","","null"
"image-button-response","292","394536","0.0-13.0-2.77","19","Low_HMMActual","","","","","","null","","","","Images/BlackBeadChoiceWrong.png","","null"
"image-button-response","293","395104","0.0-13.0-0.78","19","Low_HMMActual","","","","","","565.8999999761581","","","","Images/NewTrialWC.png","","2"
"image-button-response","294","395406","0.0-13.0-1.78","19","Low_HMMActual","","","","","","null","","","","Images/WhiteBeadChoice.png","","null"
"image-button-response","295","395912","0.0-13.0-2.78","19","Low_HMMActual","","","","","","null","","","","Images/WhiteBeadChoiceWrong.png","","null"
"image-button-response","296","397005","0.0-13.0-0.79","19","Low_HMMActual","","","","","","1092","","","","Images/NewTrialBC.png","","0"
"image-button-response","297","397312","0.0-13.0-1.79","19","Low_HMMActual","","","","","","null","","","","Images/BlackBeadChoice.png","","null"
"image-button-response","298","397816","0.0-13.0-2.79","19","Low_HMMActual","","","","","","null","","","","Images/BlackBeadChoiceCorrect.png","","null"
"image-button-response","299","399643","0.0-13.0-0.80","19","Low_HMMActual","","","","","","1824.9000000953674","","","","Images/NewTrialBC.png","","2"
"image-button-response","300","399946","0.0-13.0-1.80","19","Low_HMMActual","","","","","","null","","","","Images/WhiteBeadChoice.png","","null"
"image-button-response","301","400451","0.0-13.0-2.80","19","Low_HMMActual","","","","","","null","","","","Images/WhiteBeadChoiceCorrect.png","","null"
"image-button-response","302","400888","0.0-13.0-0.81","19","Low_HMMActual","","","","","","435.60000002384186","","","","Images/NewTrialWC.png","","2"
"image-button-response","303","401195","0.0-13.0-1.81","19","Low_HMMActual","","","","","","null","","","","Images/WhiteBeadChoice.png","","null"
"image-button-response","304","401699","0.0-13.0-2.81","19","Low_HMMActual","","","","","","null","","","","Images/WhiteBeadChoiceCorrect.png","","null"
"image-button-response","305","402838","0.0-13.0-0.82","19","Low_HMMActual","","","","","","1136.3999999761581","","","","Images/NewTrialWC.png","","0"
"image-button-response","306","403140","0.0-13.0-1.82","19","Low_HMMActual","","","","","","null","","","","Images/BlackBeadChoice.png","","null"
"image-button-response","307","403643","0.0-13.0-2.82","19","Low_HMMActual","","","","","","null","","","","Images/BlackBeadChoiceCorrect.png","","null"
"image-button-response","308","405507","0.0-13.0-0.83","19","Low_HMMActual","","","","","","1861.1000000238419","","","","Images/NewTrialBC.png","","2"
"image-button-response","309","405811","0.0-13.0-1.83","19","Low_HMMActual","","","","","","null","","","","Images/WhiteBeadChoice.png","","null"
"image-button-response","310","406315","0.0-13.0-2.83","19","Low_HMMActual","","","","","","null","","","","Images/WhiteBeadChoiceWrong.png","","null"
"image-button-response","311","406519","0.0-13.0-0.84","19","Low_HMMActual","","","","","","202","","","","Images/NewTrialBC.png","","2"
"image-button-response","312","406822","0.0-13.0-1.84","19","Low_HMMActual","","","","","","null","","","","Images/WhiteBeadChoice.png","","null"
"image-button-response","313","407325","0.0-13.0-2.84","19","Low_HMMActual","","","","","","null","","","","Images/WhiteBeadChoiceWrong.png","","null"
"image-button-response","314","407732","0.0-13.0-0.85","19","Low_HMMActual","","","","","","405","","","","Images/NewTrialBC.png","","1"
"image-button-response","315","408036","0.0-13.0-1.85","19","Low_HMMActual","","","","","","null","","","","Images/BlackBeadChoice.png","","null"
"image-button-response","316","408539","0.0-13.0-2.85","19","Low_HMMActual","","","","","","null","","","","Images/BlackBeadChoiceCorrect.png","","null"
"image-button-response","317","409042","0.0-13.0-0.86","19","Low_HMMActual","","","","","","501.6999999284744","","","","Images/NewTrialBC.png","","0"
"image-button-response","318","409346","0.0-13.0-1.86","19","Low_HMMActual","","","","","","null","","","","Images/BlackBeadChoice.png","","null"
"image-button-response","319","409848","0.0-13.0-2.86","19","Low_HMMActual","","","","","","null","","","","Images/BlackBeadChoiceWrong.png","","null"
"image-button-response","320","410126","0.0-13.0-0.87","19","Low_HMMActual","","","","","","276","","","","Images/NewTrialWC.png","","2"
"image-button-response","321","410431","0.0-13.0-1.87","19","Low_HMMActual","","","","","","null","","","","Images/WhiteBeadChoice.png","","null"
"image-button-response","322","410936","0.0-13.0-2.87","19","Low_HMMActual","","","","","","null","","","","Images/WhiteBeadChoiceCorrect.png","","null"
"image-button-response","323","411121","0.0-13.0-0.88","19","Low_HMMActual","","","","","","181.69999992847443","","","","Images/NewTrialWC.png","","2"
"image-button-response","324","411426","0.0-13.0-1.88","19","Low_HMMActual","","","","","","null","","","","Images/WhiteBeadChoice.png","","null"
"image-button-response","325","411933","0.0-13.0-2.88","19","Low_HMMActual","","","","","","null","","","","Images/WhiteBeadChoiceCorrect.png","","null"
"image-button-response","326","413491","0.0-13.0-0.89","19","Low_HMMActual","","","","","","1545.6999999284744","","","","Images/NewTrialWC.png","","2"
"image-button-response","327","413796","0.0-13.0-1.89","19","Low_HMMActual","","","","","","null","","","","Images/WhiteBeadChoice.png","","null"
"image-button-response","328","414303","0.0-13.0-2.89","19","Low_HMMActual","","","","","","null","","","","Images/WhiteBeadChoiceWrong.png","","null"
"image-button-response","329","415191","0.0-13.0-0.90","19","Low_HMMActual","","","","","","885.8999999761581","","","","Images/NewTrialBC.png","","0"
"image-button-response","330","415496","0.0-13.0-1.90","19","Low_HMMActual","","","","","","null","","","","Images/BlackBeadChoice.png","","null"
"image-button-response","331","415999","0.0-13.0-2.90","19","Low_HMMActual","","","","","","null","","","","Images/BlackBeadChoiceCorrect.png","","null"
"image-button-response","332","416977","0.0-13.0-0.91","19","Low_HMMActual","","","","","","976.3999999761581","","","","Images/NewTrialBC.png","","2"
"image-button-response","333","417281","0.0-13.0-1.91","19","Low_HMMActual","","","","","","null","","","","Images/WhiteBeadChoice.png","","null"
"image-button-response","334","417795","0.0-13.0-2.91","19","Low_HMMActual","","","","","","null","","","","Images/WhiteBeadChoiceWrong.png","","null"
"image-button-response","335","419494","0.0-13.0-0.92","19","Low_HMMActual","","","","","","1696.8000000715256","","","","Images/NewTrialBC.png","","0"
"image-button-response","336","419796","0.0-13.0-1.92","19","Low_HMMActual","","","","","","null","","","","Images/BlackBeadChoice.png","","null"
"image-button-response","337","420299","0.0-13.0-2.92","19","Low_HMMActual","","","","","","null","","","","Images/BlackBeadChoiceWrong.png","","null"
"image-button-response","338","421126","0.0-13.0-0.93","19","Low_HMMActual","","","","","","826","","","","Images/NewTrialWC.png","","2"
"image-button-response","339","421433","0.0-13.0-1.93","19","Low_HMMActual","","","","","","null","","","","Images/WhiteBeadChoice.png","","null"
"image-button-response","340","421936","0.0-13.0-2.93","19","Low_HMMActual","","","","","","null","","","","Images/WhiteBeadChoiceCorrect.png","","null"
"image-button-response","341","424361","0.0-13.0-0.94","19","Low_HMMActual","","","","","","2422.8000000715256","","","","Images/NewTrialWC.png","","2"
"image-button-response","342","424667","0.0-13.0-1.94","19","Low_HMMActual","","","","","","null","","","","Images/WhiteBeadChoice.png","","null"
"image-button-response","343","425173","0.0-13.0-2.94","19","Low_HMMActual","","","","","","null","","","","Images/WhiteBeadChoiceWrong.png","","null"
"image-button-response","344","426133","0.0-13.0-0.95","19","Low_HMMActual","","","","","","958.8999999761581","","","","Images/NewTrialBC.png","","0"
"image-button-response","345","426436","0.0-13.0-1.95","19","Low_HMMActual","","","","","","null","","","","Images/BlackBeadChoice.png","","null"
"image-button-response","346","426940","0.0-13.0-2.95","19","Low_HMMActual","","","","","","null","","","","Images/BlackBeadChoiceCorrect.png","","null"
"image-button-response","347","427412","0.0-13.0-0.96","19","Low_HMMActual","","","","","","469.60000002384186","","","","Images/NewTrialBC.png","","0"
"image-button-response","348","427716","0.0-13.0-1.96","19","Low_HMMActual","","","","","","null","","","","Images/BlackBeadChoice.png","","null"
"image-button-response","349","428225","0.0-13.0-2.96","19","Low_HMMActual","","","","","","null","","","","Images/BlackBeadChoiceCorrect.png","","null"
"image-button-response","350","428689","0.0-13.0-0.97","19","Low_HMMActual","","","","","","462.2999999523163","","","","Images/NewTrialBC.png","","0"
"image-button-response","351","428996","0.0-13.0-1.97","19","Low_HMMActual","","","","","","null","","","","Images/BlackBeadChoice.png","","null"
"image-button-response","352","429503","0.0-13.0-2.97","19","Low_HMMActual","","","","","","null","","","","Images/BlackBeadChoiceCorrect.png","","null"
"image-button-response","353","430405","0.0-13.0-0.98","19","Low_HMMActual","","","","","","890.5","","","","Images/NewTrialBC.png","","3"
"image-button-response","354","430712","0.0-13.0-1.98","19","Low_HMMActual","","","","","","null","","","","Images/WhiteBeadChoice.png","","null"
"image-button-response","355","431216","0.0-13.0-2.98","19","Low_HMMActual","","","","","","null","","","","Images/WhiteBeadChoiceCorrect.png","","null"
"image-button-response","356","432685","0.0-13.0-0.99","19","Low_HMMActual","","","","","","1466.7999999523163","","","","Images/NewTrialWC.png","","3"
"image-button-response","357","432990","0.0-13.0-1.99","19","Low_HMMActual","","","","","","null","","","","Images/WhiteBeadChoice.png","","null"
"image-button-response","358","433492","0.0-13.0-2.99","19","Low_HMMActual","","","","","","null","","","","Images/WhiteBeadChoiceWrong.png","","null"
"image-button-response","359","434093","0.0-13.0-0.100","19","Low_HMMActual","","","","","","598.1000000238419","","","","Images/NewTrialBC.png","","1"
"image-button-response","360","434396","0.0-13.0-1.100","19","Low_HMMActual","","","","","","null","","","","Images/BlackBeadChoice.png","","null"
"image-button-response","361","434898","0.0-13.0-2.100","19","Low_HMMActual","","","","","","null","","","","Images/BlackBeadChoiceWrong.png","","null"
"image-button-response","362","435395","0.0-13.0-0.101","19","Low_HMMActual","","","","","","494.09999990463257","","","","Images/NewTrialWC.png","","3"
"image-button-response","363","435700","0.0-13.0-1.101","19","Low_HMMActual","","","","","","null","","","","Images/WhiteBeadChoice.png","","null"
"image-button-response","364","436205","0.0-13.0-2.101","19","Low_HMMActual","","","","","","null","","","","Images/WhiteBeadChoiceCorrect.png","","null"
"image-button-response","365","438890","0.0-13.0-0.102","19","Low_HMMActual","","","","","","2681.9000000953674","","","","Images/NewTrialWC.png","","0"
"image-button-response","366","439196","0.0-13.0-1.102","19","Low_HMMActual","","","","","","null","","","","Images/BlackBeadChoice.png","","null"
"image-button-response","367","439699","0.0-13.0-2.102","19","Low_HMMActual","","","","","","null","","","","Images/BlackBeadChoiceWrong.png","","null"
"image-button-response","368","440200","0.0-13.0-0.103","19","Low_HMMActual","","","","","","498.2999999523163","","","","Images/NewTrialWC.png","","3"
"image-button-response","369","440505","0.0-13.0-1.103","19","Low_HMMActual","","","","","","null","","","","Images/WhiteBeadChoice.png","","null"
"image-button-response","370","441007","0.0-13.0-2.103","19","Low_HMMActual","","","","","","null","","","","Images/WhiteBeadChoiceWrong.png","","null"
"image-button-response","371","441705","0.0-13.0-0.104","19","Low_HMMActual","","","","","","695.7000000476837","","","","Images/NewTrialBC.png","","3"
"image-button-response","372","442009","0.0-13.0-1.104","19","Low_HMMActual","","","","","","null","","","","Images/WhiteBeadChoice.png","","null"
"image-button-response","373","442516","0.0-13.0-2.104","19","Low_HMMActual","","","","","","null","","","","Images/WhiteBeadChoiceCorrect.png","","null"
"image-button-response","374","442976","0.0-13.0-0.105","19","Low_HMMActual","","","","","","457.7000000476837","","","","Images/NewTrialWC.png","","3"
"image-button-response","375","443280","0.0-13.0-1.105","19","Low_HMMActual","","","","","","null","","","","Images/WhiteBeadChoice.png","","null"
"image-button-response","376","443787","0.0-13.0-2.105","19","Low_HMMActual","","","","","","null","","","","Images/WhiteBeadChoiceCorrect.png","","null"
"image-button-response","377","444828","0.0-13.0-0.106","19","Low_HMMActual","","","","","","1039","","","","Images/NewTrialWC.png","","2"
"image-button-response","378","445133","0.0-13.0-1.106","19","Low_HMMActual","","","","","","null","","","","Images/WhiteBeadChoice.png","","null"
"image-button-response","379","445636","0.0-13.0-2.106","19","Low_HMMActual","","","","","","null","","","","Images/WhiteBeadChoiceCorrect.png","","null"
"image-button-response","380","446203","0.0-13.0-0.107","19","Low_HMMActual","","","","","","564.5","","","","Images/NewTrialWC.png","","2"
"image-button-response","381","446506","0.0-13.0-1.107","19","Low_HMMActual","","","","","","null","","","","Images/WhiteBeadChoice.png","","null"
"image-button-response","382","447009","0.0-13.0-2.107","19","Low_HMMActual","","","","","","null","","","","Images/WhiteBeadChoiceCorrect.png","","null"
"image-button-response","383","448460","0.0-13.0-0.108","19","Low_HMMActual","","","","","","1448.3999999761581","","","","Images/NewTrialWC.png","","1"
"image-button-response","384","448766","0.0-13.0-1.108","19","Low_HMMActual","","","","","","null","","","","Images/BlackBeadChoice.png","","null"
"image-button-response","385","449272","0.0-13.0-2.108","19","Low_HMMActual","","","","","","null","","","","Images/BlackBeadChoiceWrong.png","","null"
"image-button-response","386","449779","0.0-13.0-0.109","19","Low_HMMActual","","","","","","504.7000000476837","","","","Images/NewTrialWC.png","","1"
"image-button-response","387","450091","0.0-13.0-1.109","19","Low_HMMActual","","","","","","null","","","","Images/BlackBeadChoice.png","","null"
"image-button-response","388","450596","0.0-13.0-2.109","19","Low_HMMActual","","","","","","null","","","","Images/BlackBeadChoiceWrong.png","","null"
"image-button-response","389","451614","0.0-13.0-0.110","19","Low_HMMActual","","","","","","1015.6999999284744","","","","Images/NewTrialWC.png","","3"
"image-button-response","390","451916","0.0-13.0-1.110","19","Low_HMMActual","","","","","","null","","","","Images/WhiteBeadChoice.png","","null"
"image-button-response","391","452419","0.0-13.0-2.110","19","Low_HMMActual","","","","","","null","","","","Images/WhiteBeadChoiceWrong.png","","null"
"image-button-response","392","452894","0.0-13.0-0.111","19","Low_HMMActual","","","","","","472.39999997615814","","","","Images/NewTrialBC.png","","1"
"image-button-response","393","453202","0.0-13.0-1.111","19","Low_HMMActual","","","","","","null","","","","Images/BlackBeadChoice.png","","null"
"image-button-response","394","453706","0.0-13.0-2.111","19","Low_HMMActual","","","","","","null","","","","Images/BlackBeadChoiceCorrect.png","","null"
"image-button-response","395","455207","0.0-13.0-0.112","19","Low_HMMActual","","","","","","1498.7999999523163","","","","Images/NewTrialBC.png","","1"
"image-button-response","396","455512","0.0-13.0-1.112","19","Low_HMMActual","","","","","","null","","","","Images/BlackBeadChoice.png","","null"
"image-button-response","397","456024","0.0-13.0-2.112","19","Low_HMMActual","","","","","","null","","","","Images/BlackBeadChoiceWrong.png","","null"
"image-button-response","398","456655","0.0-13.0-0.113","19","Low_HMMActual","","","","","","629.3999999761581","","","","Images/NewTrialWC.png","","3"
"image-button-response","399","456962","0.0-13.0-1.113","19","Low_HMMActual","","","","","","null","","","","Images/WhiteBeadChoice.png","","null"
"image-button-response","400","457466","0.0-13.0-2.113","19","Low_HMMActual","","","","","","null","","","","Images/WhiteBeadChoiceCorrect.png","","null"
"image-button-response","401","458143","0.0-13.0-0.114","19","Low_HMMActual","","","","","","674.7000000476837","","","","Images/NewTrialWC.png","","3"
"image-button-response","402","458447","0.0-13.0-1.114","19","Low_HMMActual","","","","","","null","","","","Images/WhiteBeadChoice.png","","null"
"image-button-response","403","458950","0.0-13.0-2.114","19","Low_HMMActual","","","","","","null","","","","Images/WhiteBeadChoiceCorrect.png","","null"
"image-button-response","404","459600","0.0-13.0-0.115","19","Low_HMMActual","","","","","","647.8999999761581","","","","Images/NewTrialWC.png","","2"
"image-button-response","405","459906","0.0-13.0-1.115","19","Low_HMMActual","","","","","","null","","","","Images/WhiteBeadChoice.png","","null"
"image-button-response","406","460413","0.0-13.0-2.115","19","Low_HMMActual","","","","","","null","","","","Images/WhiteBeadChoiceCorrect.png","","null"
"image-button-response","407","460707","0.0-13.0-0.116","19","Low_HMMActual","","","","","","283.7999999523163","","","","Images/NewTrialWC.png","","2"
"image-button-response","408","461010","0.0-13.0-1.116","19","Low_HMMActual","","","","","","null","","","","Images/WhiteBeadChoice.png","","null"
"image-button-response","409","461513","0.0-13.0-2.116","19","Low_HMMActual","","","","","","null","","","","Images/WhiteBeadChoiceWrong.png","","null"
"image-button-response","410","462115","0.0-13.0-0.117","19","Low_HMMActual","","","","","","600.3999999761581","","","","Images/NewTrialBC.png","","1"
"image-button-response","411","462422","0.0-13.0-1.117","19","Low_HMMActual","","","","","","null","","","","Images/BlackBeadChoice.png","","null"
"image-button-response","412","462926","0.0-13.0-2.117","19","Low_HMMActual","","","","","","null","","","","Images/BlackBeadChoiceCorrect.png","","null"
"image-button-response","413","463166","0.0-13.0-0.118","19","Low_HMMActual","","","","","","235.89999997615814","","","","Images/NewTrialBC.png","","1"
"image-button-response","414","463471","0.0-13.0-1.118","19","Low_HMMActual","","","","","","null","","","","Images/BlackBeadChoice.png","","null"
"image-button-response","415","463973","0.0-13.0-2.118","19","Low_HMMActual","","","","","","null","","","","Images/BlackBeadChoiceCorrect.png","","null"
"image-button-response","416","464162","0.0-13.0-0.119","19","Low_HMMActual","","","","","","187","","","","Images/NewTrialBC.png","","0"
"image-button-response","417","464465","0.0-13.0-1.119","19","Low_HMMActual","","","","","","null","","","","Images/BlackBeadChoice.png","","null"
"image-button-response","418","464968","0.0-13.0-2.119","19","Low_HMMActual","","","","","","438.2000000476837","","","","Images/BlackBeadChoiceCorrect.png","","0"
"image-button-response","419","467527","0.0-13.0-0.120","19","Low_HMMActual","","","","","","2556.399999976158","","","","Images/NewTrialBC.png","","3"
"image-button-response","420","467831","0.0-13.0-1.120","19","Low_HMMActual","","","","","","null","","","","Images/WhiteBeadChoice.png","","null"
"image-button-response","421","468334","0.0-13.0-2.120","19","Low_HMMActual","","","","","","null","","","","Images/WhiteBeadChoiceCorrect.png","","null"
"image-button-response","422","470619","0.0-13.0-0.121","19","Low_HMMActual","","","","","","2283.7000000476837","","","","Images/NewTrialWC.png","","3"
"image-button-response","423","470921","0.0-13.0-1.121","19","Low_HMMActual","","","","","","null","","","","Images/WhiteBeadChoice.png","","null"
"image-button-response","424","471423","0.0-13.0-2.121","19","Low_HMMActual","","","","","","null","","","","Images/WhiteBeadChoiceCorrect.png","","null"
"image-button-response","425","471838","0.0-13.0-0.122","19","Low_HMMActual","","","","","","403.5","","","","Images/NewTrialWC.png","","2"
"image-button-response","426","472142","0.0-13.0-1.122","19","Low_HMMActual","","","","","","null","","","","Images/WhiteBeadChoice.png","","null"
"image-button-response","427","472647","0.0-13.0-2.122","19","Low_HMMActual","","","","","","null","","","","Images/WhiteBeadChoiceCorrect.png","","null"
"image-button-response","428","473529","0.0-13.0-0.123","19","Low_HMMActual","","","","","","880.7000000476837","","","","Images/NewTrialWC.png","","1"
"image-button-response","429","473833","0.0-13.0-1.123","19","Low_HMMActual","","","","","","null","","","","Images/BlackBeadChoice.png","","null"
"image-button-response","430","474336","0.0-13.0-2.123","19","Low_HMMActual","","","","","","null","","","","Images/BlackBeadChoiceCorrect.png","","null"
"image-button-response","431","475195","0.0-13.0-0.124","19","Low_HMMActual","","","","","","856.7999999523163","","","","Images/NewTrialBC.png","","0"
"image-button-response","432","475497","0.0-13.0-1.124","19","Low_HMMActual","","","","","","null","","","","Images/BlackBeadChoice.png","","null"
"image-button-response","433","476001","0.0-13.0-2.124","19","Low_HMMActual","","","","","","null","","","","Images/BlackBeadChoiceCorrect.png","","null"
"image-button-response","434","476708","0.0-13.0-0.125","19","Low_HMMActual","","","","","","705.2000000476837","","","","Images/NewTrialBC.png","","0"
"image-button-response","435","477021","0.0-13.0-1.125","19","Low_HMMActual","","","","","","null","","","","Images/BlackBeadChoice.png","","null"
"image-button-response","436","477522","0.0-13.0-2.125","19","Low_HMMActual","","","","","","null","","","","Images/BlackBeadChoiceWrong.png","","null"
"image-button-response","437","478196","0.0-13.0-0.126","19","Low_HMMActual","","","","","","672.1000000238419","","","","Images/NewTrialWC.png","","3"
"image-button-response","438","478500","0.0-13.0-1.126","19","Low_HMMActual","","","","","","null","","","","Images/WhiteBeadChoice.png","","null"
"image-button-response","439","479002","0.0-13.0-2.126","19","Low_HMMActual","","","","","","null","","","","Images/WhiteBeadChoiceWrong.png","","null"
"image-button-response","440","479555","0.0-13.0-0.127","19","Low_HMMActual","","","","","","550.5","","","","Images/NewTrialBC.png","","1"
"image-button-response","441","479859","0.0-13.0-1.127","19","Low_HMMActual","","","","","","null","","","","Images/BlackBeadChoice.png","","null"
"image-button-response","442","480361","0.0-13.0-2.127","19","Low_HMMActual","","","","","","null","","","","Images/BlackBeadChoiceCorrect.png","","null"
"image-button-response","443","480736","0.0-13.0-0.128","19","Low_HMMActual","","","","","","372.2999999523163","","","","Images/NewTrialBC.png","","0"
"image-button-response","444","481040","0.0-13.0-1.128","19","Low_HMMActual","","","","","","null","","","","Images/BlackBeadChoice.png","","null"
"image-button-response","445","481547","0.0-13.0-2.128","19","Low_HMMActual","","","","","","null","","","","Images/BlackBeadChoiceCorrect.png","","null"
"image-button-response","446","483155","0.0-13.0-0.129","19","Low_HMMActual","","","","","","1605.4000000953674","","","","Images/NewTrialBC.png","","0"
"image-button-response","447","483459","0.0-13.0-1.129","19","Low_HMMActual","","","","","","null","","","","Images/BlackBeadChoice.png","","null"
"image-button-response","448","483962","0.0-13.0-2.129","19","Low_HMMActual","","","","","","null","","","","Images/BlackBeadChoiceCorrect.png","","null"
"image-button-response","449","484708","0.0-13.0-0.130","19","Low_HMMActual","","","","","","744.2999999523163","","","","Images/NewTrialBC.png","","3"
"image-button-response","450","485012","0.0-13.0-1.130","19","Low_HMMActual","","","","","","null","","","","Images/WhiteBeadChoice.png","","null"
"image-button-response","451","485517","0.0-13.0-2.130","19","Low_HMMActual","","","","","","null","","","","Images/WhiteBeadChoiceWrong.png","","null"
"image-button-response","452","485743","0.0-13.0-0.131","19","Low_HMMActual","","","","","","224.5","","","","Images/NewTrialBC.png","","3"
"image-button-response","453","486056","0.0-13.0-1.131","19","Low_HMMActual","","","","","","null","","","","Images/WhiteBeadChoice.png","","null"
"image-button-response","454","486557","0.0-13.0-2.131","19","Low_HMMActual","","","","","","null","","","","Images/WhiteBeadChoiceWrong.png","","null"
"image-button-response","455","486770","0.0-13.0-0.132","19","Low_HMMActual","","","","","","210.60000002384186","","","","Images/NewTrialBC.png","","3"
"image-button-response","456","487074","0.0-13.0-1.132","19","Low_HMMActual","","","","","","null","","","","Images/WhiteBeadChoice.png","","null"
"image-button-response","457","487576","0.0-13.0-2.132","19","Low_HMMActual","","","","","","null","","","","Images/WhiteBeadChoiceWrong.png","","null"
"image-button-response","458","487887","0.0-13.0-0.133","19","Low_HMMActual","","","","","","307.2000000476837","","","","Images/NewTrialBC.png","","3"
"image-button-response","459","488191","0.0-13.0-1.133","19","Low_HMMActual","","","","","","null","","","","Images/WhiteBeadChoice.png","","null"
"image-button-response","460","488697","0.0-13.0-2.133","19","Low_HMMActual","","","","","","null","","","","Images/WhiteBeadChoiceWrong.png","","null"
"image-button-response","461","488947","0.0-13.0-0.134","19","Low_HMMActual","","","","","","247.70000004768372","","","","Images/NewTrialBC.png","","3"
"image-button-response","462","489252","0.0-13.0-1.134","19","Low_HMMActual","","","","","","null","","","","Images/WhiteBeadChoice.png","","null"
"image-button-response","463","489757","0.0-13.0-2.134","19","Low_HMMActual","","","","","","null","","","","Images/WhiteBeadChoiceWrong.png","","null"
"image-button-response","464","490071","0.0-13.0-0.135","19","Low_HMMActual","","","","","","312.40000009536743","","","","Images/NewTrialBC.png","","3"
"image-button-response","465","490376","0.0-13.0-1.135","19","Low_HMMActual","","","","","","null","","","","Images/WhiteBeadChoice.png","","null"
"image-button-response","466","490884","0.0-13.0-2.135","19","Low_HMMActual","","","","","","null","","","","Images/WhiteBeadChoiceCorrect.png","","null"
"image-button-response","467","491940","0.0-13.0-0.136","19","Low_HMMActual","","","","","","1054.2000000476837","","","","Images/NewTrialWC.png","","3"
"image-button-response","468","492247","0.0-13.0-1.136","19","Low_HMMActual","","","","","","null","","","","Images/WhiteBeadChoice.png","","null"
"image-button-response","469","492753","0.0-13.0-2.136","19","Low_HMMActual","","","","","","null","","","","Images/WhiteBeadChoiceCorrect.png","","null"
"image-button-response","470","493145","0.0-13.0-0.137","19","Low_HMMActual","","","","","","389.1999999284744","","","","Images/NewTrialWC.png","","3"
"image-button-response","471","493447","0.0-13.0-1.137","19","Low_HMMActual","","","","","","null","","","","Images/WhiteBeadChoice.png","","null"
"image-button-response","472","493950","0.0-13.0-2.137","19","Low_HMMActual","","","","","","null","","","","Images/WhiteBeadChoiceCorrect.png","","null"
"image-button-response","473","494278","0.0-13.0-0.138","19","Low_HMMActual","","","","","","324.90000009536743","","","","Images/NewTrialWC.png","","2"
"image-button-response","474","494582","0.0-13.0-1.138","19","Low_HMMActual","","","","","","null","","","","Images/WhiteBeadChoice.png","","null"
"image-button-response","475","495084","0.0-13.0-2.138","19","Low_HMMActual","","","","","","null","","","","Images/WhiteBeadChoiceCorrect.png","","null"
"image-button-response","476","495960","0.0-13.0-0.139","19","Low_HMMActual","","","","","","874.2999999523163","","","","Images/NewTrialWC.png","","1"
"image-button-response","477","496267","0.0-13.0-1.139","19","Low_HMMActual","","","","","","null","","","","Images/BlackBeadChoice.png","","null"
"image-button-response","478","496772","0.0-13.0-2.139","19","Low_HMMActual","","","","","","null","","","","Images/BlackBeadChoiceWrong.png","","null"
"image-button-response","479","497724","0.0-13.0-0.140","19","Low_HMMActual","","","","","","949.7000000476837","","","","Images/NewTrialWC.png","","3"
"image-button-response","480","498026","0.0-13.0-1.140","19","Low_HMMActual","","","","","","null","","","","Images/WhiteBeadChoice.png","","null"
"image-button-response","481","498529","0.0-13.0-2.140","19","Low_HMMActual","","","","","","null","","","","Images/WhiteBeadChoiceCorrect.png","","null"
"image-button-response","482","499714","0.0-13.0-0.141","19","Low_HMMActual","","","","","","1181.2000000476837","","","","Images/NewTrialWC.png","","3"
"image-button-response","483","500017","0.0-13.0-1.141","19","Low_HMMActual","","","","","","null","","","","Images/WhiteBeadChoice.png","","null"
"image-button-response","484","500519","0.0-13.0-2.141","19","Low_HMMActual","","","","","","null","","","","Images/WhiteBeadChoiceCorrect.png","","null"
"image-button-response","485","501226","0.0-13.0-0.142","19","Low_HMMActual","","","","","","704.3999999761581","","","","Images/NewTrialWC.png","","3"
"image-button-response","486","501531","0.0-13.0-1.142","19","Low_HMMActual","","","","","","null","","","","Images/WhiteBeadChoice.png","","null"
"image-button-response","487","502033","0.0-13.0-2.142","19","Low_HMMActual","","","","","","null","","","","Images/WhiteBeadChoiceWrong.png","","null"
"image-button-response","488","502537","0.0-13.0-0.143","19","Low_HMMActual","","","","","","502.89999997615814","","","","Images/NewTrialBC.png","","1"
"image-button-response","489","502840","0.0-13.0-1.143","19","Low_HMMActual","","","","","","null","","","","Images/BlackBeadChoice.png","","null"
"image-button-response","490","503343","0.0-13.0-2.143","19","Low_HMMActual","","","","","","null","","","","Images/BlackBeadChoiceWrong.png","","null"
"image-button-response","491","504527","0.0-13.0-0.144","19","Low_HMMActual","","","","","","1181.6000000238419","","","","Images/NewTrialWC.png","","1"
"image-button-response","492","504831","0.0-13.0-1.144","19","Low_HMMActual","","","","","","null","","","","Images/BlackBeadChoice.png","","null"
"image-button-response","493","505343","0.0-13.0-2.144","19","Low_HMMActual","","","","","","null","","","","Images/BlackBeadChoiceWrong.png","","null"
"image-button-response","494","505975","0.0-13.0-0.145","19","Low_HMMActual","","","","","","629.3999999761581","","","","Images/NewTrialWC.png","","2"
"image-button-response","495","506277","0.0-13.0-1.145","19","Low_HMMActual","","","","","","null","","","","Images/WhiteBeadChoice.png","","null"
"image-button-response","496","506783","0.0-13.0-2.145","19","Low_HMMActual","","","","","","null","","","","Images/WhiteBeadChoiceCorrect.png","","null"
"image-button-response","497","506953","0.0-13.0-0.146","19","Low_HMMActual","","","","","","168.10000002384186","","","","Images/NewTrialWC.png","","2"
"image-button-response","498","507257","0.0-13.0-1.146","19","Low_HMMActual","","","","","","null","","","","Images/WhiteBeadChoice.png","","null"
"image-button-response","499","507759","0.0-13.0-2.146","19","Low_HMMActual","","","","","","null","","","","Images/WhiteBeadChoiceWrong.png","","null"
"image-button-response","500","508240","0.0-13.0-0.147","19","Low_HMMActual","","","","","","479.2000000476837","","","","Images/NewTrialBC.png","","1"
"image-button-response","501","508552","0.0-13.0-1.147","19","Low_HMMActual","","","","","","null","","","","Images/BlackBeadChoice.png","","null"
"image-button-response","502","509057","0.0-13.0-2.147","19","Low_HMMActual","","","","","","null","","","","Images/BlackBeadChoiceWrong.png","","null"
"image-button-response","503","510529","0.0-13.0-0.148","19","Low_HMMActual","","","","","","1469.7000000476837","","","","Images/NewTrialWC.png","","2"
"image-button-response","504","510836","0.0-13.0-1.148","19","Low_HMMActual","","","","","","null","","","","Images/WhiteBeadChoice.png","","null"
"image-button-response","505","511342","0.0-13.0-2.148","19","Low_HMMActual","","","","","","null","","","","Images/WhiteBeadChoiceCorrect.png","","null"
"image-button-response","506","511630","0.0-13.0-0.149","19","Low_HMMActual","","","","","","283.2999999523163","","","","Images/NewTrialWC.png","","2"
"image-button-response","507","511933","0.0-13.0-1.149","19","Low_HMMActual","","","","","","null","","","","Images/WhiteBeadChoice.png","","null"
"image-button-response","508","512435","0.0-13.0-2.149","19","Low_HMMActual","","","","","","null","","","","Images/WhiteBeadChoiceWrong.png","","null"
"image-button-response","509","512989","0.0-13.0-0.150","19","Low_HMMActual","","","","","","552.2000000476837","","","","Images/NewTrialBC.png","","1"
"image-button-response","510","513296","0.0-13.0-1.150","19","Low_HMMActual","","","","","","null","","","","Images/BlackBeadChoice.png","","null"
"image-button-response","511","513799","0.0-13.0-2.150","19","Low_HMMActual","","","","","","null","","","","Images/BlackBeadChoiceWrong.png","","null"
"image-button-response","512","514121","0.0-13.0-0.151","19","Low_HMMActual","","","","","","320.10000002384186","","","","Images/NewTrialWC.png","","2"
"image-button-response","513","514427","0.0-13.0-1.151","19","Low_HMMActual","","","","","","null","","","","Images/WhiteBeadChoice.png","","null"
"image-button-response","514","514930","0.0-13.0-2.151","19","Low_HMMActual","","","","","","null","","","","Images/WhiteBeadChoiceCorrect.png","","null"
"image-button-response","515","516661","0.0-13.0-0.152","19","Low_HMMActual","","","","","","1727.8000000715256","","","","Images/NewTrialWC.png","","2"
"image-button-response","516","516967","0.0-13.0-1.152","19","Low_HMMActual","","","","","","null","","","","Images/WhiteBeadChoice.png","","null"
"image-button-response","517","517474","0.0-13.0-2.152","19","Low_HMMActual","","","","","","null","","","","Images/WhiteBeadChoiceCorrect.png","","null"
"image-button-response","518","517623","0.0-13.0-0.153","19","Low_HMMActual","","","","","","146.39999997615814","","","","Images/NewTrialWC.png","","2"
"image-button-response","519","517927","0.0-13.0-1.153","19","Low_HMMActual","","","","","","null","","","","Images/WhiteBeadChoice.png","","null"
"image-button-response","520","518435","0.0-13.0-2.153","19","Low_HMMActual","","","","","","null","","","","Images/WhiteBeadChoiceCorrect.png","","null"
"image-button-response","521","518829","0.0-13.0-0.154","19","Low_HMMActual","","","","","","391.60000002384186","","","","Images/NewTrialWC.png","","2"
"image-button-response","522","519134","0.0-13.0-1.154","19","Low_HMMActual","","","","","","null","","","","Images/WhiteBeadChoice.png","","null"
"image-button-response","523","519637","0.0-13.0-2.154","19","Low_HMMActual","","","","","","null","","","","Images/WhiteBeadChoiceCorrect.png","","null"
"image-button-response","524","519783","0.0-13.0-0.155","19","Low_HMMActual","","","","","","144.29999995231628","","","","Images/NewTrialWC.png","","2"
"image-button-response","525","520087","0.0-13.0-1.155","19","Low_HMMActual","","","","","","null","","","","Images/WhiteBeadChoice.png","","null"
"image-button-response","526","520589","0.0-13.0-2.155","19","Low_HMMActual","","","","","","null","","","","Images/WhiteBeadChoiceWrong.png","","null"
"image-button-response","527","521604","0.0-13.0-0.156","19","Low_HMMActual","","","","","","1013.1000000238419","","","","Images/NewTrialBC.png","","1"
"image-button-response","528","521908","0.0-13.0-1.156","19","Low_HMMActual","","","","","","null","","","","Images/BlackBeadChoice.png","","null"
"image-button-response","529","522411","0.0-13.0-2.156","19","Low_HMMActual","","","","","","null","","","","Images/BlackBeadChoiceCorrect.png","","null"
"image-button-response","530","522566","0.0-13.0-0.157","19","Low_HMMActual","","","","","","152.80000007152557","","","","Images/NewTrialBC.png","","1"
"image-button-response","531","522870","0.0-13.0-1.157","19","Low_HMMActual","","","","","","null","","","","Images/BlackBeadChoice.png","","null"
"image-button-response","532","523377","0.0-13.0-2.157","19","Low_HMMActual","","","","","","null","","","","Images/BlackBeadChoiceCorrect.png","","null"
"image-button-response","533","524718","0.0-13.0-0.158","19","Low_HMMActual","","","","","","1336.6000000238419","","","","Images/NewTrialBC.png","","1"
"image-button-response","534","525022","0.0-13.0-1.158","19","Low_HMMActual","","","","","","null","","","","Images/BlackBeadChoice.png","","null"
"image-button-response","535","525525","0.0-13.0-2.158","19","Low_HMMActual","","","","","","null","","","","Images/BlackBeadChoiceCorrect.png","","null"
"image-button-response","536","526102","0.0-13.0-0.159","19","Low_HMMActual","","","","","","575.1000000238419","","","","Images/NewTrialBC.png","","0"
"image-button-response","537","526407","0.0-13.0-1.159","19","Low_HMMActual","","","","","","null","","","","Images/BlackBeadChoice.png","","null"
"image-button-response","538","526910","0.0-13.0-2.159","19","Low_HMMActual","","","","","","null","","","","Images/BlackBeadChoiceCorrect.png","","null"
"image-button-response","539","527387","0.0-13.0-0.160","19","Low_HMMActual","","","","","","475.5","","","","Images/NewTrialBC.png","","0"
"image-button-response","540","527692","0.0-13.0-1.160","19","Low_HMMActual","","","","","","null","","","","Images/BlackBeadChoice.png","","null"
"image-button-response","541","528196","0.0-13.0-2.160","19","Low_HMMActual","","","","","","null","","","","Images/BlackBeadChoiceCorrect.png","","null"
"image-button-response","542","528722","0.0-13.0-0.161","19","Low_HMMActual","","","","","","522.1999999284744","","","","Images/NewTrialBC.png","","0"
"image-button-response","543","529027","0.0-13.0-1.161","19","Low_HMMActual","","","","","","null","","","","Images/BlackBeadChoice.png","","null"
"image-button-response","544","529528","0.0-13.0-2.161","19","Low_HMMActual","","","","","","null","","","","Images/BlackBeadChoiceWrong.png","","null"
"image-button-response","545","530251","0.0-13.0-0.162","19","Low_HMMActual","","","","","","720.8000000715256","","","","Images/NewTrialWC.png","","2"
"image-button-response","546","530554","0.0-13.0-1.162","19","Low_HMMActual","","","","","","null","","","","Images/WhiteBeadChoice.png","","null"
"image-button-response","547","531057","0.0-13.0-2.162","19","Low_HMMActual","","","","","","null","","","","Images/WhiteBeadChoiceCorrect.png","","null"
"image-button-response","548","532540","0.0-13.0-0.163","19","Low_HMMActual","","","","","","1480.6999999284744","","","","Images/NewTrialWC.png","","2"
"image-button-response","549","532847","0.0-13.0-1.163","19","Low_HMMActual","","","","","","null","","","","Images/WhiteBeadChoice.png","","null"
"image-button-response","550","533353","0.0-13.0-2.163","19","Low_HMMActual","","","","","","null","","","","Images/WhiteBeadChoiceCorrect.png","","null"
"image-button-response","551","533891","0.0-13.0-0.164","19","Low_HMMActual","","","","","","535.1000000238419","","","","Images/NewTrialWC.png","","2"
"image-button-response","552","534197","0.0-13.0-1.164","19","Low_HMMActual","","","","","","null","","","","Images/WhiteBeadChoice.png","","null"
"image-button-response","553","534710","0.0-13.0-2.164","19","Low_HMMActual","","","","","","null","","","","Images/WhiteBeadChoiceCorrect.png","","null"
"image-button-response","554","535242","0.0-13.0-0.165","19","Low_HMMActual","","","","","","530.3999999761581","","","","Images/NewTrialWC.png","","2"
"image-button-response","555","535547","0.0-13.0-1.165","19","Low_HMMActual","","","","","","null","","","","Images/WhiteBeadChoice.png","","null"
"image-button-response","556","536052","0.0-13.0-2.165","19","Low_HMMActual","","","","","","null","","","","Images/WhiteBeadChoiceCorrect.png","","null"
"image-button-response","557","536569","0.0-13.0-0.166","19","Low_HMMActual","","","","","","514.7000000476837","","","","Images/NewTrialWC.png","","2"
"image-button-response","558","536874","0.0-13.0-1.166","19","Low_HMMActual","","","","","","null","","","","Images/WhiteBeadChoice.png","","null"
"image-button-response","559","537376","0.0-13.0-2.166","19","Low_HMMActual","","","","","","null","","","","Images/WhiteBeadChoiceCorrect.png","","null"
"image-button-response","560","537839","0.0-13.0-0.167","19","Low_HMMActual","","","","","","461.5","","","","Images/NewTrialWC.png","","2"
"image-button-response","561","538142","0.0-13.0-1.167","19","Low_HMMActual","","","","","","null","","","","Images/WhiteBeadChoice.png","","null"
"image-button-response","562","538644","0.0-13.0-2.167","19","Low_HMMActual","","","","","","null","","","","Images/WhiteBeadChoiceCorrect.png","","null"
"image-button-response","563","539474","0.0-13.0-0.168","19","Low_HMMActual","","","","","","826.6000000238419","","","","Images/NewTrialWC.png","","1"
"image-button-response","564","539778","0.0-13.0-1.168","19","Low_HMMActual","","","","","","null","","","","Images/BlackBeadChoice.png","","null"
"image-button-response","565","540279","0.0-13.0-2.168","19","Low_HMMActual","","","","","","null","","","","Images/BlackBeadChoiceCorrect.png","","null"
"image-button-response","566","540767","0.0-13.0-0.169","19","Low_HMMActual","","","","","","486.5","","","","Images/NewTrialBC.png","","0"
"image-button-response","567","541072","0.0-13.0-1.169","19","Low_HMMActual","","","","","","null","","","","Images/BlackBeadChoice.png","","null"
"image-button-response","568","541576","0.0-13.0-2.169","19","Low_HMMActual","","","","","","null","","","","Images/BlackBeadChoiceWrong.png","","null"
"image-button-response","569","542118","0.0-13.0-0.170","19","Low_HMMActual","","","","","","540.2000000476837","","","","Images/NewTrialWC.png","","2"
"image-button-response","570","542425","0.0-13.0-1.170","19","Low_HMMActual","","","","","","null","","","","Images/WhiteBeadChoice.png","","null"
"image-button-response","571","542927","0.0-13.0-2.170","19","Low_HMMActual","","","","","","null","","","","Images/WhiteBeadChoiceCorrect.png","","null"
"image-button-response","572","543145","0.0-13.0-0.171","19","Low_HMMActual","","","","","","215.90000009536743","","","","Images/NewTrialWC.png","","2"
"image-button-response","573","543457","0.0-13.0-1.171","19","Low_HMMActual","","","","","","null","","","","Images/WhiteBeadChoice.png","","null"
"image-button-response","574","543960","0.0-13.0-2.171","19","Low_HMMActual","","","","","","null","","","","Images/WhiteBeadChoiceCorrect.png","","null"
"image-button-response","575","544375","0.0-13.0-0.172","19","Low_HMMActual","","","","","","413.60000002384186","","","","Images/NewTrialWC.png","","2"
"image-button-response","576","544679","0.0-13.0-1.172","19","Low_HMMActual","","","","","","null","","","","Images/WhiteBeadChoice.png","","null"
"image-button-response","577","545181","0.0-13.0-2.172","19","Low_HMMActual","","","","","","null","","","","Images/WhiteBeadChoiceCorrect.png","","null"
"image-button-response","578","545694","0.0-13.0-0.173","19","Low_HMMActual","","","","","","509.2999999523163","","","","Images/NewTrialWC.png","","2"
"image-button-response","579","545998","0.0-13.0-1.173","19","Low_HMMActual","","","","","","null","","","","Images/WhiteBeadChoice.png","","null"
"image-button-response","580","546505","0.0-13.0-2.173","19","Low_HMMActual","","","","","","null","","","","Images/WhiteBeadChoiceCorrect.png","","null"
"image-button-response","581","547976","0.0-13.0-0.174","19","Low_HMMActual","","","","","","1468.3999999761581","","","","Images/NewTrialWC.png","","0"
"image-button-response","582","548278","0.0-13.0-1.174","19","Low_HMMActual","","","","","","null","","","","Images/BlackBeadChoice.png","","null"
"image-button-response","583","548782","0.0-13.0-2.174","19","Low_HMMActual","","","","","","null","","","","Images/BlackBeadChoiceWrong.png","","null"
"image-button-response","584","548971","0.0-13.0-0.175","19","Low_HMMActual","","","","","","186.89999997615814","","","","Images/NewTrialWC.png","","0"
"image-button-response","585","549277","0.0-13.0-1.175","19","Low_HMMActual","","","","","","null","","","","Images/BlackBeadChoice.png","","null"
"image-button-response","586","549781","0.0-13.0-2.175","19","Low_HMMActual","","","","","","null","","","","Images/BlackBeadChoiceCorrect.png","","null"
"image-button-response","587","550936","0.0-13.0-0.176","19","Low_HMMActual","","","","","","1153.3000000715256","","","","Images/NewTrialBC.png","","0"
"image-button-response","588","551241","0.0-13.0-1.176","19","Low_HMMActual","","","","","","null","","","","Images/BlackBeadChoice.png","","null"
"image-button-response","589","551748","0.0-13.0-2.176","19","Low_HMMActual","","","","","","null","","","","Images/BlackBeadChoiceCorrect.png","","null"
"image-button-response","590","552191","0.0-13.0-0.177","19","Low_HMMActual","","","","","","441.10000002384186","","","","Images/NewTrialBC.png","","0"
"image-button-response","591","552493","0.0-13.0-1.177","19","Low_HMMActual","","","","","","null","","","","Images/BlackBeadChoice.png","","null"
"image-button-response","592","553004","0.0-13.0-2.177","19","Low_HMMActual","","","","","","null","","","","Images/BlackBeadChoiceCorrect.png","","null"
"image-button-response","593","553864","0.0-13.0-0.178","19","Low_HMMActual","","","","","","857.9000000953674","","","","Images/NewTrialBC.png","","0"
"image-button-response","594","554168","0.0-13.0-1.178","19","Low_HMMActual","","","","","","null","","","","Images/BlackBeadChoice.png","","null"
"image-button-response","595","554670","0.0-13.0-2.178","19","Low_HMMActual","","","","","","null","","","","Images/BlackBeadChoiceWrong.png","","null"
"image-button-response","596","556202","0.0-13.0-0.179","19","Low_HMMActual","","","","","","1529.3999999761581","","","","Images/NewTrialWC.png","","2"
"image-button-response","597","556508","0.0-13.0-1.179","19","Low_HMMActual","","","","","","null","","","","Images/WhiteBeadChoice.png","","null"
"image-button-response","598","557011","0.0-13.0-2.179","19","Low_HMMActual","","","","","","null","","","","Images/WhiteBeadChoiceWrong.png","","null"
"image-button-response","599","559228","0.0-13.0-0.180","19","Low_HMMActual","","","","","","2206.2000000476837","","","","Images/NewTrialBC.png","","1"
"image-button-response","600","559533","0.0-13.0-1.180","19","Low_HMMActual","","","","","","null","","","","Images/BlackBeadChoice.png","","null"
"image-button-response","601","560035","0.0-13.0-2.180","19","Low_HMMActual","","","","","","null","","","","Images/BlackBeadChoiceCorrect.png","","null"
"image-button-response","602","560620","0.0-13.0-0.181","19","Low_HMMActual","","","","","","583","","","","Images/NewTrialBC.png","","0"
"image-button-response","603","560928","0.0-13.0-1.181","19","Low_HMMActual","","","","","","null","","","","Images/BlackBeadChoice.png","","null"
"image-button-response","604","561432","0.0-13.0-2.181","19","Low_HMMActual","","","","","","null","","","","Images/BlackBeadChoiceCorrect.png","","null"
"image-button-response","605","562650","0.0-13.0-0.182","19","Low_HMMActual","","","","","","1215.2000000476837","","","","Images/NewTrialBC.png","","0"
"image-button-response","606","562953","0.0-13.0-1.182","19","Low_HMMActual","","","","","","null","","","","Images/BlackBeadChoice.png","","null"
"image-button-response","607","563456","0.0-13.0-2.182","19","Low_HMMActual","","","","","","null","","","","Images/BlackBeadChoiceCorrect.png","","null"
"image-button-response","608","564608","0.0-13.0-0.183","19","Low_HMMActual","","","","","","1149.3999999761581","","","","Images/NewTrialBC.png","","3"
"image-button-response","609","564912","0.0-13.0-1.183","19","Low_HMMActual","","","","","","null","","","","Images/WhiteBeadChoice.png","","null"
"image-button-response","610","565415","0.0-13.0-2.183","19","Low_HMMActual","","","","","","null","","","","Images/WhiteBeadChoiceWrong.png","","null"
"image-button-response","611","565732","0.0-13.0-0.184","19","Low_HMMActual","","","","","","314.5","","","","Images/NewTrialBC.png","","3"
"image-button-response","612","566037","0.0-13.0-1.184","19","Low_HMMActual","","","","","","null","","","","Images/WhiteBeadChoice.png","","null"
"image-button-response","613","566541","0.0-13.0-2.184","19","Low_HMMActual","","","","","","null","","","","Images/WhiteBeadChoiceWrong.png","","null"
"image-button-response","614","566978","0.0-13.0-0.185","19","Low_HMMActual","","","","","","435.5","","","","Images/NewTrialBC.png","","3"
"image-button-response","615","567283","0.0-13.0-1.185","19","Low_HMMActual","","","","","","null","","","","Images/WhiteBeadChoice.png","","null"
"image-button-response","616","567788","0.0-13.0-2.185","19","Low_HMMActual","","","","","","null","","","","Images/WhiteBeadChoiceWrong.png","","null"
"image-button-response","617","568030","0.0-13.0-0.186","19","Low_HMMActual","","","","","","240.10000002384186","","","","Images/NewTrialBC.png","","3"
"image-button-response","618","568334","0.0-13.0-1.186","19","Low_HMMActual","","","","","","null","","","","Images/WhiteBeadChoice.png","","null"
"image-button-response","619","568838","0.0-13.0-2.186","19","Low_HMMActual","","","","","","null","","","","Images/WhiteBeadChoiceWrong.png","","null"
"image-button-response","620","569656","0.0-13.0-0.187","19","Low_HMMActual","","","","","","815.3999999761581","","","","Images/NewTrialBC.png","","0"
"image-button-response","621","569958","0.0-13.0-1.187","19","Low_HMMActual","","","","","","null","","","","Images/BlackBeadChoice.png","","null"
"image-button-response","622","570460","0.0-13.0-2.187","19","Low_HMMActual","","","","","","null","","","","Images/BlackBeadChoiceWrong.png","","null"
"image-button-response","623","570642","0.0-13.0-0.188","19","Low_HMMActual","","","","","","180.5","","","","Images/NewTrialWC.png","","3"
"image-button-response","624","570947","0.0-13.0-1.188","19","Low_HMMActual","","","","","","null","","","","Images/WhiteBeadChoice.png","","null"
"image-button-response","625","571449","0.0-13.0-2.188","19","Low_HMMActual","","","","","","null","","","","Images/WhiteBeadChoiceCorrect.png","","null"
"image-button-response","626","572471","0.0-13.0-0.189","19","Low_HMMActual","","","","","","1020.3999999761581","","","","Images/NewTrialWC.png","","2"
"image-button-response","627","572773","0.0-13.0-1.189","19","Low_HMMActual","","","","","","null","","","","Images/WhiteBeadChoice.png","","null"
"image-button-response","628","573276","0.0-13.0-2.189","19","Low_HMMActual","","","","","","null","","","","Images/WhiteBeadChoiceCorrect.png","","null"
"image-button-response","629","573652","0.0-13.0-0.190","19","Low_HMMActual","","","","","","373.5","","","","Images/NewTrialWC.png","","2"
"image-button-response","630","573954","0.0-13.0-1.190","19","Low_HMMActual","","","","","","null","","","","Images/WhiteBeadChoice.png","","null"
"image-button-response","631","574458","0.0-13.0-2.190","19","Low_HMMActual","","","","","","null","","","","Images/WhiteBeadChoiceCorrect.png","","null"
"image-button-response","632","576217","0.0-13.0-0.191","19","Low_HMMActual","","","","","","1755.7000000476837","","","","Images/NewTrialWC.png","","2"
"image-button-response","633","576521","0.0-13.0-1.191","19","Low_HMMActual","","","","","","null","","","","Images/WhiteBeadChoice.png","","null"
"image-button-response","634","577028","0.0-13.0-2.191","19","Low_HMMActual","","","","","","null","","","","Images/WhiteBeadChoiceCorrect.png","","null"
"image-button-response","635","577382","0.0-13.0-0.192","19","Low_HMMActual","","","","","","352","","","","Images/NewTrialWC.png","","2"
"image-button-response","636","577687","0.0-13.0-1.192","19","Low_HMMActual","","","","","","null","","","","Images/WhiteBeadChoice.png","","null"
"image-button-response","637","578193","0.0-13.0-2.192","19","Low_HMMActual","","","","","","null","","","","Images/WhiteBeadChoiceCorrect.png","","null"
"image-button-response","638","578651","0.0-13.0-0.193","19","Low_HMMActual","","","","","","456.2999999523163","","","","Images/NewTrialWC.png","","2"
"image-button-response","639","578957","0.0-13.0-1.193","19","Low_HMMActual","","","","","","null","","","","Images/WhiteBeadChoice.png","","null"
"image-button-response","640","579462","0.0-13.0-2.193","19","Low_HMMActual","","","","","","null","","","","Images/WhiteBeadChoiceCorrect.png","","null"
"image-button-response","641","579905","0.0-13.0-0.194","19","Low_HMMActual","","","","","","440.7999999523163","","","","Images/NewTrialWC.png","","2"
"image-button-response","642","580211","0.0-13.0-1.194","19","Low_HMMActual","","","","","","null","","","","Images/WhiteBeadChoice.png","","null"
"image-button-response","643","580717","0.0-13.0-2.194","19","Low_HMMActual","","","","","","null","","","","Images/WhiteBeadChoiceCorrect.png","","null"
"image-button-response","644","581993","0.0-13.0-0.195","19","Low_HMMActual","","","","","","1265.7000000476837","","","","Images/NewTrialWC.png","","1"
"image-button-response","645","582295","0.0-13.0-1.195","19","Low_HMMActual","","","","","","null","","","","Images/BlackBeadChoice.png","","null"
"image-button-response","646","582798","0.0-13.0-2.195","19","Low_HMMActual","","","","","","null","","","","Images/BlackBeadChoiceWrong.png","","null"
"image-button-response","647","583772","0.0-13.0-0.196","19","Low_HMMActual","","","","","","972.0999999046326","","","","Images/NewTrialWC.png","","2"
"image-button-response","648","584075","0.0-13.0-1.196","19","Low_HMMActual","","","","","","null","","","","Images/WhiteBeadChoice.png","","null"
"image-button-response","649","584579","0.0-13.0-2.196","19","Low_HMMActual","","","","","","null","","","","Images/WhiteBeadChoiceCorrect.png","","null"
"image-button-response","650","585819","0.0-13.0-0.197","19","Low_HMMActual","","","","","","1238.3000000715256","","","","Images/NewTrialWC.png","","2"
"image-button-response","651","586126","0.0-13.0-1.197","19","Low_HMMActual","","","","","","null","","","","Images/WhiteBeadChoice.png","","null"
"image-button-response","652","586629","0.0-13.0-2.197","19","Low_HMMActual","","","","","","null","","","","Images/WhiteBeadChoiceCorrect.png","","null"
"image-button-response","653","587794","0.0-13.0-0.198","19","Low_HMMActual","","","","","","1152.7999999523163","","","","Images/NewTrialWC.png","","2"
"image-button-response","654","588096","0.0-13.0-1.198","19","Low_HMMActual","","","","","","null","","","","Images/WhiteBeadChoice.png","","null"
"image-button-response","655","588599","0.0-13.0-2.198","19","Low_HMMActual","","","","","","null","","","","Images/WhiteBeadChoiceWrong.png","","null"
"image-button-response","656","589056","0.0-13.0-0.199","19","Low_HMMActual","","","","","","454.7000000476837","","","","Images/NewTrialBC.png","","0"
"image-button-response","657","589358","0.0-13.0-1.199","19","Low_HMMActual","","","","","","null","","","","Images/BlackBeadChoice.png","","null"
"image-button-response","658","589861","0.0-13.0-2.199","19","Low_HMMActual","","","","","","null","","","","Images/BlackBeadChoiceWrong.png","","null"
"image-button-response","659","590844","0.0-13.0-0.200","19","Low_HMMActual","","","","","","980.1999999284744","","","","Images/NewTrialWC.png","","1"
"image-button-response","660","591148","0.0-13.0-1.200","19","Low_HMMActual","","","","","","null","","","","Images/BlackBeadChoice.png","","null"
"image-button-response","661","591653","0.0-13.0-2.200","19","Low_HMMActual","","","","","","null","","","","Images/BlackBeadChoiceWrong.png","","null"
"image-button-response","662","592534","0.0-13.0-0.201","19","Low_HMMActual","","","","","","869.7000000476837","","","","Images/NewTrialWC.png","","2"
"image-button-response","663","592837","0.0-13.0-1.201","19","Low_HMMActual","","","","","","null","","","","Images/WhiteBeadChoice.png","","null"
"image-button-response","664","593340","0.0-13.0-2.201","19","Low_HMMActual","","","","","","null","","","","Images/WhiteBeadChoiceWrong.png","","null"
"image-button-response","665","593480","0.0-13.0-0.202","19","Low_HMMActual","","","","","","138.70000004768372","","","","Images/NewTrialBC.png","","0"
