"trial_type","trial_index","time_elapsed","internal_node_id","Script_Picker","Block_Type","success","timeout","failed_images","failed_audio","failed_video","rt","url","responses","question_order","stimulus","key_press","response"
"pavlovia","0","31","0.0-0.0","17","Low_HMMActual","","","","","","","","","","","",""
"preload","1","33","0.0-1.0","17","Low_HMMActual","true","false","[]","[]","[]","","","","","","",""
"external-html","2","3655","0.0-2.0-0.0","17","Low_HMMActual","","","","","","3480.39999999851","consent.html","","","","",""
"survey-multi-choice","3","64586","0.0-2.0-1.0","17","Low_HMMActual","","","","","","60929.10000000149","","{""Q0"":""Male"",""Q1"":""White""}","[0,1]","","",""
"survey-text","4","67329","0.0-2.0-2.0","17","Low_HMMActual","","","","","","2737.7000000029802","","{""Q0"":""20""}","","","",""
"survey-text","5","73640","0.0-2.0-3.0","17","Low_HMMActual","","","","","","6204.89999999851","","{""Q0"":""5ead88170d11e706162e0fcd""}","","","",""
"image-keyboard-response","6","130274","0.0-3.0-0.0","17","Low_HMMActual","","","","","","56521.39999999851","","","","tutorial/tutorial1.png"," ",""
"image-keyboard-response","7","134077","0.0-3.0-0.1","17","Low_HMMActual","","","","","","3802.5","","","","tutorial/tutorial2.png"," ",""
"image-keyboard-response","8","137195","0.0-3.0-0.2","17","Low_HMMActual","","","","","","3116.5","","","","tutorial/tutorial3.png"," ",""
"image-keyboard-response","9","139731","0.0-3.0-0.3","17","Low_HMMActual","","","","","","2535.199999999255","","","","tutorial/tutorial4.png"," ",""
"image-keyboard-response","10","141800","0.0-3.0-0.4","17","Low_HMMActual","","","","","","2068","","","","tutorial/tutorial5.png"," ",""
"image-keyboard-response","11","147730","0.0-3.0-0.5","17","Low_HMMActual","","","","","","5928.699999999255","","","","tutorial/tutorial6.png"," ",""
"image-keyboard-response","12","151184","0.0-3.0-0.6","17","Low_HMMActual","","","","","","3453.300000000745","","","","tutorial/tutorial7.png"," ",""
"image-keyboard-response","13","171872","0.0-3.0-0.7","17","Low_HMMActual","","","","","","20687.20000000298","","","","tutorial/tutorial8.png"," ",""
"image-keyboard-response","14","174660","0.0-3.0-0.8","17","Low_HMMActual","","","","","","2786.800000000745","","","","tutorial/tutorial9.png"," ",""
"image-keyboard-response","15","181379","0.0-3.0-0.9","17","Low_HMMActual","","","","","","6717.599999997765","","","","tutorial/tutorial10.png"," ",""
"image-keyboard-response","16","188997","0.0-3.0-0.10","17","Low_HMMActual","","","","","","7617.800000000745","","","","tutorial/tutorial11.png"," ",""
"image-keyboard-response","17","237589","0.0-3.0-0.11","17","Low_HMMActual","","","","","","48590.699999999255","","","","tutorial/tutorial12.png"," ",""
"image-keyboard-response","18","241178","0.0-3.0-0.12","17","Low_HMMActual","","","","","","3588.699999999255","","","","tutorial/tutorial13.png"," ",""
"image-keyboard-response","19","243545","0.0-3.0-0.13","17","Low_HMMActual","","","","","","2366.89999999851","","","","tutorial/tutorial14.png"," ",""
"image-keyboard-response","20","246115","0.0-3.0-0.14","17","Low_HMMActual","","","","","","2569.7999999970198","","","","tutorial/tutorial15.png"," ",""
"image-keyboard-response","21","251179","0.0-4.0","17","Low_HMMActual","","","","","","5063.599999997765","","","","tutorial/tutorial16.png","arrowup",""
"image-keyboard-response","22","260892","0.0-5.0","17","Low_HMMActual","","","","","","7742","","","","tutorial/tutorial17.png","arrowright",""
"image-keyboard-response","23","267955","0.0-6.0","17","Low_HMMActual","","","","","","5679.5","","","","tutorial/tutorial18.png","arrowleft",""
"image-keyboard-response","24","273501","0.0-7.0","17","Low_HMMActual","","","","","","4317.10000000149","","","","tutorial/tutorial19.png"," ",""
"html-keyboard-response","25","281796","0.0-8.0","18","Low_HMMActual","","","","","","8292.300000000745","","","","<div class=""container"" style=""height:800px;width:800px;display:flex;flex-direction:column;justify-content:center;align-items:center;text-align:center;font-weight:normal;font-family:Arial;font-size:20px""><p>Loading episode&hellip;</p><div>"," ",""
"image-button-response","26","295192","0.0-9.0-0.0","18","Low_HMMActual","","","","","","13393.300000000745","","","","Images/NoChoice.png","","2"
"image-button-response","27","295495","0.0-9.0-1.0","18","Low_HMMActual","","","","","","null","","","","Images/WhiteBeadChoice.png","","null"
"image-button-response","28","295997","0.0-9.0-2.0","18","Low_HMMActual","","","","","","null","","","","Images/WhiteBeadChoiceCorrect.png","","null"
"image-button-response","29","306018","0.0-9.0-0.1","18","Low_HMMActual","","","","","","10012.10000000149","","","","Images/NewTrialWC.png","","2"
"image-button-response","30","306325","0.0-9.0-1.1","18","Low_HMMActual","","","","","","null","","","","Images/WhiteBeadChoice.png","","null"
"image-button-response","31","306827","0.0-9.0-2.1","18","Low_HMMActual","","","","","","null","","","","Images/WhiteBeadChoiceCorrect.png","","null"
"image-button-response","32","310342","0.0-9.0-0.2","18","Low_HMMActual","","","","","","3513.5","","","","Images/NewTrialWC.png","","2"
"image-button-response","33","310645","0.0-9.0-1.2","18","Low_HMMActual","","","","","","null","","","","Images/WhiteBeadChoice.png","","null"
"image-button-response","34","311147","0.0-9.0-2.2","18","Low_HMMActual","","","","","","null","","","","Images/WhiteBeadChoiceCorrect.png","","null"
"image-button-response","35","476754","0.0-9.0-0.3","18","Low_HMMActual","","","","","","165605.19999999925","","","","Images/NewTrialWC.png","","1"
"image-button-response","36","477056","0.0-9.0-1.3","18","Low_HMMActual","","","","","","null","","","","Images/BlackBeadChoice.png","","null"
"image-button-response","37","477557","0.0-9.0-2.3","18","Low_HMMActual","","","","","","null","","","","Images/BlackBeadChoiceCorrect.png","","null"
"image-button-response","38","481295","0.0-9.0-0.4","18","Low_HMMActual","","","","","","3736.5","","","","Images/NewTrialBC.png","","1"
"image-button-response","39","481601","0.0-9.0-1.4","18","Low_HMMActual","","","","","","null","","","","Images/BlackBeadChoice.png","","null"
"image-button-response","40","482102","0.0-9.0-2.4","18","Low_HMMActual","","","","","","null","","","","Images/BlackBeadChoiceWrong.png","","null"
"image-button-response","41","483510","0.0-9.0-0.5","18","Low_HMMActual","","","","","","1405.3999999985099","","","","Images/NewTrialWC.png","","3"
"image-button-response","42","483812","0.0-9.0-1.5","18","Low_HMMActual","","","","","","null","","","","Images/WhiteBeadChoice.png","","null"
"image-button-response","43","484313","0.0-9.0-2.5","18","Low_HMMActual","","","","","","null","","","","Images/WhiteBeadChoiceCorrect.png","","null"
"image-button-response","44","486749","0.0-9.0-0.6","18","Low_HMMActual","","","","","","2434.300000000745","","","","Images/NewTrialWC.png","","3"
"image-button-response","45","487050","0.0-9.0-1.6","18","Low_HMMActual","","","","","","null","","","","Images/WhiteBeadChoice.png","","null"
"image-button-response","46","487551","0.0-9.0-2.6","18","Low_HMMActual","","","","","","null","","","","Images/WhiteBeadChoiceWrong.png","","null"
"image-button-response","47","681104","0.0-9.0-0.7","18","Low_HMMActual","","","","","","193550.6000000015","","","","Images/NewTrialBC.png","","3"
"image-button-response","48","681406","0.0-9.0-1.7","18","Low_HMMActual","","","","","","null","","","","Images/WhiteBeadChoice.png","","null"
"image-button-response","49","681909","0.0-9.0-2.7","18","Low_HMMActual","","","","","","null","","","","Images/WhiteBeadChoiceCorrect.png","","null"
"image-button-response","50","682539","0.0-9.0-0.8","18","Low_HMMActual","","","","","","628.6000000014901","","","","Images/NewTrialWC.png","","3"
"image-button-response","51","682841","0.0-9.0-1.8","18","Low_HMMActual","","","","","","null","","","","Images/WhiteBeadChoice.png","","null"
"image-button-response","52","683343","0.0-9.0-2.8","18","Low_HMMActual","","","","","","null","","","","Images/WhiteBeadChoiceCorrect.png","","null"
"image-button-response","53","689319","0.0-9.0-0.9","18","Low_HMMActual","","","","","","5973.800000000745","","","","Images/NewTrialWC.png","","2"
"image-button-response","54","689622","0.0-9.0-1.9","18","Low_HMMActual","","","","","","null","","","","Images/WhiteBeadChoice.png","","null"
"image-button-response","55","690125","0.0-9.0-2.9","18","Low_HMMActual","","","","","","null","","","","Images/WhiteBeadChoiceWrong.png","","null"
"html-keyboard-response","56","693107","0.0-10.0","18","Low_HMMActual","","","","","","2981","","","",""," ",""
"image-keyboard-response","57","695730","0.0-11.0","18","Low_HMMActual","","","","","","2622.2999999970198","","","","tutorial/tutorial20.png"," ",""
"html-keyboard-response","58","883944","0.0-12.0","19","Low_HMMActual","","","","","","188210.30000000075","","","","<div class=""container"" style=""height:800px;width:800px;display:flex;flex-direction:column;justify-content:center;align-items:center;text-align:center;font-weight:normal;font-family:Arial;font-size:20px""><p>Loading episode&hellip;</p><div>"," ",""
"image-button-response","59","889623","0.0-13.0-0.0","19","Low_HMMActual","","","","","","5675.400000002235","","","","Images/NoChoice.png","","3"
"image-button-response","60","889933","0.0-13.0-1.0","19","Low_HMMActual","","","","","","null","","","","Images/WhiteBeadChoice.png","","null"
"image-button-response","61","890436","0.0-13.0-2.0","19","Low_HMMActual","","","","","","null","","","","Images/WhiteBeadChoiceCorrect.png","","null"
"image-button-response","62","891763","0.0-13.0-0.1","19","Low_HMMActual","","","","","","1324.6000000014901","","","","Images/NewTrialWC.png","","3"
"image-button-response","63","892076","0.0-13.0-1.1","19","Low_HMMActual","","","","","","null","","","","Images/WhiteBeadChoice.png","","null"
"image-button-response","64","892580","0.0-13.0-2.1","19","Low_HMMActual","","","","","","null","","","","Images/WhiteBeadChoiceCorrect.png","","null"
"image-button-response","65","894528","0.0-13.0-0.2","19","Low_HMMActual","","","","","","1945.800000000745","","","","Images/NewTrialWC.png","","3"
"image-button-response","66","894830","0.0-13.0-1.2","19","Low_HMMActual","","","","","","null","","","","Images/WhiteBeadChoice.png","","null"
"image-button-response","67","895332","0.0-13.0-2.2","19","Low_HMMActual","","","","","","null","","","","Images/WhiteBeadChoiceCorrect.png","","null"
"image-button-response","68","897543","0.0-13.0-0.3","19","Low_HMMActual","","","","","","2208.300000000745","","","","Images/NewTrialWC.png","","2"
"image-button-response","69","897859","0.0-13.0-1.3","19","Low_HMMActual","","","","","","null","","","","Images/WhiteBeadChoice.png","","null"
"image-button-response","70","898360","0.0-13.0-2.3","19","Low_HMMActual","","","","","","null","","","","Images/WhiteBeadChoiceCorrect.png","","null"
"image-button-response","71","899031","0.0-13.0-0.4","19","Low_HMMActual","","","","","","668.5","","","","Images/NewTrialWC.png","","2"
"image-button-response","72","899332","0.0-13.0-1.4","19","Low_HMMActual","","","","","","null","","","","Images/WhiteBeadChoice.png","","null"
"image-button-response","73","899838","0.0-13.0-2.4","19","Low_HMMActual","","","","","","null","","","","Images/WhiteBeadChoiceCorrect.png","","null"
"image-button-response","74","900675","0.0-13.0-0.5","19","Low_HMMActual","","","","","","834.9000000022352","","","","Images/NewTrialWC.png","","2"
"image-button-response","75","900986","0.0-13.0-1.5","19","Low_HMMActual","","","","","","null","","","","Images/WhiteBeadChoice.png","","null"
"image-button-response","76","901503","0.0-13.0-2.5","19","Low_HMMActual","","","","","","null","","","","Images/WhiteBeadChoiceWrong.png","","null"
"image-button-response","77","905786","0.0-13.0-0.6","19","Low_HMMActual","","","","","","4282","","","","Images/NewTrialBC.png","","0"
"image-button-response","78","906089","0.0-13.0-1.6","19","Low_HMMActual","","","","","","null","","","","Images/BlackBeadChoice.png","","null"
"image-button-response","79","906591","0.0-13.0-2.6","19","Low_HMMActual","","","","","","null","","","","Images/BlackBeadChoiceCorrect.png","","null"
"image-button-response","80","907040","0.0-13.0-0.7","19","Low_HMMActual","","","","","","447.5","","","","Images/NewTrialBC.png","","0"
"image-button-response","81","907355","0.0-13.0-1.7","19","Low_HMMActual","","","","","","null","","","","Images/BlackBeadChoice.png","","null"
"image-button-response","82","907873","0.0-13.0-2.7","19","Low_HMMActual","","","","","","null","","","","Images/BlackBeadChoiceCorrect.png","","null"
"image-button-response","83","907964","0.0-13.0-0.8","19","Low_HMMActual","","","","","","89.20000000298023","","","","Images/NewTrialBC.png","","0"
"image-button-response","84","908281","0.0-13.0-1.8","19","Low_HMMActual","","","","","","null","","","","Images/BlackBeadChoice.png","","null"
"image-button-response","85","908785","0.0-13.0-2.8","19","Low_HMMActual","","","","","","null","","","","Images/BlackBeadChoiceCorrect.png","","null"
"image-button-response","86","908934","0.0-13.0-0.9","19","Low_HMMActual","","","","","","147.70000000298023","","","","Images/NewTrialBC.png","","0"
"image-button-response","87","909238","0.0-13.0-1.9","19","Low_HMMActual","","","","","","null","","","","Images/BlackBeadChoice.png","","null"
"image-button-response","88","909747","0.0-13.0-2.9","19","Low_HMMActual","","","","","","null","","","","Images/BlackBeadChoiceCorrect.png","","null"
"image-button-response","89","909950","0.0-13.0-0.10","19","Low_HMMActual","","","","","","201.60000000149012","","","","Images/NewTrialBC.png","","0"
"image-button-response","90","910264","0.0-13.0-1.10","19","Low_HMMActual","","","","","","null","","","","Images/BlackBeadChoice.png","","null"
"image-button-response","91","910768","0.0-13.0-2.10","19","Low_HMMActual","","","","","","443.5","","","","Images/BlackBeadChoiceWrong.png","","0"
"image-button-response","92","913768","0.0-13.0-0.11","19","Low_HMMActual","","","","","","2999.10000000149","","","","Images/NewTrialWC.png","","1"
"image-button-response","93","914072","0.0-13.0-1.11","19","Low_HMMActual","","","","","","null","","","","Images/BlackBeadChoice.png","","null"
"image-button-response","94","914577","0.0-13.0-2.11","19","Low_HMMActual","","","","","","null","","","","Images/BlackBeadChoiceCorrect.png","","null"
"image-button-response","95","915572","0.0-13.0-0.12","19","Low_HMMActual","","","","","","992.6000000014901","","","","Images/NewTrialBC.png","","0"
"image-button-response","96","915880","0.0-13.0-1.12","19","Low_HMMActual","","","","","","null","","","","Images/BlackBeadChoice.png","","null"
"image-button-response","97","916382","0.0-13.0-2.12","19","Low_HMMActual","","","","","","null","","","","Images/BlackBeadChoiceWrong.png","","null"
"image-button-response","98","917760","0.0-13.0-0.13","19","Low_HMMActual","","","","","","1376.300000000745","","","","Images/NewTrialWC.png","","2"
"image-button-response","99","918063","0.0-13.0-1.13","19","Low_HMMActual","","","","","","null","","","","Images/WhiteBeadChoice.png","","null"
"image-button-response","100","918566","0.0-13.0-2.13","19","Low_HMMActual","","","","","","null","","","","Images/WhiteBeadChoiceCorrect.png","","null"
"image-button-response","101","919266","0.0-13.0-0.14","19","Low_HMMActual","","","","","","698.8000000007451","","","","Images/NewTrialWC.png","","2"
"image-button-response","102","919569","0.0-13.0-1.14","19","Low_HMMActual","","","","","","null","","","","Images/WhiteBeadChoice.png","","null"
"image-button-response","103","920071","0.0-13.0-2.14","19","Low_HMMActual","","","","","","null","","","","Images/WhiteBeadChoiceCorrect.png","","null"
"image-button-response","104","921027","0.0-13.0-0.15","19","Low_HMMActual","","","","","","952.5","","","","Images/NewTrialWC.png","","2"
"image-button-response","105","921339","0.0-13.0-1.15","19","Low_HMMActual","","","","","","null","","","","Images/WhiteBeadChoice.png","","null"
"image-button-response","106","921841","0.0-13.0-2.15","19","Low_HMMActual","","","","","","null","","","","Images/WhiteBeadChoiceCorrect.png","","null"
"image-button-response","107","921945","0.0-13.0-0.16","19","Low_HMMActual","","","","","","101.70000000298023","","","","Images/NewTrialWC.png","","2"
"image-button-response","108","922253","0.0-13.0-1.16","19","Low_HMMActual","","","","","","null","","","","Images/WhiteBeadChoice.png","","null"
"image-button-response","109","922758","0.0-13.0-2.16","19","Low_HMMActual","","","","","","null","","","","Images/WhiteBeadChoiceWrong.png","","null"
"image-button-response","110","923974","0.0-13.0-0.17","19","Low_HMMActual","","","","","","1214.6000000014901","","","","Images/NewTrialBC.png","","0"
"image-button-response","111","924276","0.0-13.0-1.17","19","Low_HMMActual","","","","","","null","","","","Images/BlackBeadChoice.png","","null"
"image-button-response","112","924779","0.0-13.0-2.17","19","Low_HMMActual","","","","","","null","","","","Images/BlackBeadChoiceCorrect.png","","null"
"image-button-response","113","925460","0.0-13.0-0.18","19","Low_HMMActual","","","","","","679.6000000014901","","","","Images/NewTrialBC.png","","0"
"image-button-response","114","925762","0.0-13.0-1.18","19","Low_HMMActual","","","","","","null","","","","Images/BlackBeadChoice.png","","null"
"image-button-response","115","926271","0.0-13.0-2.18","19","Low_HMMActual","","","","","","null","","","","Images/BlackBeadChoiceCorrect.png","","null"
"image-button-response","116","926492","0.0-13.0-0.19","19","Low_HMMActual","","","","","","219.89999999850988","","","","Images/NewTrialBC.png","","0"
"image-button-response","117","926802","0.0-13.0-1.19","19","Low_HMMActual","","","","","","null","","","","Images/BlackBeadChoice.png","","null"
"image-button-response","118","927308","0.0-13.0-2.19","19","Low_HMMActual","","","","","","436.8999999985099","","","","Images/BlackBeadChoiceCorrect.png","","0"
"image-button-response","119","928382","0.0-13.0-0.20","19","Low_HMMActual","","","","","","1072.6000000014901","","","","Images/NewTrialBC.png","","0"
"image-button-response","120","928684","0.0-13.0-1.20","19","Low_HMMActual","","","","","","null","","","","Images/BlackBeadChoice.png","","null"
"image-button-response","121","929187","0.0-13.0-2.20","19","Low_HMMActual","","","","","","null","","","","Images/BlackBeadChoiceCorrect.png","","null"
"image-button-response","122","929856","0.0-13.0-0.21","19","Low_HMMActual","","","","","","667.8000000007451","","","","Images/NewTrialBC.png","","1"
"image-button-response","123","930173","0.0-13.0-1.21","19","Low_HMMActual","","","","","","null","","","","Images/BlackBeadChoice.png","","null"
"image-button-response","124","930676","0.0-13.0-2.21","19","Low_HMMActual","","","","","","null","","","","Images/BlackBeadChoiceWrong.png","","null"
"image-button-response","125","933050","0.0-13.0-0.22","19","Low_HMMActual","","","","","","2372.5","","","","Images/NewTrialWC.png","","2"
"image-button-response","126","933353","0.0-13.0-1.22","19","Low_HMMActual","","","","","","null","","","","Images/WhiteBeadChoice.png","","null"
"image-button-response","127","933865","0.0-13.0-2.22","19","Low_HMMActual","","","","","","null","","","","Images/WhiteBeadChoiceWrong.png","","null"
"image-button-response","128","935808","0.0-13.0-0.23","19","Low_HMMActual","","","","","","1939.5","","","","Images/NewTrialBC.png","","0"
"image-button-response","129","936124","0.0-13.0-1.23","19","Low_HMMActual","","","","","","null","","","","Images/BlackBeadChoice.png","","null"
"image-button-response","130","936628","0.0-13.0-2.23","19","Low_HMMActual","","","","","","null","","","","Images/BlackBeadChoiceWrong.png","","null"
"image-button-response","131","937849","0.0-13.0-0.24","19","Low_HMMActual","","","","","","1217.5999999977648","","","","Images/NewTrialWC.png","","3"
"image-button-response","132","938158","0.0-13.0-1.24","19","Low_HMMActual","","","","","","null","","","","Images/WhiteBeadChoice.png","","null"
"image-button-response","133","938674","0.0-13.0-2.24","19","Low_HMMActual","","","","","","null","","","","Images/WhiteBeadChoiceWrong.png","","null"
"image-button-response","134","939707","0.0-13.0-0.25","19","Low_HMMActual","","","","","","1029.5999999977648","","","","Images/NewTrialBC.png","","3"
"image-button-response","135","940021","0.0-13.0-1.25","19","Low_HMMActual","","","","","","null","","","","Images/WhiteBeadChoice.png","","null"
"image-button-response","136","940532","0.0-13.0-2.25","19","Low_HMMActual","","","","","","null","","","","Images/WhiteBeadChoiceCorrect.png","","null"
"image-button-response","137","942492","0.0-13.0-0.26","19","Low_HMMActual","","","","","","1956.6000000014901","","","","Images/NewTrialWC.png","","0"
"image-button-response","138","942796","0.0-13.0-1.26","19","Low_HMMActual","","","","","","null","","","","Images/BlackBeadChoice.png","","null"
"image-button-response","139","943298","0.0-13.0-2.26","19","Low_HMMActual","","","","","","null","","","","Images/BlackBeadChoiceCorrect.png","","null"
"image-button-response","140","944148","0.0-13.0-0.27","19","Low_HMMActual","","","","","","847.4000000022352","","","","Images/NewTrialBC.png","","2"
"image-button-response","141","944450","0.0-13.0-1.27","19","Low_HMMActual","","","","","","null","","","","Images/WhiteBeadChoice.png","","null"
"image-button-response","142","944952","0.0-13.0-2.27","19","Low_HMMActual","","","","","","null","","","","Images/WhiteBeadChoiceWrong.png","","null"
"image-button-response","143","946064","0.0-13.0-0.28","19","Low_HMMActual","","","","","","1109.699999999255","","","","Images/NewTrialBC.png","","2"
"image-button-response","144","946366","0.0-13.0-1.28","19","Low_HMMActual","","","","","","null","","","","Images/WhiteBeadChoice.png","","null"
"image-button-response","145","946868","0.0-13.0-2.28","19","Low_HMMActual","","","","","","null","","","","Images/WhiteBeadChoiceCorrect.png","","null"
"image-button-response","146","949184","0.0-13.0-0.29","19","Low_HMMActual","","","","","","2314.5","","","","Images/NewTrialWC.png","","2"
"image-button-response","147","949486","0.0-13.0-1.29","19","Low_HMMActual","","","","","","null","","","","Images/WhiteBeadChoice.png","","null"
"image-button-response","148","949988","0.0-13.0-2.29","19","Low_HMMActual","","","","","","null","","","","Images/WhiteBeadChoiceWrong.png","","null"
"image-button-response","149","950870","0.0-13.0-0.30","19","Low_HMMActual","","","","","","880.8000000007451","","","","Images/NewTrialBC.png","","2"
"image-button-response","150","951172","0.0-13.0-1.30","19","Low_HMMActual","","","","","","null","","","","Images/WhiteBeadChoice.png","","null"
"image-button-response","151","951673","0.0-13.0-2.30","19","Low_HMMActual","","","","","","null","","","","Images/WhiteBeadChoiceCorrect.png","","null"
"image-button-response","152","953124","0.0-13.0-0.31","19","Low_HMMActual","","","","","","1449.1000000014901","","","","Images/NewTrialWC.png","","0"
"image-button-response","153","953434","0.0-13.0-1.31","19","Low_HMMActual","","","","","","null","","","","Images/BlackBeadChoice.png","","null"
"image-button-response","154","953936","0.0-13.0-2.31","19","Low_HMMActual","","","","","","null","","","","Images/BlackBeadChoiceWrong.png","","null"
"image-button-response","155","955258","0.0-13.0-0.32","19","Low_HMMActual","","","","","","1320","","","","Images/NewTrialWC.png","","0"
"image-button-response","156","955560","0.0-13.0-1.32","19","Low_HMMActual","","","","","","null","","","","Images/BlackBeadChoice.png","","null"
"image-button-response","157","956078","0.0-13.0-2.32","19","Low_HMMActual","","","","","","null","","","","Images/BlackBeadChoiceWrong.png","","null"
"image-button-response","158","956664","0.0-13.0-0.33","19","Low_HMMActual","","","","","","583","","","","Images/NewTrialWC.png","","0"
"image-button-response","159","956966","0.0-13.0-1.33","19","Low_HMMActual","","","","","","null","","","","Images/BlackBeadChoice.png","","null"
"image-button-response","160","957467","0.0-13.0-2.33","19","Low_HMMActual","","","","","","null","","","","Images/BlackBeadChoiceWrong.png","","null"
"image-button-response","161","958048","0.0-13.0-0.34","19","Low_HMMActual","","","","","","578.8999999985099","","","","Images/NewTrialWC.png","","2"
"image-button-response","162","958353","0.0-13.0-1.34","19","Low_HMMActual","","","","","","null","","","","Images/WhiteBeadChoice.png","","null"
"image-button-response","163","958855","0.0-13.0-2.34","19","Low_HMMActual","","","","","","null","","","","Images/WhiteBeadChoiceWrong.png","","null"
"image-button-response","164","960490","0.0-13.0-0.35","19","Low_HMMActual","","","","","","1633.199999999255","","","","Images/NewTrialBC.png","","0"
"image-button-response","165","960797","0.0-13.0-1.35","19","Low_HMMActual","","","","","","null","","","","Images/BlackBeadChoice.png","","null"
"image-button-response","166","961313","0.0-13.0-2.35","19","Low_HMMActual","","","","","","null","","","","Images/BlackBeadChoiceWrong.png","","null"
"image-button-response","167","963512","0.0-13.0-0.36","19","Low_HMMActual","","","","","","2197","","","","Images/NewTrialWC.png","","0"
"image-button-response","168","963814","0.0-13.0-1.36","19","Low_HMMActual","","","","","","null","","","","Images/BlackBeadChoice.png","","null"
"image-button-response","169","964320","0.0-13.0-2.36","19","Low_HMMActual","","","","","","null","","","","Images/BlackBeadChoiceCorrect.png","","null"
"image-button-response","170","965026","0.0-13.0-0.37","19","Low_HMMActual","","","","","","703.8999999985099","","","","Images/NewTrialBC.png","","0"
"image-button-response","171","965328","0.0-13.0-1.37","19","Low_HMMActual","","","","","","null","","","","Images/BlackBeadChoice.png","","null"
"image-button-response","172","965830","0.0-13.0-2.37","19","Low_HMMActual","","","","","","null","","","","Images/BlackBeadChoiceCorrect.png","","null"
"image-button-response","173","966212","0.0-13.0-0.38","19","Low_HMMActual","","","","","","380.5999999977648","","","","Images/NewTrialBC.png","","0"
"image-button-response","174","966517","0.0-13.0-1.38","19","Low_HMMActual","","","","","","null","","","","Images/BlackBeadChoice.png","","null"
"image-button-response","175","967031","0.0-13.0-2.38","19","Low_HMMActual","","","","","","null","","","","Images/BlackBeadChoiceCorrect.png","","null"
"image-button-response","176","967320","0.0-13.0-0.39","19","Low_HMMActual","","","","","","288","","","","Images/NewTrialBC.png","","0"
"image-button-response","177","967635","0.0-13.0-1.39","19","Low_HMMActual","","","","","","null","","","","Images/BlackBeadChoice.png","","null"
"image-button-response","178","968138","0.0-13.0-2.39","19","Low_HMMActual","","","","","","null","","","","Images/BlackBeadChoiceWrong.png","","null"
"image-button-response","179","969224","0.0-13.0-0.40","19","Low_HMMActual","","","","","","1085.199999999255","","","","Images/NewTrialWC.png","","2"
"image-button-response","180","969540","0.0-13.0-1.40","19","Low_HMMActual","","","","","","null","","","","Images/WhiteBeadChoice.png","","null"
"image-button-response","181","970056","0.0-13.0-2.40","19","Low_HMMActual","","","","","","null","","","","Images/WhiteBeadChoiceCorrect.png","","null"
"image-button-response","182","970128","0.0-13.0-0.41","19","Low_HMMActual","","","","","","69.19999999925494","","","","Images/NewTrialWC.png","","2"
"image-button-response","183","970429","0.0-13.0-1.41","19","Low_HMMActual","","","","","","null","","","","Images/WhiteBeadChoice.png","","null"
"image-button-response","184","970935","0.0-13.0-2.41","19","Low_HMMActual","","","","","","null","","","","Images/WhiteBeadChoiceCorrect.png","","null"
"image-button-response","185","971892","0.0-13.0-0.42","19","Low_HMMActual","","","","","","955.8999999985099","","","","Images/NewTrialWC.png","","3"
"image-button-response","186","972201","0.0-13.0-1.42","19","Low_HMMActual","","","","","","null","","","","Images/WhiteBeadChoice.png","","null"
"image-button-response","187","972702","0.0-13.0-2.42","19","Low_HMMActual","","","","","","null","","","","Images/WhiteBeadChoiceWrong.png","","null"
"image-button-response","188","1046750","0.0-13.0-0.43","19","Low_HMMActual","","","","","","74046.5","","","","Images/NewTrialBC.png","","2"
"image-button-response","189","1047054","0.0-13.0-1.43","19","Low_HMMActual","","","","","","null","","","","Images/WhiteBeadChoice.png","","null"
"image-button-response","190","1047556","0.0-13.0-2.43","19","Low_HMMActual","","","","","","null","","","","Images/WhiteBeadChoiceCorrect.png","","null"
"image-button-response","191","1048220","0.0-13.0-0.44","19","Low_HMMActual","","","","","","661.5","","","","Images/NewTrialWC.png","","0"
"image-button-response","192","1048522","0.0-13.0-1.44","19","Low_HMMActual","","","","","","null","","","","Images/BlackBeadChoice.png","","null"
"image-button-response","193","1049025","0.0-13.0-2.44","19","Low_HMMActual","","","","","","null","","","","Images/BlackBeadChoiceCorrect.png","","null"
"image-button-response","194","1050170","0.0-13.0-0.45","19","Low_HMMActual","","","","","","1143","","","","Images/NewTrialBC.png","","2"
"image-button-response","195","1050472","0.0-13.0-1.45","19","Low_HMMActual","","","","","","null","","","","Images/WhiteBeadChoice.png","","null"
"image-button-response","196","1050974","0.0-13.0-2.45","19","Low_HMMActual","","","","","","null","","","","Images/WhiteBeadChoiceWrong.png","","null"
"image-button-response","197","1051560","0.0-13.0-0.46","19","Low_HMMActual","","","","","","584.1999999992549","","","","Images/NewTrialBC.png","","2"
"image-button-response","198","1051862","0.0-13.0-1.46","19","Low_HMMActual","","","","","","null","","","","Images/WhiteBeadChoice.png","","null"
"image-button-response","199","1052364","0.0-13.0-2.46","19","Low_HMMActual","","","","","","null","","","","Images/WhiteBeadChoiceCorrect.png","","null"
"image-button-response","200","1053154","0.0-13.0-0.47","19","Low_HMMActual","","","","","","787.8000000007451","","","","Images/NewTrialWC.png","","0"
"image-button-response","201","1053457","0.0-13.0-1.47","19","Low_HMMActual","","","","","","null","","","","Images/BlackBeadChoice.png","","null"
"image-button-response","202","1053960","0.0-13.0-2.47","19","Low_HMMActual","","","","","","null","","","","Images/BlackBeadChoiceWrong.png","","null"
"image-button-response","203","1054736","0.0-13.0-0.48","19","Low_HMMActual","","","","","","774.3000000007451","","","","Images/NewTrialWC.png","","0"
"image-button-response","204","1055038","0.0-13.0-1.48","19","Low_HMMActual","","","","","","null","","","","Images/BlackBeadChoice.png","","null"
"image-button-response","205","1055540","0.0-13.0-2.48","19","Low_HMMActual","","","","","","498.3999999985099","","","","Images/BlackBeadChoiceWrong.png","","0"
"image-button-response","206","1057846","0.0-13.0-0.49","19","Low_HMMActual","","","","","","2303.400000002235","","","","Images/NewTrialWC.png","","3"
"image-button-response","207","1058154","0.0-13.0-1.49","19","Low_HMMActual","","","","","","null","","","","Images/WhiteBeadChoice.png","","null"
"image-button-response","208","1058656","0.0-13.0-2.49","19","Low_HMMActual","","","","","","null","","","","Images/WhiteBeadChoiceCorrect.png","","null"
"image-button-response","209","1059418","0.0-13.0-0.50","19","Low_HMMActual","","","","","","760.4000000022352","","","","Images/NewTrialWC.png","","2"
"image-button-response","210","1059732","0.0-13.0-1.50","19","Low_HMMActual","","","","","","null","","","","Images/WhiteBeadChoice.png","","null"
"image-button-response","211","1060236","0.0-13.0-2.50","19","Low_HMMActual","","","","","","null","","","","Images/WhiteBeadChoiceWrong.png","","null"
"image-button-response","212","1061253","0.0-13.0-0.51","19","Low_HMMActual","","","","","","1013.0999999977648","","","","Images/NewTrialBC.png","","3"
"image-button-response","213","1061559","0.0-13.0-1.51","19","Low_HMMActual","","","","","","null","","","","Images/WhiteBeadChoice.png","","null"
"image-button-response","214","1062061","0.0-13.0-2.51","19","Low_HMMActual","","","","","","null","","","","Images/WhiteBeadChoiceWrong.png","","null"
"image-button-response","215","1062452","0.0-13.0-0.52","19","Low_HMMActual","","","","","","388.69999999925494","","","","Images/NewTrialBC.png","","2"
"image-button-response","216","1062755","0.0-13.0-1.52","19","Low_HMMActual","","","","","","null","","","","Images/WhiteBeadChoice.png","","null"
"image-button-response","217","1063258","0.0-13.0-2.52","19","Low_HMMActual","","","","","","null","","","","Images/WhiteBeadChoiceWrong.png","","null"
"image-button-response","218","1064452","0.0-13.0-0.53","19","Low_HMMActual","","","","","","1190.5999999977648","","","","Images/NewTrialBC.png","","2"
"image-button-response","219","1064757","0.0-13.0-1.53","19","Low_HMMActual","","","","","","null","","","","Images/WhiteBeadChoice.png","","null"
"image-button-response","220","1065260","0.0-13.0-2.53","19","Low_HMMActual","","","","","","null","","","","Images/WhiteBeadChoiceCorrect.png","","null"
"image-button-response","221","1066096","0.0-13.0-0.54","19","Low_HMMActual","","","","","","832.5","","","","Images/NewTrialWC.png","","2"
"image-button-response","222","1066398","0.0-13.0-1.54","19","Low_HMMActual","","","","","","null","","","","Images/WhiteBeadChoice.png","","null"
"image-button-response","223","1066900","0.0-13.0-2.54","19","Low_HMMActual","","","","","","null","","","","Images/WhiteBeadChoiceWrong.png","","null"
"image-button-response","224","1068116","0.0-13.0-0.55","19","Low_HMMActual","","","","","","1214.199999999255","","","","Images/NewTrialBC.png","","2"
"image-button-response","225","1068419","0.0-13.0-1.55","19","Low_HMMActual","","","","","","null","","","","Images/WhiteBeadChoice.png","","null"
"image-button-response","226","1068926","0.0-13.0-2.55","19","Low_HMMActual","","","","","","null","","","","Images/WhiteBeadChoiceWrong.png","","null"
"image-button-response","227","1069816","0.0-13.0-0.56","19","Low_HMMActual","","","","","","888.0999999977648","","","","Images/NewTrialBC.png","","1"
"image-button-response","228","1070117","0.0-13.0-1.56","19","Low_HMMActual","","","","","","null","","","","Images/BlackBeadChoice.png","","null"
"image-button-response","229","1070619","0.0-13.0-2.56","19","Low_HMMActual","","","","","","null","","","","Images/BlackBeadChoiceCorrect.png","","null"
"image-button-response","230","1071620","0.0-13.0-0.57","19","Low_HMMActual","","","","","","999.5","","","","Images/NewTrialBC.png","","1"
"image-button-response","231","1071929","0.0-13.0-1.57","19","Low_HMMActual","","","","","","null","","","","Images/BlackBeadChoice.png","","null"
"image-button-response","232","1072445","0.0-13.0-2.57","19","Low_HMMActual","","","","","","null","","","","Images/BlackBeadChoiceCorrect.png","","null"
"image-button-response","233","1072910","0.0-13.0-0.58","19","Low_HMMActual","","","","","","463.1000000014901","","","","Images/NewTrialBC.png","","1"
"image-button-response","234","1073217","0.0-13.0-1.58","19","Low_HMMActual","","","","","","null","","","","Images/BlackBeadChoice.png","","null"
"image-button-response","235","1073720","0.0-13.0-2.58","19","Low_HMMActual","","","","","","null","","","","Images/BlackBeadChoiceCorrect.png","","null"
"image-button-response","236","1074318","0.0-13.0-0.59","19","Low_HMMActual","","","","","","595.8000000007451","","","","Images/NewTrialBC.png","","1"
"image-button-response","237","1074620","0.0-13.0-1.59","19","Low_HMMActual","","","","","","null","","","","Images/BlackBeadChoice.png","","null"
"image-button-response","238","1075123","0.0-13.0-2.59","19","Low_HMMActual","","","","","","null","","","","Images/BlackBeadChoiceWrong.png","","null"
"image-button-response","239","1076078","0.0-13.0-0.60","19","Low_HMMActual","","","","","","952.1000000014901","","","","Images/NewTrialWC.png","","3"
"image-button-response","240","1076386","0.0-13.0-1.60","19","Low_HMMActual","","","","","","null","","","","Images/WhiteBeadChoice.png","","null"
"image-button-response","241","1076901","0.0-13.0-2.60","19","Low_HMMActual","","","","","","null","","","","Images/WhiteBeadChoiceCorrect.png","","null"
"image-button-response","242","1077020","0.0-13.0-0.61","19","Low_HMMActual","","","","","","116.20000000298023","","","","Images/NewTrialWC.png","","3"
"image-button-response","243","1077329","0.0-13.0-1.61","19","Low_HMMActual","","","","","","null","","","","Images/WhiteBeadChoice.png","","null"
"image-button-response","244","1077842","0.0-13.0-2.61","19","Low_HMMActual","","","","","","449.69999999925494","","","","Images/WhiteBeadChoiceCorrect.png","","3"
"image-button-response","245","1078786","0.0-13.0-0.62","19","Low_HMMActual","","","","","","941.6999999992549","","","","Images/NewTrialWC.png","","3"
"image-button-response","246","1079102","0.0-13.0-1.62","19","Low_HMMActual","","","","","","null","","","","Images/WhiteBeadChoice.png","","null"
"image-button-response","247","1079603","0.0-13.0-2.62","19","Low_HMMActual","","","","","","null","","","","Images/WhiteBeadChoiceWrong.png","","null"
"image-button-response","248","1133444","0.0-13.0-0.63","19","Low_HMMActual","","","","","","53839.60000000149","","","","Images/NewTrialBC.png","","1"
"image-button-response","249","1133747","0.0-13.0-1.63","19","Low_HMMActual","","","","","","null","","","","Images/BlackBeadChoice.png","","null"
"image-button-response","250","1134249","0.0-13.0-2.63","19","Low_HMMActual","","","","","","null","","","","Images/BlackBeadChoiceCorrect.png","","null"
"image-button-response","251","1134838","0.0-13.0-0.64","19","Low_HMMActual","","","","","","588","","","","Images/NewTrialBC.png","","1"
"image-button-response","252","1135142","0.0-13.0-1.64","19","Low_HMMActual","","","","","","null","","","","Images/BlackBeadChoice.png","","null"
"image-button-response","253","1135655","0.0-13.0-2.64","19","Low_HMMActual","","","","","","null","","","","Images/BlackBeadChoiceWrong.png","","null"
"image-button-response","254","1136696","0.0-13.0-0.65","19","Low_HMMActual","","","","","","1039.800000000745","","","","Images/NewTrialWC.png","","3"
"image-button-response","255","1137005","0.0-13.0-1.65","19","Low_HMMActual","","","","","","null","","","","Images/WhiteBeadChoice.png","","null"
"image-button-response","256","1137507","0.0-13.0-2.65","19","Low_HMMActual","","","","","","null","","","","Images/WhiteBeadChoiceWrong.png","","null"
"image-button-response","257","1138374","0.0-13.0-0.66","19","Low_HMMActual","","","","","","864.4000000022352","","","","Images/NewTrialBC.png","","3"
"image-button-response","258","1138681","0.0-13.0-1.66","19","Low_HMMActual","","","","","","null","","","","Images/WhiteBeadChoice.png","","null"
"image-button-response","259","1139183","0.0-13.0-2.66","19","Low_HMMActual","","","","","","null","","","","Images/WhiteBeadChoiceWrong.png","","null"
"image-button-response","260","1139824","0.0-13.0-0.67","19","Low_HMMActual","","","","","","640.1000000014901","","","","Images/NewTrialBC.png","","1"
"image-button-response","261","1140127","0.0-13.0-1.67","19","Low_HMMActual","","","","","","null","","","","Images/BlackBeadChoice.png","","null"
"image-button-response","262","1140628","0.0-13.0-2.67","19","Low_HMMActual","","","","","","null","","","","Images/BlackBeadChoiceCorrect.png","","null"
"image-button-response","263","1141430","0.0-13.0-0.68","19","Low_HMMActual","","","","","","799.5999999977648","","","","Images/NewTrialBC.png","","1"
"image-button-response","264","1141735","0.0-13.0-1.68","19","Low_HMMActual","","","","","","null","","","","Images/BlackBeadChoice.png","","null"
"image-button-response","265","1142237","0.0-13.0-2.68","19","Low_HMMActual","","","","","","null","","","","Images/BlackBeadChoiceWrong.png","","null"
"image-button-response","266","1144108","0.0-13.0-0.69","19","Low_HMMActual","","","","","","1869.5999999977648","","","","Images/NewTrialWC.png","","2"
"image-button-response","267","1144422","0.0-13.0-1.69","19","Low_HMMActual","","","","","","null","","","","Images/WhiteBeadChoice.png","","null"
"image-button-response","268","1144934","0.0-13.0-2.69","19","Low_HMMActual","","","","","","null","","","","Images/WhiteBeadChoiceWrong.png","","null"
"image-button-response","269","1146450","0.0-13.0-0.70","19","Low_HMMActual","","","","","","1514.3999999985099","","","","Images/NewTrialBC.png","","0"
"image-button-response","270","1146753","0.0-13.0-1.70","19","Low_HMMActual","","","","","","null","","","","Images/BlackBeadChoice.png","","null"
"image-button-response","271","1147255","0.0-13.0-2.70","19","Low_HMMActual","","","","","","null","","","","Images/BlackBeadChoiceWrong.png","","null"
"image-button-response","272","1147960","0.0-13.0-0.71","19","Low_HMMActual","","","","","","701.6999999992549","","","","Images/NewTrialWC.png","","2"
"image-button-response","273","1148263","0.0-13.0-1.71","19","Low_HMMActual","","","","","","null","","","","Images/WhiteBeadChoice.png","","null"
"image-button-response","274","1148765","0.0-13.0-2.71","19","Low_HMMActual","","","","","","null","","","","Images/WhiteBeadChoiceWrong.png","","null"
"image-button-response","275","1149160","0.0-13.0-0.72","19","Low_HMMActual","","","","","","393.1000000014901","","","","Images/NewTrialBC.png","","0"
"image-button-response","276","1149462","0.0-13.0-1.72","19","Low_HMMActual","","","","","","null","","","","Images/BlackBeadChoice.png","","null"
"image-button-response","277","1149974","0.0-13.0-2.72","19","Low_HMMActual","","","","","","null","","","","Images/BlackBeadChoiceCorrect.png","","null"
"image-button-response","278","1151856","0.0-13.0-0.73","19","Low_HMMActual","","","","","","1880.4000000022352","","","","Images/NewTrialBC.png","","2"
"image-button-response","279","1152167","0.0-13.0-1.73","19","Low_HMMActual","","","","","","null","","","","Images/WhiteBeadChoice.png","","null"
"image-button-response","280","1152668","0.0-13.0-2.73","19","Low_HMMActual","","","","","","null","","","","Images/WhiteBeadChoiceWrong.png","","null"
"image-button-response","281","1153879","0.0-13.0-0.74","19","Low_HMMActual","","","","","","1207.5","","","","Images/NewTrialBC.png","","2"
"image-button-response","282","1154180","0.0-13.0-1.74","19","Low_HMMActual","","","","","","null","","","","Images/WhiteBeadChoice.png","","null"
"image-button-response","283","1154682","0.0-13.0-2.74","19","Low_HMMActual","","","","","","null","","","","Images/WhiteBeadChoiceWrong.png","","null"
"image-button-response","284","1155472","0.0-13.0-0.75","19","Low_HMMActual","","","","","","788.5","","","","Images/NewTrialBC.png","","2"
"image-button-response","285","1155782","0.0-13.0-1.75","19","Low_HMMActual","","","","","","null","","","","Images/WhiteBeadChoice.png","","null"
"image-button-response","286","1156284","0.0-13.0-2.75","19","Low_HMMActual","","","","","","null","","","","Images/WhiteBeadChoiceWrong.png","","null"
"image-button-response","287","1156823","0.0-13.0-0.76","19","Low_HMMActual","","","","","","536.5","","","","Images/NewTrialBC.png","","2"
"image-button-response","288","1157136","0.0-13.0-1.76","19","Low_HMMActual","","","","","","null","","","","Images/WhiteBeadChoice.png","","null"
"image-button-response","289","1157639","0.0-13.0-2.76","19","Low_HMMActual","","","","","","497.5999999977648","","","","Images/WhiteBeadChoiceWrong.png","","2"
"image-button-response","290","1158160","0.0-13.0-0.77","19","Low_HMMActual","","","","","","518.4000000022352","","","","Images/NewTrialBC.png","","2"
"image-button-response","291","1158462","0.0-13.0-1.77","19","Low_HMMActual","","","","","","null","","","","Images/WhiteBeadChoice.png","","null"
"image-button-response","292","1158975","0.0-13.0-2.77","19","Low_HMMActual","","","","","","null","","","","Images/WhiteBeadChoiceCorrect.png","","null"
"image-button-response","293","1159164","0.0-13.0-0.78","19","Low_HMMActual","","","","","","188.20000000298023","","","","Images/NewTrialWC.png","","2"
"image-button-response","294","1159473","0.0-13.0-1.78","19","Low_HMMActual","","","","","","null","","","","Images/WhiteBeadChoice.png","","null"
"image-button-response","295","1159974","0.0-13.0-2.78","19","Low_HMMActual","","","","","","null","","","","Images/WhiteBeadChoiceWrong.png","","null"
"image-button-response","296","1161414","0.0-13.0-0.79","19","Low_HMMActual","","","","","","1438.5","","","","Images/NewTrialBC.png","","0"
"image-button-response","297","1161718","0.0-13.0-1.79","19","Low_HMMActual","","","","","","null","","","","Images/BlackBeadChoice.png","","null"
"image-button-response","298","1162220","0.0-13.0-2.79","19","Low_HMMActual","","","","","","null","","","","Images/BlackBeadChoiceCorrect.png","","null"
"image-button-response","299","1162786","0.0-13.0-0.80","19","Low_HMMActual","","","","","","564.2000000029802","","","","Images/NewTrialBC.png","","0"
"image-button-response","300","1163089","0.0-13.0-1.80","19","Low_HMMActual","","","","","","null","","","","Images/BlackBeadChoice.png","","null"
"image-button-response","301","1163590","0.0-13.0-2.80","19","Low_HMMActual","","","","","","null","","","","Images/BlackBeadChoiceWrong.png","","null"
"image-button-response","302","1164496","0.0-13.0-0.81","19","Low_HMMActual","","","","","","904","","","","Images/NewTrialWC.png","","2"
"image-button-response","303","1164800","0.0-13.0-1.81","19","Low_HMMActual","","","","","","null","","","","Images/WhiteBeadChoice.png","","null"
"image-button-response","304","1165316","0.0-13.0-2.81","19","Low_HMMActual","","","","","","null","","","","Images/WhiteBeadChoiceCorrect.png","","null"
"image-button-response","305","1165867","0.0-13.0-0.82","19","Low_HMMActual","","","","","","548.3000000007451","","","","Images/NewTrialWC.png","","2"
"image-button-response","306","1166169","0.0-13.0-1.82","19","Low_HMMActual","","","","","","null","","","","Images/WhiteBeadChoice.png","","null"
"image-button-response","307","1166672","0.0-13.0-2.82","19","Low_HMMActual","","","","","","null","","","","Images/WhiteBeadChoiceWrong.png","","null"
"image-button-response","308","1167140","0.0-13.0-0.83","19","Low_HMMActual","","","","","","466.79999999701977","","","","Images/NewTrialBC.png","","0"
"image-button-response","309","1167442","0.0-13.0-1.83","19","Low_HMMActual","","","","","","null","","","","Images/BlackBeadChoice.png","","null"
"image-button-response","310","1167944","0.0-13.0-2.83","19","Low_HMMActual","","","","","","null","","","","Images/BlackBeadChoiceCorrect.png","","null"
"image-button-response","311","1168064","0.0-13.0-0.84","19","Low_HMMActual","","","","","","118.39999999850988","","","","Images/NewTrialBC.png","","0"
"image-button-response","312","1168367","0.0-13.0-1.84","19","Low_HMMActual","","","","","","null","","","","Images/BlackBeadChoice.png","","null"
"image-button-response","313","1168870","0.0-13.0-2.84","19","Low_HMMActual","","","","","","429.3999999985099","","","","Images/BlackBeadChoiceCorrect.png","","0"
"image-button-response","314","1169698","0.0-13.0-0.85","19","Low_HMMActual","","","","","","826","","","","Images/NewTrialBC.png","","0"
"image-button-response","315","1170002","0.0-13.0-1.85","19","Low_HMMActual","","","","","","null","","","","Images/BlackBeadChoice.png","","null"
"image-button-response","316","1170519","0.0-13.0-2.85","19","Low_HMMActual","","","","","","null","","","","Images/BlackBeadChoiceCorrect.png","","null"
"image-button-response","317","1170810","0.0-13.0-0.86","19","Low_HMMActual","","","","","","289.3999999985099","","","","Images/NewTrialBC.png","","0"
"image-button-response","318","1171117","0.0-13.0-1.86","19","Low_HMMActual","","","","","","null","","","","Images/BlackBeadChoice.png","","null"
"image-button-response","319","1171624","0.0-13.0-2.86","19","Low_HMMActual","","","","","","null","","","","Images/BlackBeadChoiceWrong.png","","null"
"image-button-response","320","1172438","0.0-13.0-0.87","19","Low_HMMActual","","","","","","812.0999999977648","","","","Images/NewTrialWC.png","","2"
"image-button-response","321","1172742","0.0-13.0-1.87","19","Low_HMMActual","","","","","","null","","","","Images/WhiteBeadChoice.png","","null"
"image-button-response","322","1173244","0.0-13.0-2.87","19","Low_HMMActual","","","","","","null","","","","Images/WhiteBeadChoiceCorrect.png","","null"
"image-button-response","323","1174128","0.0-13.0-0.88","19","Low_HMMActual","","","","","","882.6999999992549","","","","Images/NewTrialWC.png","","2"
"image-button-response","324","1174430","0.0-13.0-1.88","19","Low_HMMActual","","","","","","null","","","","Images/WhiteBeadChoice.png","","null"
"image-button-response","325","1174933","0.0-13.0-2.88","19","Low_HMMActual","","","","","","null","","","","Images/WhiteBeadChoiceCorrect.png","","null"
"image-button-response","326","1175764","0.0-13.0-0.89","19","Low_HMMActual","","","","","","830","","","","Images/NewTrialWC.png","","2"
"image-button-response","327","1176078","0.0-13.0-1.89","19","Low_HMMActual","","","","","","null","","","","Images/WhiteBeadChoice.png","","null"
"image-button-response","328","1176581","0.0-13.0-2.89","19","Low_HMMActual","","","","","","null","","","","Images/WhiteBeadChoiceWrong.png","","null"
"image-button-response","329","1177118","0.0-13.0-0.90","19","Low_HMMActual","","","","","","536.0999999977648","","","","Images/NewTrialBC.png","","0"
"image-button-response","330","1177420","0.0-13.0-1.90","19","Low_HMMActual","","","","","","null","","","","Images/BlackBeadChoice.png","","null"
"image-button-response","331","1177924","0.0-13.0-2.90","19","Low_HMMActual","","","","","","null","","","","Images/BlackBeadChoiceCorrect.png","","null"
"image-button-response","332","1178446","0.0-13.0-0.91","19","Low_HMMActual","","","","","","520.7999999970198","","","","Images/NewTrialBC.png","","0"
"image-button-response","333","1178764","0.0-13.0-1.91","19","Low_HMMActual","","","","","","null","","","","Images/BlackBeadChoice.png","","null"
"image-button-response","334","1179266","0.0-13.0-2.91","19","Low_HMMActual","","","","","","null","","","","Images/BlackBeadChoiceCorrect.png","","null"
"image-button-response","335","1179874","0.0-13.0-0.92","19","Low_HMMActual","","","","","","605.9000000022352","","","","Images/NewTrialBC.png","","0"
"image-button-response","336","1180186","0.0-13.0-1.92","19","Low_HMMActual","","","","","","null","","","","Images/BlackBeadChoice.png","","null"
"image-button-response","337","1180688","0.0-13.0-2.92","19","Low_HMMActual","","","","","","null","","","","Images/BlackBeadChoiceWrong.png","","null"
"image-button-response","338","1181352","0.0-13.0-0.93","19","Low_HMMActual","","","","","","662.5","","","","Images/NewTrialWC.png","","2"
"image-button-response","339","1181665","0.0-13.0-1.93","19","Low_HMMActual","","","","","","null","","","","Images/WhiteBeadChoice.png","","null"
"image-button-response","340","1182182","0.0-13.0-2.93","19","Low_HMMActual","","","","","","null","","","","Images/WhiteBeadChoiceCorrect.png","","null"
"image-button-response","341","1182376","0.0-13.0-0.94","19","Low_HMMActual","","","","","","192.5","","","","Images/NewTrialWC.png","","2"
"image-button-response","342","1182686","0.0-13.0-1.94","19","Low_HMMActual","","","","","","null","","","","Images/WhiteBeadChoice.png","","null"
"image-button-response","343","1183191","0.0-13.0-2.94","19","Low_HMMActual","","","","","","null","","","","Images/WhiteBeadChoiceWrong.png","","null"
"image-button-response","344","1183850","0.0-13.0-0.95","19","Low_HMMActual","","","","","","657.8999999985099","","","","Images/NewTrialBC.png","","0"
"image-button-response","345","1184152","0.0-13.0-1.95","19","Low_HMMActual","","","","","","null","","","","Images/BlackBeadChoice.png","","null"
"image-button-response","346","1184654","0.0-13.0-2.95","19","Low_HMMActual","","","","","","null","","","","Images/BlackBeadChoiceCorrect.png","","null"
"image-button-response","347","1185302","0.0-13.0-0.96","19","Low_HMMActual","","","","","","646.2999999970198","","","","Images/NewTrialBC.png","","0"
"image-button-response","348","1185617","0.0-13.0-1.96","19","Low_HMMActual","","","","","","null","","","","Images/BlackBeadChoice.png","","null"
"image-button-response","349","1186119","0.0-13.0-2.96","19","Low_HMMActual","","","","","","null","","","","Images/BlackBeadChoiceCorrect.png","","null"
"image-button-response","350","1186866","0.0-13.0-0.97","19","Low_HMMActual","","","","","","745.8000000007451","","","","Images/NewTrialBC.png","","2"
"image-button-response","351","1187170","0.0-13.0-1.97","19","Low_HMMActual","","","","","","null","","","","Images/WhiteBeadChoice.png","","null"
"image-button-response","352","1187673","0.0-13.0-2.97","19","Low_HMMActual","","","","","","null","","","","Images/WhiteBeadChoiceWrong.png","","null"
"image-button-response","353","1188898","0.0-13.0-0.98","19","Low_HMMActual","","","","","","1223.5999999977648","","","","Images/NewTrialBC.png","","2"
"image-button-response","354","1189200","0.0-13.0-1.98","19","Low_HMMActual","","","","","","null","","","","Images/WhiteBeadChoice.png","","null"
"image-button-response","355","1189702","0.0-13.0-2.98","19","Low_HMMActual","","","","","","null","","","","Images/WhiteBeadChoiceCorrect.png","","null"
"image-button-response","356","1190776","0.0-13.0-0.99","19","Low_HMMActual","","","","","","1072.800000000745","","","","Images/NewTrialWC.png","","2"
"image-button-response","357","1191080","0.0-13.0-1.99","19","Low_HMMActual","","","","","","null","","","","Images/WhiteBeadChoice.png","","null"
"image-button-response","358","1191584","0.0-13.0-2.99","19","Low_HMMActual","","","","","","null","","","","Images/WhiteBeadChoiceWrong.png","","null"
"image-button-response","359","1192972","0.0-13.0-0.100","19","Low_HMMActual","","","","","","1386","","","","Images/NewTrialBC.png","","0"
"image-button-response","360","1193275","0.0-13.0-1.100","19","Low_HMMActual","","","","","","null","","","","Images/BlackBeadChoice.png","","null"
"image-button-response","361","1193777","0.0-13.0-2.100","19","Low_HMMActual","","","","","","null","","","","Images/BlackBeadChoiceWrong.png","","null"
"image-button-response","362","1195136","0.0-13.0-0.101","19","Low_HMMActual","","","","","","1352.0999999977648","","","","Images/NewTrialWC.png","","2"
"image-button-response","363","1195439","0.0-13.0-1.101","19","Low_HMMActual","","","","","","null","","","","Images/WhiteBeadChoice.png","","null"
"image-button-response","364","1195941","0.0-13.0-2.101","19","Low_HMMActual","","","","","","null","","","","Images/WhiteBeadChoiceCorrect.png","","null"
"image-button-response","365","1197062","0.0-13.0-0.102","19","Low_HMMActual","","","","","","1119.0999999977648","","","","Images/NewTrialWC.png","","0"
"image-button-response","366","1197376","0.0-13.0-1.102","19","Low_HMMActual","","","","","","null","","","","Images/BlackBeadChoice.png","","null"
"image-button-response","367","1197878","0.0-13.0-2.102","19","Low_HMMActual","","","","","","null","","","","Images/BlackBeadChoiceWrong.png","","null"
"image-button-response","368","1198506","0.0-13.0-0.103","19","Low_HMMActual","","","","","","625","","","","Images/NewTrialWC.png","","2"
"image-button-response","369","1198811","0.0-13.0-1.103","19","Low_HMMActual","","","","","","null","","","","Images/WhiteBeadChoice.png","","null"
"image-button-response","370","1199314","0.0-13.0-2.103","19","Low_HMMActual","","","","","","null","","","","Images/WhiteBeadChoiceWrong.png","","null"
"image-button-response","371","1199962","0.0-13.0-0.104","19","Low_HMMActual","","","","","","646.5999999977648","","","","Images/NewTrialBC.png","","0"
"image-button-response","372","1200264","0.0-13.0-1.104","19","Low_HMMActual","","","","","","null","","","","Images/BlackBeadChoice.png","","null"
"image-button-response","373","1200767","0.0-13.0-2.104","19","Low_HMMActual","","","","","","null","","","","Images/BlackBeadChoiceWrong.png","","null"
"image-button-response","374","1201366","0.0-13.0-0.105","19","Low_HMMActual","","","","","","597.5","","","","Images/NewTrialWC.png","","0"
"image-button-response","375","1201672","0.0-13.0-1.105","19","Low_HMMActual","","","","","","null","","","","Images/BlackBeadChoice.png","","null"
"image-button-response","376","1202176","0.0-13.0-2.105","19","Low_HMMActual","","","","","","448.69999999925494","","","","Images/BlackBeadChoiceWrong.png","","0"
"image-button-response","377","1203180","0.0-13.0-0.106","19","Low_HMMActual","","","","","","1002.1999999992549","","","","Images/NewTrialWC.png","","2"
"image-button-response","378","1203482","0.0-13.0-1.106","19","Low_HMMActual","","","","","","null","","","","Images/WhiteBeadChoice.png","","null"
"image-button-response","379","1203984","0.0-13.0-2.106","19","Low_HMMActual","","","","","","null","","","","Images/WhiteBeadChoiceCorrect.png","","null"
"image-button-response","380","1204346","0.0-13.0-0.107","19","Low_HMMActual","","","","","","360.3999999985099","","","","Images/NewTrialWC.png","","2"
"image-button-response","381","1204664","0.0-13.0-1.107","19","Low_HMMActual","","","","","","null","","","","Images/WhiteBeadChoice.png","","null"
"image-button-response","382","1205166","0.0-13.0-2.107","19","Low_HMMActual","","","","","","null","","","","Images/WhiteBeadChoiceCorrect.png","","null"
"image-button-response","383","1205300","0.0-13.0-0.108","19","Low_HMMActual","","","","","","130.5","","","","Images/NewTrialWC.png","","2"
"image-button-response","384","1205607","0.0-13.0-1.108","19","Low_HMMActual","","","","","","null","","","","Images/WhiteBeadChoice.png","","null"
"image-button-response","385","1206125","0.0-13.0-2.108","19","Low_HMMActual","","","","","","null","","","","Images/WhiteBeadChoiceCorrect.png","","null"
"image-button-response","386","1206206","0.0-13.0-0.109","19","Low_HMMActual","","","","","","78.60000000149012","","","","Images/NewTrialWC.png","","2"
"image-button-response","387","1206517","0.0-13.0-1.109","19","Low_HMMActual","","","","","","null","","","","Images/WhiteBeadChoice.png","","null"
"image-button-response","388","1207019","0.0-13.0-2.109","19","Low_HMMActual","","","","","","null","","","","Images/WhiteBeadChoiceCorrect.png","","null"
"image-button-response","389","1207130","0.0-13.0-0.110","19","Low_HMMActual","","","","","","108.30000000074506","","","","Images/NewTrialWC.png","","2"
"image-button-response","390","1207446","0.0-13.0-1.110","19","Low_HMMActual","","","","","","null","","","","Images/WhiteBeadChoice.png","","null"
"image-button-response","391","1207947","0.0-13.0-2.110","19","Low_HMMActual","","","","","","null","","","","Images/WhiteBeadChoiceWrong.png","","null"
"image-button-response","392","1208464","0.0-13.0-0.111","19","Low_HMMActual","","","","","","515.3999999985099","","","","Images/NewTrialBC.png","","0"
"image-button-response","393","1208769","0.0-13.0-1.111","19","Low_HMMActual","","","","","","null","","","","Images/BlackBeadChoice.png","","null"
"image-button-response","394","1209271","0.0-13.0-2.111","19","Low_HMMActual","","","","","","492.1000000014901","","","","Images/BlackBeadChoiceCorrect.png","","0"
"image-button-response","395","1209840","0.0-13.0-0.112","19","Low_HMMActual","","","","","","562.4000000022352","","","","Images/NewTrialBC.png","","0"
"image-button-response","396","1210143","0.0-13.0-1.112","19","Low_HMMActual","","","","","","null","","","","Images/BlackBeadChoice.png","","null"
"image-button-response","397","1210644","0.0-13.0-2.112","19","Low_HMMActual","","","","","","null","","","","Images/BlackBeadChoiceWrong.png","","null"
"image-button-response","398","1211168","0.0-13.0-0.113","19","Low_HMMActual","","","","","","522.3000000007451","","","","Images/NewTrialWC.png","","2"
"image-button-response","399","1211470","0.0-13.0-1.113","19","Low_HMMActual","","","","","","null","","","","Images/WhiteBeadChoice.png","","null"
"image-button-response","400","1211973","0.0-13.0-2.113","19","Low_HMMActual","","","","","","488.0999999977648","","","","Images/WhiteBeadChoiceCorrect.png","","2"
"image-button-response","401","1212540","0.0-13.0-0.114","19","Low_HMMActual","","","","","","563.6000000014901","","","","Images/NewTrialWC.png","","2"
"image-button-response","402","1212843","0.0-13.0-1.114","19","Low_HMMActual","","","","","","null","","","","Images/WhiteBeadChoice.png","","null"
"image-button-response","403","1213352","0.0-13.0-2.114","19","Low_HMMActual","","","","","","null","","","","Images/WhiteBeadChoiceCorrect.png","","null"
"image-button-response","404","1213536","0.0-13.0-0.115","19","Low_HMMActual","","","","","","182.60000000149012","","","","Images/NewTrialWC.png","","2"
"image-button-response","405","1213840","0.0-13.0-1.115","19","Low_HMMActual","","","","","","null","","","","Images/WhiteBeadChoice.png","","null"
"image-button-response","406","1214343","0.0-13.0-2.115","19","Low_HMMActual","","","","","","null","","","","Images/WhiteBeadChoiceCorrect.png","","null"
"image-button-response","407","1214530","0.0-13.0-0.116","19","Low_HMMActual","","","","","","184.60000000149012","","","","Images/NewTrialWC.png","","2"
"image-button-response","408","1214834","0.0-13.0-1.116","19","Low_HMMActual","","","","","","null","","","","Images/WhiteBeadChoice.png","","null"
"image-button-response","409","1215337","0.0-13.0-2.116","19","Low_HMMActual","","","","","","null","","","","Images/WhiteBeadChoiceWrong.png","","null"
"image-button-response","410","1215904","0.0-13.0-0.117","19","Low_HMMActual","","","","","","565.3999999985099","","","","Images/NewTrialBC.png","","0"
"image-button-response","411","1216208","0.0-13.0-1.117","19","Low_HMMActual","","","","","","null","","","","Images/BlackBeadChoice.png","","null"
"image-button-response","412","1216711","0.0-13.0-2.117","19","Low_HMMActual","","","","","","null","","","","Images/BlackBeadChoiceCorrect.png","","null"
"image-button-response","413","1217268","0.0-13.0-0.118","19","Low_HMMActual","","","","","","555.1999999992549","","","","Images/NewTrialBC.png","","0"
"image-button-response","414","1217577","0.0-13.0-1.118","19","Low_HMMActual","","","","","","null","","","","Images/BlackBeadChoice.png","","null"
"image-button-response","415","1218093","0.0-13.0-2.118","19","Low_HMMActual","","","","","","458.29999999701977","","","","Images/BlackBeadChoiceCorrect.png","","0"
"image-button-response","416","1218605","0.0-13.0-0.119","19","Low_HMMActual","","","","","","509.5","","","","Images/NewTrialBC.png","","0"
"image-button-response","417","1218914","0.0-13.0-1.119","19","Low_HMMActual","","","","","","null","","","","Images/BlackBeadChoice.png","","null"
"image-button-response","418","1219417","0.0-13.0-2.119","19","Low_HMMActual","","","","","","null","","","","Images/BlackBeadChoiceCorrect.png","","null"
"image-button-response","419","1220052","0.0-13.0-0.120","19","Low_HMMActual","","","","","","632.6999999992549","","","","Images/NewTrialBC.png","","0"
"image-button-response","420","1220354","0.0-13.0-1.120","19","Low_HMMActual","","","","","","null","","","","Images/BlackBeadChoice.png","","null"
"image-button-response","421","1221568","0.0-13.0-2.120","19","Low_HMMActual","","","","","","null","","","","Images/BlackBeadChoiceWrong.png","","null"
"image-button-response","422","1316573","0.0-13.0-0.121","19","Low_HMMActual","","","","","","95002.5","","","","Images/NewTrialWC.png","","2"
"image-button-response","423","1316877","0.0-13.0-1.121","19","Low_HMMActual","","","","","","null","","","","Images/WhiteBeadChoice.png","","null"
"image-button-response","424","1317379","0.0-13.0-2.121","19","Low_HMMActual","","","","","","490","","","","Images/WhiteBeadChoiceCorrect.png","","2"
"image-button-response","425","1318051","0.0-13.0-0.122","19","Low_HMMActual","","","","","","669.6000000014901","","","","Images/NewTrialWC.png","","2"
"image-button-response","426","1318369","0.0-13.0-1.122","19","Low_HMMActual","","","","","","null","","","","Images/WhiteBeadChoice.png","","null"
"image-button-response","427","1318886","0.0-13.0-2.122","19","Low_HMMActual","","","","","","418.5","","","","Images/WhiteBeadChoiceCorrect.png","","2"
"image-button-response","428","1319466","0.0-13.0-0.123","19","Low_HMMActual","","","","","","577.4000000022352","","","","Images/NewTrialWC.png","","2"
"image-button-response","429","1319777","0.0-13.0-1.123","19","Low_HMMActual","","","","","","null","","","","Images/WhiteBeadChoice.png","","null"
"image-button-response","430","1320279","0.0-13.0-2.123","19","Low_HMMActual","","","","","","null","","","","Images/WhiteBeadChoiceWrong.png","","null"
"image-button-response","431","1320569","0.0-13.0-0.124","19","Low_HMMActual","","","","","","288.9000000022352","","","","Images/NewTrialBC.png","","0"
"image-button-response","432","1320875","0.0-13.0-1.124","19","Low_HMMActual","","","","","","null","","","","Images/BlackBeadChoice.png","","null"
"image-button-response","433","1321380","0.0-13.0-2.124","19","Low_HMMActual","","","","","","319.5","","","","Images/BlackBeadChoiceCorrect.png","","0"
"image-button-response","434","1321857","0.0-13.0-0.125","19","Low_HMMActual","","","","","","475.0999999977648","","","","Images/NewTrialBC.png","","0"
"image-button-response","435","1322160","0.0-13.0-1.125","19","Low_HMMActual","","","","","","null","","","","Images/BlackBeadChoice.png","","null"
"image-button-response","436","1322661","0.0-13.0-2.125","19","Low_HMMActual","","","","","","null","","","","Images/BlackBeadChoiceWrong.png","","null"
"image-button-response","437","1323135","0.0-13.0-0.126","19","Low_HMMActual","","","","","","472.1000000014901","","","","Images/NewTrialWC.png","","2"
"image-button-response","438","1323438","0.0-13.0-1.126","19","Low_HMMActual","","","","","","null","","","","Images/WhiteBeadChoice.png","","null"
"image-button-response","439","1323939","0.0-13.0-2.126","19","Low_HMMActual","","","","","","null","","","","Images/WhiteBeadChoiceWrong.png","","null"
"image-button-response","440","1324299","0.0-13.0-0.127","19","Low_HMMActual","","","","","","357.5","","","","Images/NewTrialBC.png","","0"
"image-button-response","441","1324603","0.0-13.0-1.127","19","Low_HMMActual","","","","","","null","","","","Images/BlackBeadChoice.png","","null"
"image-button-response","442","1325104","0.0-13.0-2.127","19","Low_HMMActual","","","","","","null","","","","Images/BlackBeadChoiceCorrect.png","","null"
"image-button-response","443","1325199","0.0-13.0-0.128","19","Low_HMMActual","","","","","","92.30000000074506","","","","Images/NewTrialBC.png","","0"
"image-button-response","444","1325501","0.0-13.0-1.128","19","Low_HMMActual","","","","","","null","","","","Images/BlackBeadChoice.png","","null"
"image-button-response","445","1326005","0.0-13.0-2.128","19","Low_HMMActual","","","","","","422","","","","Images/BlackBeadChoiceCorrect.png","","0"
"image-button-response","446","1326521","0.0-13.0-0.129","19","Low_HMMActual","","","","","","512.8999999985099","","","","Images/NewTrialBC.png","","0"
"image-button-response","447","1326829","0.0-13.0-1.129","19","Low_HMMActual","","","","","","null","","","","Images/BlackBeadChoice.png","","null"
"image-button-response","448","1327335","0.0-13.0-2.129","19","Low_HMMActual","","","","","","395.69999999925494","","","","Images/BlackBeadChoiceCorrect.png","","0"
"image-button-response","449","1327713","0.0-13.0-0.130","19","Low_HMMActual","","","","","","376.30000000074506","","","","Images/NewTrialBC.png","","0"
"image-button-response","450","1328026","0.0-13.0-1.130","19","Low_HMMActual","","","","","","null","","","","Images/BlackBeadChoice.png","","null"
"image-button-response","451","1328528","0.0-13.0-2.130","19","Low_HMMActual","","","","","","null","","","","Images/BlackBeadChoiceCorrect.png","","null"
"image-button-response","452","1329039","0.0-13.0-0.131","19","Low_HMMActual","","","","","","509","","","","Images/NewTrialBC.png","","2"
"image-button-response","453","1329341","0.0-13.0-1.131","19","Low_HMMActual","","","","","","null","","","","Images/WhiteBeadChoice.png","","null"
"image-button-response","454","1329843","0.0-13.0-2.131","19","Low_HMMActual","","","","","","null","","","","Images/WhiteBeadChoiceWrong.png","","null"
"image-button-response","455","1330579","0.0-13.0-0.132","19","Low_HMMActual","","","","","","734","","","","Images/NewTrialBC.png","","2"
"image-button-response","456","1330881","0.0-13.0-1.132","19","Low_HMMActual","","","","","","null","","","","Images/WhiteBeadChoice.png","","null"
"image-button-response","457","1331384","0.0-13.0-2.132","19","Low_HMMActual","","","","","","null","","","","Images/WhiteBeadChoiceWrong.png","","null"
"image-button-response","458","1331815","0.0-13.0-0.133","19","Low_HMMActual","","","","","","429.20000000298023","","","","Images/NewTrialBC.png","","2"
"image-button-response","459","1332121","0.0-13.0-1.133","19","Low_HMMActual","","","","","","null","","","","Images/WhiteBeadChoice.png","","null"
"image-button-response","460","1332624","0.0-13.0-2.133","19","Low_HMMActual","","","","","","null","","","","Images/WhiteBeadChoiceWrong.png","","null"
"image-button-response","461","1332917","0.0-13.0-0.134","19","Low_HMMActual","","","","","","290.3999999985099","","","","Images/NewTrialBC.png","","2"
"image-button-response","462","1333219","0.0-13.0-1.134","19","Low_HMMActual","","","","","","null","","","","Images/WhiteBeadChoice.png","","null"
"image-button-response","463","1333729","0.0-13.0-2.134","19","Low_HMMActual","","","","","","null","","","","Images/WhiteBeadChoiceWrong.png","","null"
"image-button-response","464","1333819","0.0-13.0-0.135","19","Low_HMMActual","","","","","","87.80000000074506","","","","Images/NewTrialBC.png","","2"
"image-button-response","465","1334122","0.0-13.0-1.135","19","Low_HMMActual","","","","","","null","","","","Images/WhiteBeadChoice.png","","null"
"image-button-response","466","1334637","0.0-13.0-2.135","19","Low_HMMActual","","","","","","null","","","","Images/WhiteBeadChoiceCorrect.png","","null"
"image-button-response","467","1335298","0.0-13.0-0.136","19","Low_HMMActual","","","","","","657.4000000022352","","","","Images/NewTrialWC.png","","2"
"image-button-response","468","1335600","0.0-13.0-1.136","19","Low_HMMActual","","","","","","null","","","","Images/WhiteBeadChoice.png","","null"
"image-button-response","469","1336102","0.0-13.0-2.136","19","Low_HMMActual","","","","","","null","","","","Images/WhiteBeadChoiceCorrect.png","","null"
"image-button-response","470","1336223","0.0-13.0-0.137","19","Low_HMMActual","","","","","","118.19999999925494","","","","Images/NewTrialWC.png","","2"
"image-button-response","471","1336525","0.0-13.0-1.137","19","Low_HMMActual","","","","","","null","","","","Images/WhiteBeadChoice.png","","null"
"image-button-response","472","1337037","0.0-13.0-2.137","19","Low_HMMActual","","","","","","372.5","","","","Images/WhiteBeadChoiceCorrect.png","","2"
"image-button-response","473","1337581","0.0-13.0-0.138","19","Low_HMMActual","","","","","","541.5","","","","Images/NewTrialWC.png","","2"
"image-button-response","474","1337892","0.0-13.0-1.138","19","Low_HMMActual","","","","","","null","","","","Images/WhiteBeadChoice.png","","null"
"image-button-response","475","1338409","0.0-13.0-2.138","19","Low_HMMActual","","","","","","369.9000000022352","","","","Images/WhiteBeadChoiceCorrect.png","","2"
"image-button-response","476","1338913","0.0-13.0-0.139","19","Low_HMMActual","","","","","","502.69999999925494","","","","Images/NewTrialWC.png","","2"
"image-button-response","477","1339229","0.0-13.0-1.139","19","Low_HMMActual","","","","","","null","","","","Images/WhiteBeadChoice.png","","null"
"image-button-response","478","1339746","0.0-13.0-2.139","19","Low_HMMActual","","","","","","410.1000000014901","","","","Images/WhiteBeadChoiceCorrect.png","","2"
"image-button-response","479","1340297","0.0-13.0-0.140","19","Low_HMMActual","","","","","","548.6999999992549","","","","Images/NewTrialWC.png","","2"
"image-button-response","480","1340599","0.0-13.0-1.140","19","Low_HMMActual","","","","","","null","","","","Images/WhiteBeadChoice.png","","null"
"image-button-response","481","1341102","0.0-13.0-2.140","19","Low_HMMActual","","","","","","356.5","","","","Images/WhiteBeadChoiceCorrect.png","","2"
"image-button-response","482","1341711","0.0-13.0-0.141","19","Low_HMMActual","","","","","","606.3999999985099","","","","Images/NewTrialWC.png","","2"
"image-button-response","483","1342028","0.0-13.0-1.141","19","Low_HMMActual","","","","","","null","","","","Images/WhiteBeadChoice.png","","null"
"image-button-response","484","1342530","0.0-13.0-2.141","19","Low_HMMActual","","","","","","470","","","","Images/WhiteBeadChoiceCorrect.png","","2"
"image-button-response","485","1343155","0.0-13.0-0.142","19","Low_HMMActual","","","","","","622.6000000014901","","","","Images/NewTrialWC.png","","2"
"image-button-response","486","1343463","0.0-13.0-1.142","19","Low_HMMActual","","","","","","null","","","","Images/WhiteBeadChoice.png","","null"
"image-button-response","487","1343964","0.0-13.0-2.142","19","Low_HMMActual","","","","","","null","","","","Images/WhiteBeadChoiceWrong.png","","null"
"image-button-response","488","1344631","0.0-13.0-0.143","19","Low_HMMActual","","","","","","665.3000000007451","","","","Images/NewTrialBC.png","","0"
"image-button-response","489","1344934","0.0-13.0-1.143","19","Low_HMMActual","","","","","","null","","","","Images/BlackBeadChoice.png","","null"
"image-button-response","490","1345435","0.0-13.0-2.143","19","Low_HMMActual","","","","","","null","","","","Images/BlackBeadChoiceWrong.png","","null"
"image-button-response","491","1345837","0.0-13.0-0.144","19","Low_HMMActual","","","","","","399.69999999925494","","","","Images/NewTrialWC.png","","2"
"image-button-response","492","1346148","0.0-13.0-1.144","19","Low_HMMActual","","","","","","null","","","","Images/WhiteBeadChoice.png","","null"
"image-button-response","493","1346651","0.0-13.0-2.144","19","Low_HMMActual","","","","","","null","","","","Images/WhiteBeadChoiceCorrect.png","","null"
"image-button-response","494","1347211","0.0-13.0-0.145","19","Low_HMMActual","","","","","","558.3000000007451","","","","Images/NewTrialWC.png","","2"
"image-button-response","495","1347516","0.0-13.0-1.145","19","Low_HMMActual","","","","","","null","","","","Images/WhiteBeadChoice.png","","null"
"image-button-response","496","1348018","0.0-13.0-2.145","19","Low_HMMActual","","","","","","389.5","","","","Images/WhiteBeadChoiceCorrect.png","","2"
"image-button-response","497","1348611","0.0-13.0-0.146","19","Low_HMMActual","","","","","","590.1999999992549","","","","Images/NewTrialWC.png","","2"
"image-button-response","498","1348928","0.0-13.0-1.146","19","Low_HMMActual","","","","","","null","","","","Images/WhiteBeadChoice.png","","null"
"image-button-response","499","1349430","0.0-13.0-2.146","19","Low_HMMActual","","","","","","null","","","","Images/WhiteBeadChoiceWrong.png","","null"
"image-button-response","500","1349871","0.0-13.0-0.147","19","Low_HMMActual","","","","","","438.0999999977648","","","","Images/NewTrialBC.png","","0"
"image-button-response","501","1350176","0.0-13.0-1.147","19","Low_HMMActual","","","","","","null","","","","Images/BlackBeadChoice.png","","null"
"image-button-response","502","1350678","0.0-13.0-2.147","19","Low_HMMActual","","","","","","null","","","","Images/BlackBeadChoiceWrong.png","","null"
"image-button-response","503","1350973","0.0-13.0-0.148","19","Low_HMMActual","","","","","","293.19999999925494","","","","Images/NewTrialWC.png","","2"
"image-button-response","504","1351289","0.0-13.0-1.148","19","Low_HMMActual","","","","","","null","","","","Images/WhiteBeadChoice.png","","null"
"image-button-response","505","1351808","0.0-13.0-2.148","19","Low_HMMActual","","","","","","371.69999999925494","","","","Images/WhiteBeadChoiceCorrect.png","","2"
"image-button-response","506","1352249","0.0-13.0-0.149","19","Low_HMMActual","","","","","","439.80000000074506","","","","Images/NewTrialWC.png","","2"
"image-button-response","507","1352566","0.0-13.0-1.149","19","Low_HMMActual","","","","","","null","","","","Images/WhiteBeadChoice.png","","null"
"image-button-response","508","1353073","0.0-13.0-2.149","19","Low_HMMActual","","","","","","345.6000000014901","","","","Images/WhiteBeadChoiceWrong.png","","2"
"image-button-response","509","1354271","0.0-13.0-0.150","19","Low_HMMActual","","","","","","1196","","","","Images/NewTrialBC.png","","0"
"image-button-response","510","1354576","0.0-13.0-1.150","19","Low_HMMActual","","","","","","null","","","","Images/BlackBeadChoice.png","","null"
"image-button-response","511","1355077","0.0-13.0-2.150","19","Low_HMMActual","","","","","","null","","","","Images/BlackBeadChoiceWrong.png","","null"
"image-button-response","512","1355371","0.0-13.0-0.151","19","Low_HMMActual","","","","","","291.6000000014901","","","","Images/NewTrialWC.png","","2"
"image-button-response","513","1355681","0.0-13.0-1.151","19","Low_HMMActual","","","","","","null","","","","Images/WhiteBeadChoice.png","","null"
"image-button-response","514","1356184","0.0-13.0-2.151","19","Low_HMMActual","","","","","","476.80000000074506","","","","Images/WhiteBeadChoiceCorrect.png","","2"
"image-button-response","515","1356627","0.0-13.0-0.152","19","Low_HMMActual","","","","","","439.69999999925494","","","","Images/NewTrialWC.png","","2"
"image-button-response","516","1356934","0.0-13.0-1.152","19","Low_HMMActual","","","","","","null","","","","Images/WhiteBeadChoice.png","","null"
"image-button-response","517","1357437","0.0-13.0-2.152","19","Low_HMMActual","","","","","","371.69999999925494","","","","Images/WhiteBeadChoiceCorrect.png","","2"
"image-button-response","518","1357909","0.0-13.0-0.153","19","Low_HMMActual","","","","","","469.79999999701977","","","","Images/NewTrialWC.png","","2"
"image-button-response","519","1358212","0.0-13.0-1.153","19","Low_HMMActual","","","","","","null","","","","Images/WhiteBeadChoice.png","","null"
"image-button-response","520","1358729","0.0-13.0-2.153","19","Low_HMMActual","","","","","","369.3999999985099","","","","Images/WhiteBeadChoiceCorrect.png","","2"
"image-button-response","521","1359190","0.0-13.0-0.154","19","Low_HMMActual","","","","","","454.0999999977648","","","","Images/NewTrialWC.png","","2"
"image-button-response","522","1359499","0.0-13.0-1.154","19","Low_HMMActual","","","","","","null","","","","Images/WhiteBeadChoice.png","","null"
"image-button-response","523","1360001","0.0-13.0-2.154","19","Low_HMMActual","","","","","","null","","","","Images/WhiteBeadChoiceCorrect.png","","null"
"image-button-response","524","1360215","0.0-13.0-0.155","19","Low_HMMActual","","","","","","212.19999999925494","","","","Images/NewTrialWC.png","","2"
"image-button-response","525","1360524","0.0-13.0-1.155","19","Low_HMMActual","","","","","","null","","","","Images/WhiteBeadChoice.png","","null"
"image-button-response","526","1361026","0.0-13.0-2.155","19","Low_HMMActual","","","","","","null","","","","Images/WhiteBeadChoiceWrong.png","","null"
"image-button-response","527","1361421","0.0-13.0-0.156","19","Low_HMMActual","","","","","","392.79999999701977","","","","Images/NewTrialBC.png","","0"
"image-button-response","528","1361738","0.0-13.0-1.156","19","Low_HMMActual","","","","","","null","","","","Images/BlackBeadChoice.png","","null"
"image-button-response","529","1362240","0.0-13.0-2.156","19","Low_HMMActual","","","","","","313.69999999925494","","","","Images/BlackBeadChoiceCorrect.png","","0"
"image-button-response","530","1362661","0.0-13.0-0.157","19","Low_HMMActual","","","","","","419.69999999925494","","","","Images/NewTrialBC.png","","0"
"image-button-response","531","1362966","0.0-13.0-1.157","19","Low_HMMActual","","","","","","null","","","","Images/BlackBeadChoice.png","","null"
"image-button-response","532","1363471","0.0-13.0-2.157","19","Low_HMMActual","","","","","","317.9000000022352","","","","Images/BlackBeadChoiceCorrect.png","","0"
"image-button-response","533","1363823","0.0-13.0-0.158","19","Low_HMMActual","","","","","","349.3999999985099","","","","Images/NewTrialBC.png","","0"
"image-button-response","534","1364129","0.0-13.0-1.158","19","Low_HMMActual","","","","","","null","","","","Images/BlackBeadChoice.png","","null"
"image-button-response","535","1364633","0.0-13.0-2.158","19","Low_HMMActual","","","","","","322.30000000074506","","","","Images/BlackBeadChoiceCorrect.png","","0"
"image-button-response","536","1364903","0.0-13.0-0.159","19","Low_HMMActual","","","","","","263.30000000074506","","","","Images/NewTrialBC.png","","0"
"image-button-response","537","1365217","0.0-13.0-1.159","19","Low_HMMActual","","","","","","null","","","","Images/BlackBeadChoice.png","","null"
"image-button-response","538","1365722","0.0-13.0-2.159","19","Low_HMMActual","","","","","","360.6000000014901","","","","Images/BlackBeadChoiceCorrect.png","","0"
"image-button-response","539","1366105","0.0-13.0-0.160","19","Low_HMMActual","","","","","","380.8999999985099","","","","Images/NewTrialBC.png","","0"
"image-button-response","540","1366412","0.0-13.0-1.160","19","Low_HMMActual","","","","","","null","","","","Images/BlackBeadChoice.png","","null"
"image-button-response","541","1366925","0.0-13.0-2.160","19","Low_HMMActual","","","","","","283.79999999701977","","","","Images/BlackBeadChoiceCorrect.png","","0"
"image-button-response","542","1367195","0.0-13.0-0.161","19","Low_HMMActual","","","","","","267.69999999925494","","","","Images/NewTrialBC.png","","0"
"image-button-response","543","1367503","0.0-13.0-1.161","19","Low_HMMActual","","","","","","null","","","","Images/BlackBeadChoice.png","","null"
"image-button-response","544","1368005","0.0-13.0-2.161","19","Low_HMMActual","","","","","","null","","","","Images/BlackBeadChoiceWrong.png","","null"
"image-button-response","545","1368439","0.0-13.0-0.162","19","Low_HMMActual","","","","","","432.80000000074506","","","","Images/NewTrialWC.png","","2"
"image-button-response","546","1368753","0.0-13.0-1.162","19","Low_HMMActual","","","","","","null","","","","Images/WhiteBeadChoice.png","","null"
"image-button-response","547","1369258","0.0-13.0-2.162","19","Low_HMMActual","","","","","","330.3999999985099","","","","Images/WhiteBeadChoiceCorrect.png","","2"
"image-button-response","548","1369703","0.0-13.0-0.163","19","Low_HMMActual","","","","","","442.3999999985099","","","","Images/NewTrialWC.png","","2"
"image-button-response","549","1370021","0.0-13.0-1.163","19","Low_HMMActual","","","","","","null","","","","Images/WhiteBeadChoice.png","","null"
"image-button-response","550","1370537","0.0-13.0-2.163","19","Low_HMMActual","","","","","","350.19999999925494","","","","Images/WhiteBeadChoiceCorrect.png","","2"
"image-button-response","551","1370781","0.0-13.0-0.164","19","Low_HMMActual","","","","","","242.39999999850988","","","","Images/NewTrialWC.png","","2"
"image-button-response","552","1371097","0.0-13.0-1.164","19","Low_HMMActual","","","","","","null","","","","Images/WhiteBeadChoice.png","","null"
"image-button-response","553","1371599","0.0-13.0-2.164","19","Low_HMMActual","","","","","","351.8999999985099","","","","Images/WhiteBeadChoiceCorrect.png","","2"
"image-button-response","554","1372071","0.0-13.0-0.165","19","Low_HMMActual","","","","","","470.4000000022352","","","","Images/NewTrialWC.png","","2"
"image-button-response","555","1372379","0.0-13.0-1.165","19","Low_HMMActual","","","","","","null","","","","Images/WhiteBeadChoice.png","","null"
"image-button-response","556","1372894","0.0-13.0-2.165","19","Low_HMMActual","","","","","","348.5","","","","Images/WhiteBeadChoiceCorrect.png","","2"
"image-button-response","557","1373323","0.0-13.0-0.166","19","Low_HMMActual","","","","","","427","","","","Images/NewTrialWC.png","","2"
"image-button-response","558","1373624","0.0-13.0-1.166","19","Low_HMMActual","","","","","","null","","","","Images/WhiteBeadChoice.png","","null"
"image-button-response","559","1374137","0.0-13.0-2.166","19","Low_HMMActual","","","","","","409.5","","","","Images/WhiteBeadChoiceCorrect.png","","2"
"image-button-response","560","1374966","0.0-13.0-0.167","19","Low_HMMActual","","","","","","826.3000000007451","","","","Images/NewTrialWC.png","","2"
"image-button-response","561","1375268","0.0-13.0-1.167","19","Low_HMMActual","","","","","","null","","","","Images/WhiteBeadChoice.png","","null"
"image-button-response","562","1375774","0.0-13.0-2.167","19","Low_HMMActual","","","","","","362.19999999925494","","","","Images/WhiteBeadChoiceCorrect.png","","2"
"image-button-response","563","1376274","0.0-13.0-0.168","19","Low_HMMActual","","","","","","495.5","","","","Images/NewTrialWC.png","","2"
"image-button-response","564","1376587","0.0-13.0-1.168","19","Low_HMMActual","","","","","","null","","","","Images/WhiteBeadChoice.png","","null"
"image-button-response","565","1377090","0.0-13.0-2.168","19","Low_HMMActual","","","","","","null","","","","Images/WhiteBeadChoiceWrong.png","","null"
"image-button-response","566","1377594","0.0-13.0-0.169","19","Low_HMMActual","","","","","","502.6000000014901","","","","Images/NewTrialBC.png","","0"
"image-button-response","567","1377897","0.0-13.0-1.169","19","Low_HMMActual","","","","","","null","","","","Images/BlackBeadChoice.png","","null"
"image-button-response","568","1378406","0.0-13.0-2.169","19","Low_HMMActual","","","","","","299.3999999985099","","","","Images/BlackBeadChoiceWrong.png","","0"
"image-button-response","569","1379099","0.0-13.0-0.170","19","Low_HMMActual","","","","","","691.6999999992549","","","","Images/NewTrialWC.png","","0"
"image-button-response","570","1379403","0.0-13.0-1.170","19","Low_HMMActual","","","","","","null","","","","Images/BlackBeadChoice.png","","null"
"image-button-response","571","1379905","0.0-13.0-2.170","19","Low_HMMActual","","","","","","null","","","","Images/BlackBeadChoiceWrong.png","","null"
"image-button-response","572","1380056","0.0-13.0-0.171","19","Low_HMMActual","","","","","","148.89999999850988","","","","Images/NewTrialWC.png","","2"
"image-button-response","573","1380369","0.0-13.0-1.171","19","Low_HMMActual","","","","","","null","","","","Images/WhiteBeadChoice.png","","null"
"image-button-response","574","1380879","0.0-13.0-2.171","19","Low_HMMActual","","","","","","431.1000000014901","","","","Images/WhiteBeadChoiceCorrect.png","","2"
"image-button-response","575","1381476","0.0-13.0-0.172","19","Low_HMMActual","","","","","","595.3999999985099","","","","Images/NewTrialWC.png","","2"
"image-button-response","576","1381778","0.0-13.0-1.172","19","Low_HMMActual","","","","","","null","","","","Images/WhiteBeadChoice.png","","null"
"image-button-response","577","1382287","0.0-13.0-2.172","19","Low_HMMActual","","","","","","312.3999999985099","","","","Images/WhiteBeadChoiceCorrect.png","","2"
"image-button-response","578","1382722","0.0-13.0-0.173","19","Low_HMMActual","","","","","","432.5999999977648","","","","Images/NewTrialWC.png","","2"
"image-button-response","579","1383034","0.0-13.0-1.173","19","Low_HMMActual","","","","","","null","","","","Images/WhiteBeadChoice.png","","null"
"image-button-response","580","1383549","0.0-13.0-2.173","19","Low_HMMActual","","","","","","382.29999999701977","","","","Images/WhiteBeadChoiceCorrect.png","","2"
"image-button-response","581","1383804","0.0-13.0-0.174","19","Low_HMMActual","","","","","","252.39999999850988","","","","Images/NewTrialWC.png","","2"
"image-button-response","582","1384109","0.0-13.0-1.174","19","Low_HMMActual","","","","","","null","","","","Images/WhiteBeadChoice.png","","null"
"image-button-response","583","1384610","0.0-13.0-2.174","19","Low_HMMActual","","","","","","323.6000000014901","","","","Images/WhiteBeadChoiceCorrect.png","","2"
"image-button-response","584","1385210","0.0-13.0-0.175","19","Low_HMMActual","","","","","","597.5999999977648","","","","Images/NewTrialWC.png","","2"
"image-button-response","585","1385511","0.0-13.0-1.175","19","Low_HMMActual","","","","","","null","","","","Images/WhiteBeadChoice.png","","null"
"image-button-response","586","1386026","0.0-13.0-2.175","19","Low_HMMActual","","","","","","403.5","","","","Images/WhiteBeadChoiceWrong.png","","2"
"image-button-response","587","1386887","0.0-13.0-0.176","19","Low_HMMActual","","","","","","859.2999999970198","","","","Images/NewTrialBC.png","","0"
"image-button-response","588","1387198","0.0-13.0-1.176","19","Low_HMMActual","","","","","","null","","","","Images/BlackBeadChoice.png","","null"
"image-button-response","589","1387714","0.0-13.0-2.176","19","Low_HMMActual","","","","","","301","","","","Images/BlackBeadChoiceCorrect.png","","0"
"image-button-response","590","1388111","0.0-13.0-0.177","19","Low_HMMActual","","","","","","396.19999999925494","","","","Images/NewTrialBC.png","","0"
"image-button-response","591","1388429","0.0-13.0-1.177","19","Low_HMMActual","","","","","","null","","","","Images/BlackBeadChoice.png","","null"
"image-button-response","592","1388942","0.0-13.0-2.177","19","Low_HMMActual","","","","","","381.6000000014901","","","","Images/BlackBeadChoiceCorrect.png","","0"
"image-button-response","593","1389391","0.0-13.0-0.178","19","Low_HMMActual","","","","","","447.79999999701977","","","","Images/NewTrialBC.png","","0"
"image-button-response","594","1389704","0.0-13.0-1.178","19","Low_HMMActual","","","","","","null","","","","Images/BlackBeadChoice.png","","null"
"image-button-response","595","1390218","0.0-13.0-2.178","19","Low_HMMActual","","","","","","null","","","","Images/BlackBeadChoiceWrong.png","","null"
"image-button-response","596","1391444","0.0-13.0-0.179","19","Low_HMMActual","","","","","","1224.2000000029802","","","","Images/NewTrialWC.png","","2"
"image-button-response","597","1391760","0.0-13.0-1.179","19","Low_HMMActual","","","","","","null","","","","Images/WhiteBeadChoice.png","","null"
"image-button-response","598","1392273","0.0-13.0-2.179","19","Low_HMMActual","","","","","","null","","","","Images/WhiteBeadChoiceWrong.png","","null"
"image-button-response","599","1392911","0.0-13.0-0.180","19","Low_HMMActual","","","","","","636.1999999992549","","","","Images/NewTrialBC.png","","0"
"image-button-response","600","1393229","0.0-13.0-1.180","19","Low_HMMActual","","","","","","null","","","","Images/BlackBeadChoice.png","","null"
"image-button-response","601","1393743","0.0-13.0-2.180","19","Low_HMMActual","","","","","","355.19999999925494","","","","Images/BlackBeadChoiceCorrect.png","","0"
"image-button-response","602","1393996","0.0-13.0-0.181","19","Low_HMMActual","","","","","","251.40000000223517","","","","Images/NewTrialBC.png","","0"
"image-button-response","603","1394306","0.0-13.0-1.181","19","Low_HMMActual","","","","","","null","","","","Images/BlackBeadChoice.png","","null"
"image-button-response","604","1394808","0.0-13.0-2.181","19","Low_HMMActual","","","","","","337.69999999925494","","","","Images/BlackBeadChoiceCorrect.png","","0"
"image-button-response","605","1395031","0.0-13.0-0.182","19","Low_HMMActual","","","","","","222","","","","Images/NewTrialBC.png","","0"
"image-button-response","606","1395340","0.0-13.0-1.182","19","Low_HMMActual","","","","","","null","","","","Images/BlackBeadChoice.png","","null"
"image-button-response","607","1395843","0.0-13.0-2.182","19","Low_HMMActual","","","","","","null","","","","Images/BlackBeadChoiceCorrect.png","","null"
"image-button-response","608","1395956","0.0-13.0-0.183","19","Low_HMMActual","","","","","","111.09999999776483","","","","Images/NewTrialBC.png","","0"
"image-button-response","609","1396258","0.0-13.0-1.183","19","Low_HMMActual","","","","","","null","","","","Images/BlackBeadChoice.png","","null"
"image-button-response","610","1396775","0.0-13.0-2.183","19","Low_HMMActual","","","","","","440","","","","Images/BlackBeadChoiceCorrect.png","","0"
"image-button-response","611","1397161","0.0-13.0-0.184","19","Low_HMMActual","","","","","","385","","","","Images/NewTrialBC.png","","0"
"image-button-response","612","1397464","0.0-13.0-1.184","19","Low_HMMActual","","","","","","null","","","","Images/BlackBeadChoice.png","","null"
"image-button-response","613","1397966","0.0-13.0-2.184","19","Low_HMMActual","","","","","","475.8999999985099","","","","Images/BlackBeadChoiceCorrect.png","","0"
"image-button-response","614","1398393","0.0-13.0-0.185","19","Low_HMMActual","","","","","","426.0999999977648","","","","Images/NewTrialBC.png","","0"
"image-button-response","615","1398705","0.0-13.0-1.185","19","Low_HMMActual","","","","","","null","","","","Images/BlackBeadChoice.png","","null"
"image-button-response","616","1399208","0.0-13.0-2.185","19","Low_HMMActual","","","","","","362.19999999925494","","","","Images/BlackBeadChoiceCorrect.png","","0"
"image-button-response","617","1399523","0.0-13.0-0.186","19","Low_HMMActual","","","","","","314.29999999701977","","","","Images/NewTrialBC.png","","0"
"image-button-response","618","1399843","0.0-13.0-1.186","19","Low_HMMActual","","","","","","null","","","","Images/BlackBeadChoice.png","","null"
"image-button-response","619","1400352","0.0-13.0-2.186","19","Low_HMMActual","","","","","","507.5","","","","Images/BlackBeadChoiceCorrect.png","","0"
"image-button-response","620","1400753","0.0-13.0-0.187","19","Low_HMMActual","","","","","","399.19999999925494","","","","Images/NewTrialBC.png","","0"
"image-button-response","621","1401059","0.0-13.0-1.187","19","Low_HMMActual","","","","","","null","","","","Images/BlackBeadChoice.png","","null"
"image-button-response","622","1401561","0.0-13.0-2.187","19","Low_HMMActual","","","","","","null","","","","Images/BlackBeadChoiceWrong.png","","null"
"image-button-response","623","1402018","0.0-13.0-0.188","19","Low_HMMActual","","","","","","454.6000000014901","","","","Images/NewTrialWC.png","","2"
"image-button-response","624","1402333","0.0-13.0-1.188","19","Low_HMMActual","","","","","","null","","","","Images/WhiteBeadChoice.png","","null"
"image-button-response","625","1402835","0.0-13.0-2.188","19","Low_HMMActual","","","","","","485.3999999985099","","","","Images/WhiteBeadChoiceCorrect.png","","2"
"image-button-response","626","1403272","0.0-13.0-0.189","19","Low_HMMActual","","","","","","435.5","","","","Images/NewTrialWC.png","","2"
"image-button-response","627","1403582","0.0-13.0-1.189","19","Low_HMMActual","","","","","","null","","","","Images/WhiteBeadChoice.png","","null"
"image-button-response","628","1404097","0.0-13.0-2.189","19","Low_HMMActual","","","","","","410","","","","Images/WhiteBeadChoiceCorrect.png","","2"
"image-button-response","629","1404623","0.0-13.0-0.190","19","Low_HMMActual","","","","","","524.5","","","","Images/NewTrialWC.png","","2"
"image-button-response","630","1404935","0.0-13.0-1.190","19","Low_HMMActual","","","","","","null","","","","Images/WhiteBeadChoice.png","","null"
"image-button-response","631","1405454","0.0-13.0-2.190","19","Low_HMMActual","","","","","","401.19999999925494","","","","Images/WhiteBeadChoiceCorrect.png","","2"
"image-button-response","632","1405873","0.0-13.0-0.191","19","Low_HMMActual","","","","","","417.19999999925494","","","","Images/NewTrialWC.png","","2"
"image-button-response","633","1406191","0.0-13.0-1.191","19","Low_HMMActual","","","","","","null","","","","Images/WhiteBeadChoice.png","","null"
"image-button-response","634","1406693","0.0-13.0-2.191","19","Low_HMMActual","","","","","","379","","","","Images/WhiteBeadChoiceCorrect.png","","2"
"image-button-response","635","1407121","0.0-13.0-0.192","19","Low_HMMActual","","","","","","426.5999999977648","","","","Images/NewTrialWC.png","","2"
"image-button-response","636","1407428","0.0-13.0-1.192","19","Low_HMMActual","","","","","","null","","","","Images/WhiteBeadChoice.png","","null"
"image-button-response","637","1407931","0.0-13.0-2.192","19","Low_HMMActual","","","","","","351.6000000014901","","","","Images/WhiteBeadChoiceCorrect.png","","2"
"image-button-response","638","1408208","0.0-13.0-0.193","19","Low_HMMActual","","","","","","274.19999999925494","","","","Images/NewTrialWC.png","","2"
"image-button-response","639","1408511","0.0-13.0-1.193","19","Low_HMMActual","","","","","","null","","","","Images/WhiteBeadChoice.png","","null"
"image-button-response","640","1409015","0.0-13.0-2.193","19","Low_HMMActual","","","","","","311.6000000014901","","","","Images/WhiteBeadChoiceCorrect.png","","2"
"image-button-response","641","1409430","0.0-13.0-0.194","19","Low_HMMActual","","","","","","412.69999999925494","","","","Images/NewTrialWC.png","","2"
"image-button-response","642","1409740","0.0-13.0-1.194","19","Low_HMMActual","","","","","","null","","","","Images/WhiteBeadChoice.png","","null"
"image-button-response","643","1410243","0.0-13.0-2.194","19","Low_HMMActual","","","","","","451.6000000014901","","","","Images/WhiteBeadChoiceCorrect.png","","2"
"image-button-response","644","1410696","0.0-13.0-0.195","19","Low_HMMActual","","","","","","450.4000000022352","","","","Images/NewTrialWC.png","","2"
"image-button-response","645","1411004","0.0-13.0-1.195","19","Low_HMMActual","","","","","","null","","","","Images/WhiteBeadChoice.png","","null"
"image-button-response","646","1411508","0.0-13.0-2.195","19","Low_HMMActual","","","","","","310.30000000074506","","","","Images/WhiteBeadChoiceCorrect.png","","2"
"image-button-response","647","1411797","0.0-13.0-0.196","19","Low_HMMActual","","","","","","286.69999999925494","","","","Images/NewTrialWC.png","","2"
"image-button-response","648","1412099","0.0-13.0-1.196","19","Low_HMMActual","","","","","","null","","","","Images/WhiteBeadChoice.png","","null"
"image-button-response","649","1412610","0.0-13.0-2.196","19","Low_HMMActual","","","","","","365.9000000022352","","","","Images/WhiteBeadChoiceCorrect.png","","2"
"image-button-response","650","1413168","0.0-13.0-0.197","19","Low_HMMActual","","","","","","555.1999999992549","","","","Images/NewTrialWC.png","","2"
"image-button-response","651","1413472","0.0-13.0-1.197","19","Low_HMMActual","","","","","","null","","","","Images/WhiteBeadChoice.png","","null"
"image-button-response","652","1413975","0.0-13.0-2.197","19","Low_HMMActual","","","","","","465.80000000074506","","","","Images/WhiteBeadChoiceCorrect.png","","2"
"image-button-response","653","1414780","0.0-13.0-0.198","19","Low_HMMActual","","","","","","802.5","","","","Images/NewTrialWC.png","","2"
"image-button-response","654","1415095","0.0-13.0-1.198","19","Low_HMMActual","","","","","","null","","","","Images/WhiteBeadChoice.png","","null"
"image-button-response","655","1415598","0.0-13.0-2.198","19","Low_HMMActual","","","","","","null","","","","Images/WhiteBeadChoiceWrong.png","","null"
"image-button-response","656","1416454","0.0-13.0-0.199","19","Low_HMMActual","","","","","","849.1000000014901","","","","Images/NewTrialBC.png","","0"
"image-button-response","657","1416764","0.0-13.0-1.199","19","Low_HMMActual","","","","","","null","","","","Images/BlackBeadChoice.png","","null"
"image-button-response","658","1417268","0.0-13.0-2.199","19","Low_HMMActual","","","","","","null","","","","Images/BlackBeadChoiceWrong.png","","null"
"image-button-response","659","1417982","0.0-13.0-0.200","19","Low_HMMActual","","","","","","711.2999999970198","","","","Images/NewTrialWC.png","","2"
"image-button-response","660","1418297","0.0-13.0-1.200","19","Low_HMMActual","","","","","","null","","","","Images/WhiteBeadChoice.png","","null"
