"trial_type","trial_index","time_elapsed","internal_node_id","Script_Picker","Block_Type","success","timeout","failed_images","failed_audio","failed_video","rt","url","responses","question_order","stimulus","key_press","response"
"pavlovia","0","86","0.0-0.0","17","Low_HMMActual","","","","","","","","","","","",""
"preload","1","88","0.0-1.0","17","Low_HMMActual","true","false","[]","[]","[]","","","","","","",""
"external-html","2","17302","0.0-2.0-0.0","17","Low_HMMActual","","","","","","17092.299999713898","consent.html","","","","",""
"survey-multi-choice","3","22380","0.0-2.0-1.0","17","Low_HMMActual","","","","","","5071.300000190735","","{""Q0"":""Female"",""Q1"":""White""}","[0,1]","","",""
"survey-text","4","24893","0.0-2.0-2.0","17","Low_HMMActual","","","","","","2507.2999997138977","","{""Q0"":""21""}","","","",""
"survey-text","5","31909","0.0-2.0-3.0","17","Low_HMMActual","","","","","","6909.099999904633","","{""Q0"":""60fdbf3d482bb856698fe018""}","","","",""
"image-keyboard-response","6","49591","0.0-3.0-0.0","17","Low_HMMActual","","","","","","17575.400000095367","","","","tutorial/tutorial1.png"," ",""
"image-keyboard-response","7","56636","0.0-3.0-0.1","17","Low_HMMActual","","","","","","7042.5","","","","tutorial/tutorial2.png"," ",""
"image-keyboard-response","8","59562","0.0-3.0-0.2","17","Low_HMMActual","","","","","","2925.199999809265","","","","tutorial/tutorial3.png"," ",""
"image-keyboard-response","9","61232","0.0-3.0-0.3","17","Low_HMMActual","","","","","","1668.5999999046326","","","","tutorial/tutorial4.png"," ",""
"image-keyboard-response","10","63355","0.0-3.0-0.4","17","Low_HMMActual","","","","","","2122.2000002861023","","","","tutorial/tutorial5.png"," ",""
"image-keyboard-response","11","70068","0.0-3.0-0.5","17","Low_HMMActual","","","","","","6711.199999809265","","","","tutorial/tutorial6.png"," ",""
"image-keyboard-response","12","76862","0.0-3.0-0.6","17","Low_HMMActual","","","","","","6793.300000190735","","","","tutorial/tutorial7.png"," ",""
"image-keyboard-response","13","93826","0.0-3.0-0.7","17","Low_HMMActual","","","","","","16961.800000190735","","","","tutorial/tutorial8.png"," ",""
"image-keyboard-response","14","100559","0.0-3.0-0.8","17","Low_HMMActual","","","","","","6732","","","","tutorial/tutorial9.png"," ",""
"image-keyboard-response","15","107092","0.0-3.0-0.9","17","Low_HMMActual","","","","","","6530.800000190735","","","","tutorial/tutorial10.png"," ",""
"image-keyboard-response","16","112239","0.0-3.0-0.10","17","Low_HMMActual","","","","","","5146.199999809265","","","","tutorial/tutorial11.png"," ",""
"image-keyboard-response","17","117922","0.0-3.0-0.11","17","Low_HMMActual","","","","","","5681.199999809265","","","","tutorial/tutorial12.png"," ",""
"image-keyboard-response","18","125393","0.0-3.0-0.12","17","Low_HMMActual","","","","","","7469.799999713898","","","","tutorial/tutorial13.png"," ",""
"image-keyboard-response","19","141080","0.0-3.0-0.13","17","Low_HMMActual","","","","","","15685.299999713898","","","","tutorial/tutorial14.png"," ",""
"image-keyboard-response","20","143239","0.0-3.0-0.14","17","Low_HMMActual","","","","","","2157.699999809265","","","","tutorial/tutorial15.png"," ",""
"image-keyboard-response","21","147374","0.0-4.0","17","Low_HMMActual","","","","","","4133.699999809265","","","","tutorial/tutorial16.png","arrowup",""
"image-keyboard-response","22","154763","0.0-5.0","17","Low_HMMActual","","","","","","5650.199999809265","","","","tutorial/tutorial17.png","arrowright",""
"image-keyboard-response","23","161125","0.0-6.0","17","Low_HMMActual","","","","","","5216.800000190735","","","","tutorial/tutorial18.png","arrowleft",""
"image-keyboard-response","24","166176","0.0-7.0","17","Low_HMMActual","","","","","","4205.60000038147","","","","tutorial/tutorial19.png"," ",""
"html-keyboard-response","25","175148","0.0-8.0","18","Low_HMMActual","","","","","","8967.39999961853","","","","<div class=""container"" style=""height:800px;width:800px;display:flex;flex-direction:column;justify-content:center;align-items:center;text-align:center;font-weight:normal;font-family:Arial;font-size:20px""><p>Loading episode&hellip;</p><div>"," ",""
"image-button-response","26","187610","0.0-9.0-0.0","18","Low_HMMActual","","","","","","12452.699999809265","","","","Images/NoChoice.png","","1"
"image-button-response","27","187919","0.0-9.0-1.0","18","Low_HMMActual","","","","","","null","","","","Images/BlackBeadChoice.png","","null"
"image-button-response","28","188424","0.0-9.0-2.0","18","Low_HMMActual","","","","","","null","","","","Images/BlackBeadChoiceWrong.png","","null"
"image-button-response","29","194605","0.0-9.0-0.1","18","Low_HMMActual","","","","","","6167.599999904633","","","","Images/NewTrialWC.png","","2"
"image-button-response","30","194908","0.0-9.0-1.1","18","Low_HMMActual","","","","","","null","","","","Images/WhiteBeadChoice.png","","null"
"image-button-response","31","195413","0.0-9.0-2.1","18","Low_HMMActual","","","","","","null","","","","Images/WhiteBeadChoiceCorrect.png","","null"
"image-button-response","32","197145","0.0-9.0-0.2","18","Low_HMMActual","","","","","","1728.4000000953674","","","","Images/NewTrialWC.png","","2"
"image-button-response","33","197451","0.0-9.0-1.2","18","Low_HMMActual","","","","","","null","","","","Images/WhiteBeadChoice.png","","null"
"image-button-response","34","197958","0.0-9.0-2.2","18","Low_HMMActual","","","","","","null","","","","Images/WhiteBeadChoiceCorrect.png","","null"
"image-button-response","35","199829","0.0-9.0-0.3","18","Low_HMMActual","","","","","","1866.9000000953674","","","","Images/NewTrialWC.png","","2"
"image-button-response","36","200133","0.0-9.0-1.3","18","Low_HMMActual","","","","","","null","","","","Images/WhiteBeadChoice.png","","null"
"image-button-response","37","200638","0.0-9.0-2.3","18","Low_HMMActual","","","","","","null","","","","Images/WhiteBeadChoiceWrong.png","","null"
"image-button-response","38","205609","0.0-9.0-0.4","18","Low_HMMActual","","","","","","4968","","","","Images/NewTrialBC.png","","2"
"image-button-response","39","205915","0.0-9.0-1.4","18","Low_HMMActual","","","","","","null","","","","Images/WhiteBeadChoice.png","","null"
"image-button-response","40","206419","0.0-9.0-2.4","18","Low_HMMActual","","","","","","null","","","","Images/WhiteBeadChoiceCorrect.png","","null"
"image-button-response","41","207591","0.0-9.0-0.5","18","Low_HMMActual","","","","","","1169","","","","Images/NewTrialWC.png","","2"
"image-button-response","42","207899","0.0-9.0-1.5","18","Low_HMMActual","","","","","","null","","","","Images/WhiteBeadChoice.png","","null"
"image-button-response","43","208405","0.0-9.0-2.5","18","Low_HMMActual","","","","","","null","","","","Images/WhiteBeadChoiceCorrect.png","","null"
"image-button-response","44","209709","0.0-9.0-0.6","18","Low_HMMActual","","","","","","1300.8000001907349","","","","Images/NewTrialWC.png","","2"
"image-button-response","45","210013","0.0-9.0-1.6","18","Low_HMMActual","","","","","","null","","","","Images/WhiteBeadChoice.png","","null"
"image-button-response","46","210518","0.0-9.0-2.6","18","Low_HMMActual","","","","","","null","","","","Images/WhiteBeadChoiceWrong.png","","null"
"image-button-response","47","213044","0.0-9.0-0.7","18","Low_HMMActual","","","","","","2522.3999996185303","","","","Images/NewTrialBC.png","","2"
"image-button-response","48","213361","0.0-9.0-1.7","18","Low_HMMActual","","","","","","null","","","","Images/WhiteBeadChoice.png","","null"
"image-button-response","49","213868","0.0-9.0-2.7","18","Low_HMMActual","","","","","","null","","","","Images/WhiteBeadChoiceCorrect.png","","null"
"image-button-response","50","215181","0.0-9.0-0.8","18","Low_HMMActual","","","","","","1310.7000002861023","","","","Images/NewTrialWC.png","","2"
"image-button-response","51","215488","0.0-9.0-1.8","18","Low_HMMActual","","","","","","null","","","","Images/WhiteBeadChoice.png","","null"
"image-button-response","52","215994","0.0-9.0-2.8","18","Low_HMMActual","","","","","","null","","","","Images/WhiteBeadChoiceCorrect.png","","null"
"image-button-response","53","217418","0.0-9.0-0.9","18","Low_HMMActual","","","","","","1420.9000000953674","","","","Images/NewTrialWC.png","","2"
"image-button-response","54","217723","0.0-9.0-1.9","18","Low_HMMActual","","","","","","null","","","","Images/WhiteBeadChoice.png","","null"
"image-button-response","55","218228","0.0-9.0-2.9","18","Low_HMMActual","","","","","","null","","","","Images/WhiteBeadChoiceWrong.png","","null"
"html-keyboard-response","56","222365","0.0-10.0","18","Low_HMMActual","","","","","","4136.39999961853","","","",""," ",""
"image-keyboard-response","57","226177","0.0-11.0","18","Low_HMMActual","","","","","","3810","","","","tutorial/tutorial20.png"," ",""
"html-keyboard-response","58","234511","0.0-12.0","19","Low_HMMActual","","","","","","8330.299999713898","","","","<div class=""container"" style=""height:800px;width:800px;display:flex;flex-direction:column;justify-content:center;align-items:center;text-align:center;font-weight:normal;font-family:Arial;font-size:20px""><p>Loading episode&hellip;</p><div>"," ",""
"image-button-response","59","237789","0.0-13.0-0.0","19","Low_HMMActual","","","","","","3275.2999997138977","","","","Images/NoChoice.png","","1"
"image-button-response","60","238095","0.0-13.0-1.0","19","Low_HMMActual","","","","","","null","","","","Images/BlackBeadChoice.png","","null"
"image-button-response","61","238601","0.0-13.0-2.0","19","Low_HMMActual","","","","","","null","","","","Images/BlackBeadChoiceWrong.png","","null"
"image-button-response","62","240509","0.0-13.0-0.1","19","Low_HMMActual","","","","","","1905.3000001907349","","","","Images/NewTrialWC.png","","2"
"image-button-response","63","240816","0.0-13.0-1.1","19","Low_HMMActual","","","","","","null","","","","Images/WhiteBeadChoice.png","","null"
"image-button-response","64","241320","0.0-13.0-2.1","19","Low_HMMActual","","","","","","null","","","","Images/WhiteBeadChoiceCorrect.png","","null"
"image-button-response","65","242844","0.0-13.0-0.2","19","Low_HMMActual","","","","","","1519.9000000953674","","","","Images/NewTrialWC.png","","2"
"image-button-response","66","243149","0.0-13.0-1.2","19","Low_HMMActual","","","","","","null","","","","Images/WhiteBeadChoice.png","","null"
"image-button-response","67","243654","0.0-13.0-2.2","19","Low_HMMActual","","","","","","null","","","","Images/WhiteBeadChoiceCorrect.png","","null"
"image-button-response","68","245742","0.0-13.0-0.3","19","Low_HMMActual","","","","","","2084.0999999046326","","","","Images/NewTrialWC.png","","2"
"image-button-response","69","246046","0.0-13.0-1.3","19","Low_HMMActual","","","","","","null","","","","Images/WhiteBeadChoice.png","","null"
"image-button-response","70","246551","0.0-13.0-2.3","19","Low_HMMActual","","","","","","null","","","","Images/WhiteBeadChoiceCorrect.png","","null"
"image-button-response","71","248250","0.0-13.0-0.4","19","Low_HMMActual","","","","","","1695.4000000953674","","","","Images/NewTrialWC.png","","2"
"image-button-response","72","248554","0.0-13.0-1.4","19","Low_HMMActual","","","","","","null","","","","Images/WhiteBeadChoice.png","","null"
"image-button-response","73","249059","0.0-13.0-2.4","19","Low_HMMActual","","","","","","null","","","","Images/WhiteBeadChoiceCorrect.png","","null"
"image-button-response","74","250814","0.0-13.0-0.5","19","Low_HMMActual","","","","","","1751.5","","","","Images/NewTrialWC.png","","2"
"image-button-response","75","251120","0.0-13.0-1.5","19","Low_HMMActual","","","","","","null","","","","Images/WhiteBeadChoice.png","","null"
"image-button-response","76","251636","0.0-13.0-2.5","19","Low_HMMActual","","","","","","null","","","","Images/WhiteBeadChoiceWrong.png","","null"
"image-button-response","77","253489","0.0-13.0-0.6","19","Low_HMMActual","","","","","","1850.0999999046326","","","","Images/NewTrialBC.png","","2"
"image-button-response","78","253796","0.0-13.0-1.6","19","Low_HMMActual","","","","","","null","","","","Images/WhiteBeadChoice.png","","null"
"image-button-response","79","254301","0.0-13.0-2.6","19","Low_HMMActual","","","","","","null","","","","Images/WhiteBeadChoiceWrong.png","","null"
"image-button-response","80","258705","0.0-13.0-0.7","19","Low_HMMActual","","","","","","4401.200000286102","","","","Images/NewTrialBC.png","","1"
"image-button-response","81","259011","0.0-13.0-1.7","19","Low_HMMActual","","","","","","null","","","","Images/BlackBeadChoice.png","","null"
"image-button-response","82","259515","0.0-13.0-2.7","19","Low_HMMActual","","","","","","null","","","","Images/BlackBeadChoiceCorrect.png","","null"
"image-button-response","83","261390","0.0-13.0-0.8","19","Low_HMMActual","","","","","","1872.5999999046326","","","","Images/NewTrialBC.png","","0"
"image-button-response","84","261697","0.0-13.0-1.8","19","Low_HMMActual","","","","","","null","","","","Images/BlackBeadChoice.png","","null"
"image-button-response","85","262202","0.0-13.0-2.8","19","Low_HMMActual","","","","","","null","","","","Images/BlackBeadChoiceCorrect.png","","null"
"image-button-response","86","263692","0.0-13.0-0.9","19","Low_HMMActual","","","","","","1487.2000002861023","","","","Images/NewTrialBC.png","","0"
"image-button-response","87","263996","0.0-13.0-1.9","19","Low_HMMActual","","","","","","null","","","","Images/BlackBeadChoice.png","","null"
"image-button-response","88","264500","0.0-13.0-2.9","19","Low_HMMActual","","","","","","null","","","","Images/BlackBeadChoiceCorrect.png","","null"
"image-button-response","89","265946","0.0-13.0-0.10","19","Low_HMMActual","","","","","","1442.3000001907349","","","","Images/NewTrialBC.png","","0"
"image-button-response","90","266248","0.0-13.0-1.10","19","Low_HMMActual","","","","","","null","","","","Images/BlackBeadChoice.png","","null"
"image-button-response","91","266753","0.0-13.0-2.10","19","Low_HMMActual","","","","","","null","","","","Images/BlackBeadChoiceWrong.png","","null"
"image-button-response","92","268825","0.0-13.0-0.11","19","Low_HMMActual","","","","","","2069.4000000953674","","","","Images/NewTrialWC.png","","1"
"image-button-response","93","269139","0.0-13.0-1.11","19","Low_HMMActual","","","","","","null","","","","Images/BlackBeadChoice.png","","null"
"image-button-response","94","269646","0.0-13.0-2.11","19","Low_HMMActual","","","","","","null","","","","Images/BlackBeadChoiceCorrect.png","","null"
"image-button-response","95","270328","0.0-13.0-0.12","19","Low_HMMActual","","","","","","678.5999999046326","","","","Images/NewTrialBC.png","","0"
"image-button-response","96","270631","0.0-13.0-1.12","19","Low_HMMActual","","","","","","null","","","","Images/BlackBeadChoice.png","","null"
"image-button-response","97","271136","0.0-13.0-2.12","19","Low_HMMActual","","","","","","null","","","","Images/BlackBeadChoiceWrong.png","","null"
"image-button-response","98","274968","0.0-13.0-0.13","19","Low_HMMActual","","","","","","3829.2000002861023","","","","Images/NewTrialWC.png","","3"
"image-button-response","99","275275","0.0-13.0-1.13","19","Low_HMMActual","","","","","","null","","","","Images/WhiteBeadChoice.png","","null"
"image-button-response","100","275780","0.0-13.0-2.13","19","Low_HMMActual","","","","","","null","","","","Images/WhiteBeadChoiceCorrect.png","","null"
"image-button-response","101","276523","0.0-13.0-0.14","19","Low_HMMActual","","","","","","740.0999999046326","","","","Images/NewTrialWC.png","","2"
"image-button-response","102","276831","0.0-13.0-1.14","19","Low_HMMActual","","","","","","null","","","","Images/WhiteBeadChoice.png","","null"
"image-button-response","103","277336","0.0-13.0-2.14","19","Low_HMMActual","","","","","","null","","","","Images/WhiteBeadChoiceCorrect.png","","null"
"image-button-response","104","278394","0.0-13.0-0.15","19","Low_HMMActual","","","","","","1056","","","","Images/NewTrialWC.png","","2"
"image-button-response","105","278700","0.0-13.0-1.15","19","Low_HMMActual","","","","","","null","","","","Images/WhiteBeadChoice.png","","null"
"image-button-response","106","279205","0.0-13.0-2.15","19","Low_HMMActual","","","","","","null","","","","Images/WhiteBeadChoiceCorrect.png","","null"
"image-button-response","107","280151","0.0-13.0-0.16","19","Low_HMMActual","","","","","","942.9000000953674","","","","Images/NewTrialWC.png","","2"
"image-button-response","108","280454","0.0-13.0-1.16","19","Low_HMMActual","","","","","","null","","","","Images/WhiteBeadChoice.png","","null"
"image-button-response","109","280961","0.0-13.0-2.16","19","Low_HMMActual","","","","","","null","","","","Images/WhiteBeadChoiceWrong.png","","null"
"image-button-response","110","281986","0.0-13.0-0.17","19","Low_HMMActual","","","","","","1012.5","","","","Images/NewTrialBC.png","","3"
"image-button-response","111","282294","0.0-13.0-1.17","19","Low_HMMActual","","","","","","null","","","","Images/WhiteBeadChoice.png","","null"
"image-button-response","112","282798","0.0-13.0-2.17","19","Low_HMMActual","","","","","","null","","","","Images/WhiteBeadChoiceWrong.png","","null"
"image-button-response","113","284346","0.0-13.0-0.18","19","Low_HMMActual","","","","","","1545","","","","Images/NewTrialBC.png","","0"
"image-button-response","114","284650","0.0-13.0-1.18","19","Low_HMMActual","","","","","","null","","","","Images/BlackBeadChoice.png","","null"
"image-button-response","115","285155","0.0-13.0-2.18","19","Low_HMMActual","","","","","","null","","","","Images/BlackBeadChoiceCorrect.png","","null"
"image-button-response","116","286110","0.0-13.0-0.19","19","Low_HMMActual","","","","","","951.7999997138977","","","","Images/NewTrialBC.png","","0"
"image-button-response","117","286415","0.0-13.0-1.19","19","Low_HMMActual","","","","","","null","","","","Images/BlackBeadChoice.png","","null"
"image-button-response","118","286932","0.0-13.0-2.19","19","Low_HMMActual","","","","","","null","","","","Images/BlackBeadChoiceCorrect.png","","null"
"image-button-response","119","287814","0.0-13.0-0.20","19","Low_HMMActual","","","","","","878.9000000953674","","","","Images/NewTrialBC.png","","0"
"image-button-response","120","288122","0.0-13.0-1.20","19","Low_HMMActual","","","","","","null","","","","Images/BlackBeadChoice.png","","null"
"image-button-response","121","288627","0.0-13.0-2.20","19","Low_HMMActual","","","","","","null","","","","Images/BlackBeadChoiceCorrect.png","","null"
"image-button-response","122","289657","0.0-13.0-0.21","19","Low_HMMActual","","","","","","1027.9000000953674","","","","Images/NewTrialBC.png","","0"
"image-button-response","123","289961","0.0-13.0-1.21","19","Low_HMMActual","","","","","","null","","","","Images/BlackBeadChoice.png","","null"
"image-button-response","124","290467","0.0-13.0-2.21","19","Low_HMMActual","","","","","","null","","","","Images/BlackBeadChoiceWrong.png","","null"
"image-button-response","125","291794","0.0-13.0-0.22","19","Low_HMMActual","","","","","","1325","","","","Images/NewTrialWC.png","","1"
"image-button-response","126","292098","0.0-13.0-1.22","19","Low_HMMActual","","","","","","null","","","","Images/BlackBeadChoice.png","","null"
"image-button-response","127","292603","0.0-13.0-2.22","19","Low_HMMActual","","","","","","null","","","","Images/BlackBeadChoiceCorrect.png","","null"
"image-button-response","128","293991","0.0-13.0-0.23","19","Low_HMMActual","","","","","","1374.9000000953674","","","","Images/NewTrialBC.png","","0"
"image-button-response","129","294293","0.0-13.0-1.23","19","Low_HMMActual","","","","","","null","","","","Images/BlackBeadChoice.png","","null"
"image-button-response","130","294798","0.0-13.0-2.23","19","Low_HMMActual","","","","","","null","","","","Images/BlackBeadChoiceWrong.png","","null"
"image-button-response","131","295798","0.0-13.0-0.24","19","Low_HMMActual","","","","","","997.7999997138977","","","","Images/NewTrialWC.png","","1"
"image-button-response","132","296104","0.0-13.0-1.24","19","Low_HMMActual","","","","","","null","","","","Images/BlackBeadChoice.png","","null"
"image-button-response","133","296609","0.0-13.0-2.24","19","Low_HMMActual","","","","","","null","","","","Images/BlackBeadChoiceCorrect.png","","null"
"image-button-response","134","297618","0.0-13.0-0.25","19","Low_HMMActual","","","","","","1005.9000000953674","","","","Images/NewTrialBC.png","","0"
"image-button-response","135","297921","0.0-13.0-1.25","19","Low_HMMActual","","","","","","null","","","","Images/BlackBeadChoice.png","","null"
"image-button-response","136","298426","0.0-13.0-2.25","19","Low_HMMActual","","","","","","null","","","","Images/BlackBeadChoiceWrong.png","","null"
"image-button-response","137","299947","0.0-13.0-0.26","19","Low_HMMActual","","","","","","1518.2999997138977","","","","Images/NewTrialWC.png","","1"
"image-button-response","138","300255","0.0-13.0-1.26","19","Low_HMMActual","","","","","","null","","","","Images/BlackBeadChoice.png","","null"
"image-button-response","139","300759","0.0-13.0-2.26","19","Low_HMMActual","","","","","","null","","","","Images/BlackBeadChoiceCorrect.png","","null"
"image-button-response","140","303037","0.0-13.0-0.27","19","Low_HMMActual","","","","","","2274.0999999046326","","","","Images/NewTrialBC.png","","1"
"image-button-response","141","303343","0.0-13.0-1.27","19","Low_HMMActual","","","","","","null","","","","Images/BlackBeadChoice.png","","null"
"image-button-response","142","303848","0.0-13.0-2.27","19","Low_HMMActual","","","","","","null","","","","Images/BlackBeadChoiceCorrect.png","","null"
"image-button-response","143","304431","0.0-13.0-0.28","19","Low_HMMActual","","","","","","579.9000000953674","","","","Images/NewTrialBC.png","","0"
"image-button-response","144","304736","0.0-13.0-1.28","19","Low_HMMActual","","","","","","null","","","","Images/BlackBeadChoice.png","","null"
"image-button-response","145","305241","0.0-13.0-2.28","19","Low_HMMActual","","","","","","null","","","","Images/BlackBeadChoiceWrong.png","","null"
"image-button-response","146","307817","0.0-13.0-0.29","19","Low_HMMActual","","","","","","2573.0999999046326","","","","Images/NewTrialWC.png","","1"
"image-button-response","147","308120","0.0-13.0-1.29","19","Low_HMMActual","","","","","","null","","","","Images/BlackBeadChoice.png","","null"
"image-button-response","148","308625","0.0-13.0-2.29","19","Low_HMMActual","","","","","","null","","","","Images/BlackBeadChoiceCorrect.png","","null"
"image-button-response","149","309805","0.0-13.0-0.30","19","Low_HMMActual","","","","","","1176.3999996185303","","","","Images/NewTrialBC.png","","0"
"image-button-response","150","310112","0.0-13.0-1.30","19","Low_HMMActual","","","","","","null","","","","Images/BlackBeadChoice.png","","null"
"image-button-response","151","310617","0.0-13.0-2.30","19","Low_HMMActual","","","","","","null","","","","Images/BlackBeadChoiceWrong.png","","null"
"image-button-response","152","313256","0.0-13.0-0.31","19","Low_HMMActual","","","","","","2636.6000003814697","","","","Images/NewTrialWC.png","","3"
"image-button-response","153","313562","0.0-13.0-1.31","19","Low_HMMActual","","","","","","null","","","","Images/WhiteBeadChoice.png","","null"
"image-button-response","154","314067","0.0-13.0-2.31","19","Low_HMMActual","","","","","","null","","","","Images/WhiteBeadChoiceCorrect.png","","null"
"image-button-response","155","315032","0.0-13.0-0.32","19","Low_HMMActual","","","","","","962.1000003814697","","","","Images/NewTrialWC.png","","2"
"image-button-response","156","315336","0.0-13.0-1.32","19","Low_HMMActual","","","","","","null","","","","Images/WhiteBeadChoice.png","","null"
"image-button-response","157","315841","0.0-13.0-2.32","19","Low_HMMActual","","","","","","null","","","","Images/WhiteBeadChoiceCorrect.png","","null"
"image-button-response","158","316619","0.0-13.0-0.33","19","Low_HMMActual","","","","","","774.0999999046326","","","","Images/NewTrialWC.png","","2"
"image-button-response","159","316921","0.0-13.0-1.33","19","Low_HMMActual","","","","","","null","","","","Images/WhiteBeadChoice.png","","null"
"image-button-response","160","317426","0.0-13.0-2.33","19","Low_HMMActual","","","","","","null","","","","Images/WhiteBeadChoiceCorrect.png","","null"
"image-button-response","161","318078","0.0-13.0-0.34","19","Low_HMMActual","","","","","","648.7999997138977","","","","Images/NewTrialWC.png","","2"
"image-button-response","162","318386","0.0-13.0-1.34","19","Low_HMMActual","","","","","","null","","","","Images/WhiteBeadChoice.png","","null"
"image-button-response","163","318890","0.0-13.0-2.34","19","Low_HMMActual","","","","","","null","","","","Images/WhiteBeadChoiceWrong.png","","null"
"image-button-response","164","321858","0.0-13.0-0.35","19","Low_HMMActual","","","","","","2964.5999999046326","","","","Images/NewTrialBC.png","","3"
"image-button-response","165","322163","0.0-13.0-1.35","19","Low_HMMActual","","","","","","null","","","","Images/WhiteBeadChoice.png","","null"
"image-button-response","166","322668","0.0-13.0-2.35","19","Low_HMMActual","","","","","","null","","","","Images/WhiteBeadChoiceCorrect.png","","null"
"image-button-response","167","323193","0.0-13.0-0.36","19","Low_HMMActual","","","","","","521.5999999046326","","","","Images/NewTrialWC.png","","2"
"image-button-response","168","323499","0.0-13.0-1.36","19","Low_HMMActual","","","","","","null","","","","Images/WhiteBeadChoice.png","","null"
"image-button-response","169","324004","0.0-13.0-2.36","19","Low_HMMActual","","","","","","null","","","","Images/WhiteBeadChoiceWrong.png","","null"
"image-button-response","170","325134","0.0-13.0-0.37","19","Low_HMMActual","","","","","","1125.2999997138977","","","","Images/NewTrialBC.png","","3"
"image-button-response","171","325438","0.0-13.0-1.37","19","Low_HMMActual","","","","","","null","","","","Images/WhiteBeadChoice.png","","null"
"image-button-response","172","325945","0.0-13.0-2.37","19","Low_HMMActual","","","","","","null","","","","Images/WhiteBeadChoiceWrong.png","","null"
"image-button-response","173","327222","0.0-13.0-0.38","19","Low_HMMActual","","","","","","1273.6999998092651","","","","Images/NewTrialBC.png","","1"
"image-button-response","174","327527","0.0-13.0-1.38","19","Low_HMMActual","","","","","","null","","","","Images/BlackBeadChoice.png","","null"
"image-button-response","175","328029","0.0-13.0-2.38","19","Low_HMMActual","","","","","","null","","","","Images/BlackBeadChoiceCorrect.png","","null"
"image-button-response","176","328295","0.0-13.0-0.39","19","Low_HMMActual","","","","","","261.7000002861023","","","","Images/NewTrialBC.png","","0"
"image-button-response","177","328601","0.0-13.0-1.39","19","Low_HMMActual","","","","","","null","","","","Images/BlackBeadChoice.png","","null"
"image-button-response","178","329106","0.0-13.0-2.39","19","Low_HMMActual","","","","","","null","","","","Images/BlackBeadChoiceWrong.png","","null"
"image-button-response","179","332198","0.0-13.0-0.40","19","Low_HMMActual","","","","","","3089.5999999046326","","","","Images/NewTrialWC.png","","3"
"image-button-response","180","332502","0.0-13.0-1.40","19","Low_HMMActual","","","","","","null","","","","Images/WhiteBeadChoice.png","","null"
"image-button-response","181","333008","0.0-13.0-2.40","19","Low_HMMActual","","","","","","null","","","","Images/WhiteBeadChoiceCorrect.png","","null"
"image-button-response","182","334050","0.0-13.0-0.41","19","Low_HMMActual","","","","","","1027.6999998092651","","","","Images/NewTrialWC.png","","2"
"image-button-response","183","334354","0.0-13.0-1.41","19","Low_HMMActual","","","","","","null","","","","Images/WhiteBeadChoice.png","","null"
"image-button-response","184","334859","0.0-13.0-2.41","19","Low_HMMActual","","","","","","null","","","","Images/WhiteBeadChoiceCorrect.png","","null"
"image-button-response","185","337441","0.0-13.0-0.42","19","Low_HMMActual","","","","","","2579.0999999046326","","","","Images/NewTrialWC.png","","2"
"image-button-response","186","337744","0.0-13.0-1.42","19","Low_HMMActual","","","","","","null","","","","Images/WhiteBeadChoice.png","","null"
"image-button-response","187","338249","0.0-13.0-2.42","19","Low_HMMActual","","","","","","null","","","","Images/WhiteBeadChoiceWrong.png","","null"
"image-button-response","188","339369","0.0-13.0-0.43","19","Low_HMMActual","","","","","","1116.8000001907349","","","","Images/NewTrialBC.png","","1"
"image-button-response","189","339672","0.0-13.0-1.43","19","Low_HMMActual","","","","","","null","","","","Images/BlackBeadChoice.png","","null"
"image-button-response","190","340177","0.0-13.0-2.43","19","Low_HMMActual","","","","","","null","","","","Images/BlackBeadChoiceWrong.png","","null"
"image-button-response","191","341509","0.0-13.0-0.44","19","Low_HMMActual","","","","","","1328.7000002861023","","","","Images/NewTrialWC.png","","2"
"image-button-response","192","341814","0.0-13.0-1.44","19","Low_HMMActual","","","","","","null","","","","Images/WhiteBeadChoice.png","","null"
"image-button-response","193","342318","0.0-13.0-2.44","19","Low_HMMActual","","","","","","null","","","","Images/WhiteBeadChoiceWrong.png","","null"
"image-button-response","194","343535","0.0-13.0-0.45","19","Low_HMMActual","","","","","","1213.1999998092651","","","","Images/NewTrialBC.png","","0"
"image-button-response","195","343843","0.0-13.0-1.45","19","Low_HMMActual","","","","","","null","","","","Images/BlackBeadChoice.png","","null"
"image-button-response","196","344350","0.0-13.0-2.45","19","Low_HMMActual","","","","","","null","","","","Images/BlackBeadChoiceCorrect.png","","null"
"image-button-response","197","345217","0.0-13.0-0.46","19","Low_HMMActual","","","","","","863.4000000953674","","","","Images/NewTrialBC.png","","0"
"image-button-response","198","345523","0.0-13.0-1.46","19","Low_HMMActual","","","","","","null","","","","Images/BlackBeadChoice.png","","null"
"image-button-response","199","346028","0.0-13.0-2.46","19","Low_HMMActual","","","","","","null","","","","Images/BlackBeadChoiceWrong.png","","null"
"image-button-response","200","451312","0.0-13.0-0.47","19","Low_HMMActual","","","","","","105277.90000009537","","","","Images/NewTrialWC.png","","0"
"image-button-response","201","451618","0.0-13.0-1.47","19","Low_HMMActual","","","","","","null","","","","Images/BlackBeadChoice.png","","null"
"image-button-response","202","452135","0.0-13.0-2.47","19","Low_HMMActual","","","","","","null","","","","Images/BlackBeadChoiceWrong.png","","null"
"image-button-response","203","453934","0.0-13.0-0.48","19","Low_HMMActual","","","","","","1795.6000003814697","","","","Images/NewTrialWC.png","","2"
"image-button-response","204","454239","0.0-13.0-1.48","19","Low_HMMActual","","","","","","null","","","","Images/WhiteBeadChoice.png","","null"
"image-button-response","205","454744","0.0-13.0-2.48","19","Low_HMMActual","","","","","","null","","","","Images/WhiteBeadChoiceCorrect.png","","null"
"image-button-response","206","454944","0.0-13.0-0.49","19","Low_HMMActual","","","","","","196.7999997138977","","","","Images/NewTrialWC.png","","2"
"image-button-response","207","455249","0.0-13.0-1.49","19","Low_HMMActual","","","","","","null","","","","Images/WhiteBeadChoice.png","","null"
"image-button-response","208","455757","0.0-13.0-2.49","19","Low_HMMActual","","","","","","null","","","","Images/WhiteBeadChoiceCorrect.png","","null"
"image-button-response","209","461127","0.0-13.0-0.50","19","Low_HMMActual","","","","","","5366.900000095367","","","","Images/NewTrialWC.png","","2"
"image-button-response","210","461431","0.0-13.0-1.50","19","Low_HMMActual","","","","","","null","","","","Images/WhiteBeadChoice.png","","null"
"image-button-response","211","461945","0.0-13.0-2.50","19","Low_HMMActual","","","","","","null","","","","Images/WhiteBeadChoiceWrong.png","","null"
"image-button-response","212","462850","0.0-13.0-0.51","19","Low_HMMActual","","","","","","901.9000000953674","","","","Images/NewTrialBC.png","","1"
"image-button-response","213","463153","0.0-13.0-1.51","19","Low_HMMActual","","","","","","null","","","","Images/BlackBeadChoice.png","","null"
"image-button-response","214","463658","0.0-13.0-2.51","19","Low_HMMActual","","","","","","null","","","","Images/BlackBeadChoiceCorrect.png","","null"
"image-button-response","215","464031","0.0-13.0-0.52","19","Low_HMMActual","","","","","","370.30000019073486","","","","Images/NewTrialBC.png","","0"
"image-button-response","216","464338","0.0-13.0-1.52","19","Low_HMMActual","","","","","","null","","","","Images/BlackBeadChoice.png","","null"
"image-button-response","217","464842","0.0-13.0-2.52","19","Low_HMMActual","","","","","","null","","","","Images/BlackBeadChoiceCorrect.png","","null"
"image-button-response","218","471570","0.0-13.0-0.53","19","Low_HMMActual","","","","","","6723.799999713898","","","","Images/NewTrialBC.png","","0"
"image-button-response","219","471884","0.0-13.0-1.53","19","Low_HMMActual","","","","","","null","","","","Images/BlackBeadChoice.png","","null"
"image-button-response","220","472388","0.0-13.0-2.53","19","Low_HMMActual","","","","","","null","","","","Images/BlackBeadChoiceWrong.png","","null"
"image-button-response","221","473087","0.0-13.0-0.54","19","Low_HMMActual","","","","","","696.3000001907349","","","","Images/NewTrialWC.png","","3"
"image-button-response","222","473394","0.0-13.0-1.54","19","Low_HMMActual","","","","","","null","","","","Images/WhiteBeadChoice.png","","null"
"image-button-response","223","473898","0.0-13.0-2.54","19","Low_HMMActual","","","","","","null","","","","Images/WhiteBeadChoiceWrong.png","","null"
"image-button-response","224","474802","0.0-13.0-0.55","19","Low_HMMActual","","","","","","900.5","","","","Images/NewTrialBC.png","","1"
"image-button-response","225","475106","0.0-13.0-1.55","19","Low_HMMActual","","","","","","null","","","","Images/BlackBeadChoice.png","","null"
"image-button-response","226","475609","0.0-13.0-2.55","19","Low_HMMActual","","","","","","null","","","","Images/BlackBeadChoiceCorrect.png","","null"
"image-button-response","227","475921","0.0-13.0-0.56","19","Low_HMMActual","","","","","","309.6000003814697","","","","Images/NewTrialBC.png","","0"
"image-button-response","228","476231","0.0-13.0-1.56","19","Low_HMMActual","","","","","","null","","","","Images/BlackBeadChoice.png","","null"
"image-button-response","229","476737","0.0-13.0-2.56","19","Low_HMMActual","","","","","","null","","","","Images/BlackBeadChoiceCorrect.png","","null"
"image-button-response","230","477331","0.0-13.0-0.57","19","Low_HMMActual","","","","","","591","","","","Images/NewTrialBC.png","","0"
"image-button-response","231","477637","0.0-13.0-1.57","19","Low_HMMActual","","","","","","null","","","","Images/BlackBeadChoice.png","","null"
"image-button-response","232","478142","0.0-13.0-2.57","19","Low_HMMActual","","","","","","null","","","","Images/BlackBeadChoiceCorrect.png","","null"
"image-button-response","233","478301","0.0-13.0-0.58","19","Low_HMMActual","","","","","","156.40000009536743","","","","Images/NewTrialBC.png","","0"
"image-button-response","234","478606","0.0-13.0-1.58","19","Low_HMMActual","","","","","","null","","","","Images/BlackBeadChoice.png","","null"
"image-button-response","235","479111","0.0-13.0-2.58","19","Low_HMMActual","","","","","","null","","","","Images/BlackBeadChoiceCorrect.png","","null"
"image-button-response","236","479459","0.0-13.0-0.59","19","Low_HMMActual","","","","","","344.59999990463257","","","","Images/NewTrialBC.png","","0"
"image-button-response","237","479762","0.0-13.0-1.59","19","Low_HMMActual","","","","","","null","","","","Images/BlackBeadChoice.png","","null"
"image-button-response","238","480267","0.0-13.0-2.59","19","Low_HMMActual","","","","","","null","","","","Images/BlackBeadChoiceWrong.png","","null"
"image-button-response","239","482330","0.0-13.0-0.60","19","Low_HMMActual","","","","","","2049.300000190735","","","","Images/NewTrialWC.png","","3"
"image-button-response","240","482635","0.0-13.0-1.60","19","Low_HMMActual","","","","","","null","","","","Images/WhiteBeadChoice.png","","null"
"image-button-response","241","483139","0.0-13.0-2.60","19","Low_HMMActual","","","","","","null","","","","Images/WhiteBeadChoiceCorrect.png","","null"
"image-button-response","242","483537","0.0-13.0-0.61","19","Low_HMMActual","","","","","","394.30000019073486","","","","Images/NewTrialWC.png","","2"
"image-button-response","243","483843","0.0-13.0-1.61","19","Low_HMMActual","","","","","","null","","","","Images/WhiteBeadChoice.png","","null"
"image-button-response","244","484346","0.0-13.0-2.61","19","Low_HMMActual","","","","","","null","","","","Images/WhiteBeadChoiceCorrect.png","","null"
"image-button-response","245","484917","0.0-13.0-0.62","19","Low_HMMActual","","","","","","567.1999998092651","","","","Images/NewTrialWC.png","","2"
"image-button-response","246","485224","0.0-13.0-1.62","19","Low_HMMActual","","","","","","null","","","","Images/WhiteBeadChoice.png","","null"
"image-button-response","247","485741","0.0-13.0-2.62","19","Low_HMMActual","","","","","","null","","","","Images/WhiteBeadChoiceWrong.png","","null"
"image-button-response","248","486655","0.0-13.0-0.63","19","Low_HMMActual","","","","","","911.4000000953674","","","","Images/NewTrialBC.png","","1"
"image-button-response","249","486960","0.0-13.0-1.63","19","Low_HMMActual","","","","","","null","","","","Images/BlackBeadChoice.png","","null"
"image-button-response","250","487463","0.0-13.0-2.63","19","Low_HMMActual","","","","","","null","","","","Images/BlackBeadChoiceCorrect.png","","null"
"image-button-response","251","487725","0.0-13.0-0.64","19","Low_HMMActual","","","","","","258","","","","Images/NewTrialBC.png","","0"
"image-button-response","252","488028","0.0-13.0-1.64","19","Low_HMMActual","","","","","","null","","","","Images/BlackBeadChoice.png","","null"
"image-button-response","253","488533","0.0-13.0-2.64","19","Low_HMMActual","","","","","","null","","","","Images/BlackBeadChoiceWrong.png","","null"
"image-button-response","254","489248","0.0-13.0-0.65","19","Low_HMMActual","","","","","","711.9000000953674","","","","Images/NewTrialWC.png","","3"
"image-button-response","255","489555","0.0-13.0-1.65","19","Low_HMMActual","","","","","","null","","","","Images/WhiteBeadChoice.png","","null"
"image-button-response","256","490060","0.0-13.0-2.65","19","Low_HMMActual","","","","","","null","","","","Images/WhiteBeadChoiceWrong.png","","null"
"image-button-response","257","490619","0.0-13.0-0.66","19","Low_HMMActual","","","","","","555.6999998092651","","","","Images/NewTrialBC.png","","1"
"image-button-response","258","490925","0.0-13.0-1.66","19","Low_HMMActual","","","","","","null","","","","Images/BlackBeadChoice.png","","null"
"image-button-response","259","491427","0.0-13.0-2.66","19","Low_HMMActual","","","","","","null","","","","Images/BlackBeadChoiceCorrect.png","","null"
"image-button-response","260","491745","0.0-13.0-0.67","19","Low_HMMActual","","","","","","314","","","","Images/NewTrialBC.png","","0"
"image-button-response","261","492053","0.0-13.0-1.67","19","Low_HMMActual","","","","","","null","","","","Images/BlackBeadChoice.png","","null"
"image-button-response","262","492556","0.0-13.0-2.67","19","Low_HMMActual","","","","","","null","","","","Images/BlackBeadChoiceCorrect.png","","null"
"image-button-response","263","493164","0.0-13.0-0.68","19","Low_HMMActual","","","","","","604.8000001907349","","","","Images/NewTrialBC.png","","0"
"image-button-response","264","493484","0.0-13.0-1.68","19","Low_HMMActual","","","","","","null","","","","Images/BlackBeadChoice.png","","null"
"image-button-response","265","493990","0.0-13.0-2.68","19","Low_HMMActual","","","","","","null","","","","Images/BlackBeadChoiceWrong.png","","null"
"image-button-response","266","494504","0.0-13.0-0.69","19","Low_HMMActual","","","","","","511.5","","","","Images/NewTrialWC.png","","3"
"image-button-response","267","494809","0.0-13.0-1.69","19","Low_HMMActual","","","","","","null","","","","Images/WhiteBeadChoice.png","","null"
"image-button-response","268","495311","0.0-13.0-2.69","19","Low_HMMActual","","","","","","null","","","","Images/WhiteBeadChoiceWrong.png","","null"
"image-button-response","269","495864","0.0-13.0-0.70","19","Low_HMMActual","","","","","","548.2999997138977","","","","Images/NewTrialBC.png","","1"
"image-button-response","270","496167","0.0-13.0-1.70","19","Low_HMMActual","","","","","","null","","","","Images/BlackBeadChoice.png","","null"
"image-button-response","271","496671","0.0-13.0-2.70","19","Low_HMMActual","","","","","","null","","","","Images/BlackBeadChoiceWrong.png","","null"
"image-button-response","272","497081","0.0-13.0-0.71","19","Low_HMMActual","","","","","","394.30000019073486","","","","Images/NewTrialWC.png","","3"
"image-button-response","273","497386","0.0-13.0-1.71","19","Low_HMMActual","","","","","","null","","","","Images/WhiteBeadChoice.png","","null"
"image-button-response","274","497891","0.0-13.0-2.71","19","Low_HMMActual","","","","","","null","","","","Images/WhiteBeadChoiceWrong.png","","null"
"image-button-response","275","499526","0.0-13.0-0.72","19","Low_HMMActual","","","","","","1630","","","","Images/NewTrialBC.png","","1"
"image-button-response","276","499831","0.0-13.0-1.72","19","Low_HMMActual","","","","","","null","","","","Images/BlackBeadChoice.png","","null"
"image-button-response","277","500335","0.0-13.0-2.72","19","Low_HMMActual","","","","","","null","","","","Images/BlackBeadChoiceCorrect.png","","null"
"image-button-response","278","500668","0.0-13.0-0.73","19","Low_HMMActual","","","","","","329.80000019073486","","","","Images/NewTrialBC.png","","1"
"image-button-response","279","500974","0.0-13.0-1.73","19","Low_HMMActual","","","","","","null","","","","Images/BlackBeadChoice.png","","null"
"image-button-response","280","501479","0.0-13.0-2.73","19","Low_HMMActual","","","","","","null","","","","Images/BlackBeadChoiceCorrect.png","","null"
"image-button-response","281","501912","0.0-13.0-0.74","19","Low_HMMActual","","","","","","429","","","","Images/NewTrialBC.png","","1"
"image-button-response","282","502228","0.0-13.0-1.74","19","Low_HMMActual","","","","","","null","","","","Images/BlackBeadChoice.png","","null"
"image-button-response","283","502733","0.0-13.0-2.74","19","Low_HMMActual","","","","","","null","","","","Images/BlackBeadChoiceCorrect.png","","null"
"image-button-response","284","503257","0.0-13.0-0.75","19","Low_HMMActual","","","","","","521.6999998092651","","","","Images/NewTrialBC.png","","1"
"image-button-response","285","503562","0.0-13.0-1.75","19","Low_HMMActual","","","","","","null","","","","Images/BlackBeadChoice.png","","null"
"image-button-response","286","504070","0.0-13.0-2.75","19","Low_HMMActual","","","","","","null","","","","Images/BlackBeadChoiceCorrect.png","","null"
"image-button-response","287","504937","0.0-13.0-0.76","19","Low_HMMActual","","","","","","864.4000000953674","","","","Images/NewTrialBC.png","","1"
"image-button-response","288","505241","0.0-13.0-1.76","19","Low_HMMActual","","","","","","null","","","","Images/BlackBeadChoice.png","","null"
"image-button-response","289","505745","0.0-13.0-2.76","19","Low_HMMActual","","","","","","null","","","","Images/BlackBeadChoiceCorrect.png","","null"
"image-button-response","290","506380","0.0-13.0-0.77","19","Low_HMMActual","","","","","","631.6999998092651","","","","Images/NewTrialBC.png","","1"
"image-button-response","291","506686","0.0-13.0-1.77","19","Low_HMMActual","","","","","","null","","","","Images/BlackBeadChoice.png","","null"
"image-button-response","292","507188","0.0-13.0-2.77","19","Low_HMMActual","","","","","","null","","","","Images/BlackBeadChoiceWrong.png","","null"
"image-button-response","293","508452","0.0-13.0-0.78","19","Low_HMMActual","","","","","","1260.5","","","","Images/NewTrialWC.png","","3"
"image-button-response","294","508759","0.0-13.0-1.78","19","Low_HMMActual","","","","","","null","","","","Images/WhiteBeadChoice.png","","null"
"image-button-response","295","509263","0.0-13.0-2.78","19","Low_HMMActual","","","","","","null","","","","Images/WhiteBeadChoiceWrong.png","","null"
"image-button-response","296","510007","0.0-13.0-0.79","19","Low_HMMActual","","","","","","740.8000001907349","","","","Images/NewTrialBC.png","","1"
"image-button-response","297","510315","0.0-13.0-1.79","19","Low_HMMActual","","","","","","null","","","","Images/BlackBeadChoice.png","","null"
"image-button-response","298","510817","0.0-13.0-2.79","19","Low_HMMActual","","","","","","null","","","","Images/BlackBeadChoiceCorrect.png","","null"
"image-button-response","299","511145","0.0-13.0-0.80","19","Low_HMMActual","","","","","","324.40000009536743","","","","Images/NewTrialBC.png","","0"
"image-button-response","300","511452","0.0-13.0-1.80","19","Low_HMMActual","","","","","","null","","","","Images/BlackBeadChoice.png","","null"
"image-button-response","301","511956","0.0-13.0-2.80","19","Low_HMMActual","","","","","","null","","","","Images/BlackBeadChoiceWrong.png","","null"
"image-button-response","302","512600","0.0-13.0-0.81","19","Low_HMMActual","","","","","","641.3999996185303","","","","Images/NewTrialWC.png","","3"
"image-button-response","303","512903","0.0-13.0-1.81","19","Low_HMMActual","","","","","","null","","","","Images/WhiteBeadChoice.png","","null"
"image-button-response","304","513405","0.0-13.0-2.81","19","Low_HMMActual","","","","","","null","","","","Images/WhiteBeadChoiceCorrect.png","","null"
"image-button-response","305","514356","0.0-13.0-0.82","19","Low_HMMActual","","","","","","947.5999999046326","","","","Images/NewTrialWC.png","","3"
"image-button-response","306","514662","0.0-13.0-1.82","19","Low_HMMActual","","","","","","null","","","","Images/WhiteBeadChoice.png","","null"
"image-button-response","307","515167","0.0-13.0-2.82","19","Low_HMMActual","","","","","","null","","","","Images/WhiteBeadChoiceWrong.png","","null"
"image-button-response","308","515988","0.0-13.0-0.83","19","Low_HMMActual","","","","","","817.5","","","","Images/NewTrialBC.png","","0"
"image-button-response","309","516293","0.0-13.0-1.83","19","Low_HMMActual","","","","","","null","","","","Images/BlackBeadChoice.png","","null"
"image-button-response","310","516799","0.0-13.0-2.83","19","Low_HMMActual","","","","","","null","","","","Images/BlackBeadChoiceCorrect.png","","null"
"image-button-response","311","516997","0.0-13.0-0.84","19","Low_HMMActual","","","","","","195","","","","Images/NewTrialBC.png","","0"
"image-button-response","312","517304","0.0-13.0-1.84","19","Low_HMMActual","","","","","","null","","","","Images/BlackBeadChoice.png","","null"
"image-button-response","313","517808","0.0-13.0-2.84","19","Low_HMMActual","","","","","","null","","","","Images/BlackBeadChoiceCorrect.png","","null"
"image-button-response","314","518784","0.0-13.0-0.85","19","Low_HMMActual","","","","","","973.3000001907349","","","","Images/NewTrialBC.png","","0"
"image-button-response","315","519092","0.0-13.0-1.85","19","Low_HMMActual","","","","","","null","","","","Images/BlackBeadChoice.png","","null"
"image-button-response","316","519600","0.0-13.0-2.85","19","Low_HMMActual","","","","","","null","","","","Images/BlackBeadChoiceCorrect.png","","null"
"image-button-response","317","520375","0.0-13.0-0.86","19","Low_HMMActual","","","","","","771.7999997138977","","","","Images/NewTrialBC.png","","0"
"image-button-response","318","520682","0.0-13.0-1.86","19","Low_HMMActual","","","","","","null","","","","Images/BlackBeadChoice.png","","null"
"image-button-response","319","521187","0.0-13.0-2.86","19","Low_HMMActual","","","","","","null","","","","Images/BlackBeadChoiceWrong.png","","null"
"image-button-response","320","521818","0.0-13.0-0.87","19","Low_HMMActual","","","","","","628","","","","Images/NewTrialWC.png","","3"
"image-button-response","321","522123","0.0-13.0-1.87","19","Low_HMMActual","","","","","","null","","","","Images/WhiteBeadChoice.png","","null"
"image-button-response","322","522626","0.0-13.0-2.87","19","Low_HMMActual","","","","","","null","","","","Images/WhiteBeadChoiceCorrect.png","","null"
"image-button-response","323","522924","0.0-13.0-0.88","19","Low_HMMActual","","","","","","294.59999990463257","","","","Images/NewTrialWC.png","","2"
"image-button-response","324","523231","0.0-13.0-1.88","19","Low_HMMActual","","","","","","null","","","","Images/WhiteBeadChoice.png","","null"
"image-button-response","325","523736","0.0-13.0-2.88","19","Low_HMMActual","","","","","","null","","","","Images/WhiteBeadChoiceCorrect.png","","null"
"image-button-response","326","524219","0.0-13.0-0.89","19","Low_HMMActual","","","","","","480.2000002861023","","","","Images/NewTrialWC.png","","2"
"image-button-response","327","524526","0.0-13.0-1.89","19","Low_HMMActual","","","","","","null","","","","Images/WhiteBeadChoice.png","","null"
"image-button-response","328","525030","0.0-13.0-2.89","19","Low_HMMActual","","","","","","null","","","","Images/WhiteBeadChoiceWrong.png","","null"
"image-button-response","329","528025","0.0-13.0-0.90","19","Low_HMMActual","","","","","","2991.9000000953674","","","","Images/NewTrialBC.png","","1"
"image-button-response","330","528328","0.0-13.0-1.90","19","Low_HMMActual","","","","","","null","","","","Images/BlackBeadChoice.png","","null"
"image-button-response","331","528832","0.0-13.0-2.90","19","Low_HMMActual","","","","","","null","","","","Images/BlackBeadChoiceCorrect.png","","null"
"image-button-response","332","529058","0.0-13.0-0.91","19","Low_HMMActual","","","","","","222.80000019073486","","","","Images/NewTrialBC.png","","0"
"image-button-response","333","529366","0.0-13.0-1.91","19","Low_HMMActual","","","","","","null","","","","Images/BlackBeadChoice.png","","null"
"image-button-response","334","529872","0.0-13.0-2.91","19","Low_HMMActual","","","","","","null","","","","Images/BlackBeadChoiceCorrect.png","","null"
"image-button-response","335","530333","0.0-13.0-0.92","19","Low_HMMActual","","","","","","458.30000019073486","","","","Images/NewTrialBC.png","","0"
"image-button-response","336","530638","0.0-13.0-1.92","19","Low_HMMActual","","","","","","null","","","","Images/BlackBeadChoice.png","","null"
"image-button-response","337","531142","0.0-13.0-2.92","19","Low_HMMActual","","","","","","null","","","","Images/BlackBeadChoiceWrong.png","","null"
"image-button-response","338","531916","0.0-13.0-0.93","19","Low_HMMActual","","","","","","770.8000001907349","","","","Images/NewTrialWC.png","","3"
"image-button-response","339","532223","0.0-13.0-1.93","19","Low_HMMActual","","","","","","null","","","","Images/WhiteBeadChoice.png","","null"
"image-button-response","340","532728","0.0-13.0-2.93","19","Low_HMMActual","","","","","","null","","","","Images/WhiteBeadChoiceCorrect.png","","null"
"image-button-response","341","532926","0.0-13.0-0.94","19","Low_HMMActual","","","","","","195.39999961853027","","","","Images/NewTrialWC.png","","3"
"image-button-response","342","533233","0.0-13.0-1.94","19","Low_HMMActual","","","","","","null","","","","Images/WhiteBeadChoice.png","","null"
"image-button-response","343","533740","0.0-13.0-2.94","19","Low_HMMActual","","","","","","null","","","","Images/WhiteBeadChoiceWrong.png","","null"
"image-button-response","344","534641","0.0-13.0-0.95","19","Low_HMMActual","","","","","","898.1999998092651","","","","Images/NewTrialBC.png","","1"
"image-button-response","345","534947","0.0-13.0-1.95","19","Low_HMMActual","","","","","","null","","","","Images/BlackBeadChoice.png","","null"
"image-button-response","346","535451","0.0-13.0-2.95","19","Low_HMMActual","","","","","","null","","","","Images/BlackBeadChoiceCorrect.png","","null"
"image-button-response","347","535787","0.0-13.0-0.96","19","Low_HMMActual","","","","","","333.90000009536743","","","","Images/NewTrialBC.png","","1"
"image-button-response","348","536095","0.0-13.0-1.96","19","Low_HMMActual","","","","","","null","","","","Images/BlackBeadChoice.png","","null"
"image-button-response","349","536599","0.0-13.0-2.96","19","Low_HMMActual","","","","","","null","","","","Images/BlackBeadChoiceCorrect.png","","null"
"image-button-response","350","536913","0.0-13.0-0.97","19","Low_HMMActual","","","","","","310.5","","","","Images/NewTrialBC.png","","0"
"image-button-response","351","537221","0.0-13.0-1.97","19","Low_HMMActual","","","","","","null","","","","Images/BlackBeadChoice.png","","null"
"image-button-response","352","537728","0.0-13.0-2.97","19","Low_HMMActual","","","","","","null","","","","Images/BlackBeadChoiceCorrect.png","","null"
"image-button-response","353","537972","0.0-13.0-0.98","19","Low_HMMActual","","","","","","241.09999990463257","","","","Images/NewTrialBC.png","","0"
"image-button-response","354","538278","0.0-13.0-1.98","19","Low_HMMActual","","","","","","null","","","","Images/BlackBeadChoice.png","","null"
"image-button-response","355","538794","0.0-13.0-2.98","19","Low_HMMActual","","","","","","null","","","","Images/BlackBeadChoiceWrong.png","","null"
"image-button-response","356","539382","0.0-13.0-0.99","19","Low_HMMActual","","","","","","585.2999997138977","","","","Images/NewTrialWC.png","","3"
"image-button-response","357","539689","0.0-13.0-1.99","19","Low_HMMActual","","","","","","null","","","","Images/WhiteBeadChoice.png","","null"
"image-button-response","358","540193","0.0-13.0-2.99","19","Low_HMMActual","","","","","","null","","","","Images/WhiteBeadChoiceWrong.png","","null"
"image-button-response","359","541103","0.0-13.0-0.100","19","Low_HMMActual","","","","","","906.5999999046326","","","","Images/NewTrialBC.png","","1"
"image-button-response","360","541408","0.0-13.0-1.100","19","Low_HMMActual","","","","","","null","","","","Images/BlackBeadChoice.png","","null"
"image-button-response","361","541912","0.0-13.0-2.100","19","Low_HMMActual","","","","","","null","","","","Images/BlackBeadChoiceWrong.png","","null"
"image-button-response","362","544119","0.0-13.0-0.101","19","Low_HMMActual","","","","","","2204.5","","","","Images/NewTrialWC.png","","3"
"image-button-response","363","544426","0.0-13.0-1.101","19","Low_HMMActual","","","","","","null","","","","Images/WhiteBeadChoice.png","","null"
"image-button-response","364","544928","0.0-13.0-2.101","19","Low_HMMActual","","","","","","null","","","","Images/WhiteBeadChoiceCorrect.png","","null"
"image-button-response","365","545178","0.0-13.0-0.102","19","Low_HMMActual","","","","","","245.90000009536743","","","","Images/NewTrialWC.png","","2"
"image-button-response","366","545485","0.0-13.0-1.102","19","Low_HMMActual","","","","","","null","","","","Images/WhiteBeadChoice.png","","null"
"image-button-response","367","545988","0.0-13.0-2.102","19","Low_HMMActual","","","","","","null","","","","Images/WhiteBeadChoiceCorrect.png","","null"
"image-button-response","368","546565","0.0-13.0-0.103","19","Low_HMMActual","","","","","","573.2999997138977","","","","Images/NewTrialWC.png","","2"
"image-button-response","369","546870","0.0-13.0-1.103","19","Low_HMMActual","","","","","","null","","","","Images/WhiteBeadChoice.png","","null"
"image-button-response","370","547374","0.0-13.0-2.103","19","Low_HMMActual","","","","","","null","","","","Images/WhiteBeadChoiceWrong.png","","null"
"image-button-response","371","548724","0.0-13.0-0.104","19","Low_HMMActual","","","","","","1346.6999998092651","","","","Images/NewTrialBC.png","","1"
"image-button-response","372","549029","0.0-13.0-1.104","19","Low_HMMActual","","","","","","null","","","","Images/BlackBeadChoice.png","","null"
"image-button-response","373","549532","0.0-13.0-2.104","19","Low_HMMActual","","","","","","null","","","","Images/BlackBeadChoiceWrong.png","","null"
"image-button-response","374","550351","0.0-13.0-0.105","19","Low_HMMActual","","","","","","816","","","","Images/NewTrialWC.png","","3"
"image-button-response","375","550656","0.0-13.0-1.105","19","Low_HMMActual","","","","","","null","","","","Images/WhiteBeadChoice.png","","null"
"image-button-response","376","551159","0.0-13.0-2.105","19","Low_HMMActual","","","","","","null","","","","Images/WhiteBeadChoiceCorrect.png","","null"
"image-button-response","377","551400","0.0-13.0-0.106","19","Low_HMMActual","","","","","","235.69999980926514","","","","Images/NewTrialWC.png","","2"
"image-button-response","378","551705","0.0-13.0-1.106","19","Low_HMMActual","","","","","","null","","","","Images/WhiteBeadChoice.png","","null"
"image-button-response","379","552210","0.0-13.0-2.106","19","Low_HMMActual","","","","","","null","","","","Images/WhiteBeadChoiceCorrect.png","","null"
"image-button-response","380","552787","0.0-13.0-0.107","19","Low_HMMActual","","","","","","563","","","","Images/NewTrialWC.png","","2"
"image-button-response","381","553089","0.0-13.0-1.107","19","Low_HMMActual","","","","","","null","","","","Images/WhiteBeadChoice.png","","null"
"image-button-response","382","553591","0.0-13.0-2.107","19","Low_HMMActual","","","","","","null","","","","Images/WhiteBeadChoiceCorrect.png","","null"
"image-button-response","383","554251","0.0-13.0-0.108","19","Low_HMMActual","","","","","","656.0999999046326","","","","Images/NewTrialWC.png","","2"
"image-button-response","384","554556","0.0-13.0-1.108","19","Low_HMMActual","","","","","","null","","","","Images/WhiteBeadChoice.png","","null"
"image-button-response","385","555060","0.0-13.0-2.108","19","Low_HMMActual","","","","","","null","","","","Images/WhiteBeadChoiceCorrect.png","","null"
"image-button-response","386","555693","0.0-13.0-0.109","19","Low_HMMActual","","","","","","628.0999999046326","","","","Images/NewTrialWC.png","","2"
"image-button-response","387","555998","0.0-13.0-1.109","19","Low_HMMActual","","","","","","null","","","","Images/WhiteBeadChoice.png","","null"
"image-button-response","388","556503","0.0-13.0-2.109","19","Low_HMMActual","","","","","","null","","","","Images/WhiteBeadChoiceCorrect.png","","null"
"image-button-response","389","557284","0.0-13.0-0.110","19","Low_HMMActual","","","","","","777.9000000953674","","","","Images/NewTrialWC.png","","2"
"image-button-response","390","557591","0.0-13.0-1.110","19","Low_HMMActual","","","","","","null","","","","Images/WhiteBeadChoice.png","","null"
"image-button-response","391","558097","0.0-13.0-2.110","19","Low_HMMActual","","","","","","null","","","","Images/WhiteBeadChoiceWrong.png","","null"
"image-button-response","392","558903","0.0-13.0-0.111","19","Low_HMMActual","","","","","","803.7000002861023","","","","Images/NewTrialBC.png","","1"
"image-button-response","393","559206","0.0-13.0-1.111","19","Low_HMMActual","","","","","","null","","","","Images/BlackBeadChoice.png","","null"
"image-button-response","394","559710","0.0-13.0-2.111","19","Low_HMMActual","","","","","","null","","","","Images/BlackBeadChoiceCorrect.png","","null"
"image-button-response","395","560751","0.0-13.0-0.112","19","Low_HMMActual","","","","","","1034.6000003814697","","","","Images/NewTrialBC.png","","0"
"image-button-response","396","561057","0.0-13.0-1.112","19","Low_HMMActual","","","","","","null","","","","Images/BlackBeadChoice.png","","null"
"image-button-response","397","561562","0.0-13.0-2.112","19","Low_HMMActual","","","","","","null","","","","Images/BlackBeadChoiceWrong.png","","null"
"image-button-response","398","562522","0.0-13.0-0.113","19","Low_HMMActual","","","","","","956.8000001907349","","","","Images/NewTrialWC.png","","3"
"image-button-response","399","562828","0.0-13.0-1.113","19","Low_HMMActual","","","","","","null","","","","Images/WhiteBeadChoice.png","","null"
"image-button-response","400","563330","0.0-13.0-2.113","19","Low_HMMActual","","","","","","null","","","","Images/WhiteBeadChoiceCorrect.png","","null"
"image-button-response","401","563661","0.0-13.0-0.114","19","Low_HMMActual","","","","","","326.5","","","","Images/NewTrialWC.png","","2"
"image-button-response","402","563966","0.0-13.0-1.114","19","Low_HMMActual","","","","","","null","","","","Images/WhiteBeadChoice.png","","null"
"image-button-response","403","564471","0.0-13.0-2.114","19","Low_HMMActual","","","","","","null","","","","Images/WhiteBeadChoiceCorrect.png","","null"
"image-button-response","404","564987","0.0-13.0-0.115","19","Low_HMMActual","","","","","","512.8000001907349","","","","Images/NewTrialWC.png","","2"
"image-button-response","405","565294","0.0-13.0-1.115","19","Low_HMMActual","","","","","","null","","","","Images/WhiteBeadChoice.png","","null"
"image-button-response","406","565800","0.0-13.0-2.115","19","Low_HMMActual","","","","","","null","","","","Images/WhiteBeadChoiceCorrect.png","","null"
"image-button-response","407","566703","0.0-13.0-0.116","19","Low_HMMActual","","","","","","898.7999997138977","","","","Images/NewTrialWC.png","","2"
"image-button-response","408","567008","0.0-13.0-1.116","19","Low_HMMActual","","","","","","null","","","","Images/WhiteBeadChoice.png","","null"
"image-button-response","409","567512","0.0-13.0-2.116","19","Low_HMMActual","","","","","","null","","","","Images/WhiteBeadChoiceWrong.png","","null"
"image-button-response","410","568149","0.0-13.0-0.117","19","Low_HMMActual","","","","","","634.1999998092651","","","","Images/NewTrialBC.png","","1"
"image-button-response","411","568453","0.0-13.0-1.117","19","Low_HMMActual","","","","","","null","","","","Images/BlackBeadChoice.png","","null"
"image-button-response","412","568958","0.0-13.0-2.117","19","Low_HMMActual","","","","","","null","","","","Images/BlackBeadChoiceCorrect.png","","null"
"image-button-response","413","569816","0.0-13.0-0.118","19","Low_HMMActual","","","","","","854.5","","","","Images/NewTrialBC.png","","0"
"image-button-response","414","570121","0.0-13.0-1.118","19","Low_HMMActual","","","","","","null","","","","Images/BlackBeadChoice.png","","null"
"image-button-response","415","570624","0.0-13.0-2.118","19","Low_HMMActual","","","","","","null","","","","Images/BlackBeadChoiceCorrect.png","","null"
"image-button-response","416","571210","0.0-13.0-0.119","19","Low_HMMActual","","","","","","583.1999998092651","","","","Images/NewTrialBC.png","","0"
"image-button-response","417","571513","0.0-13.0-1.119","19","Low_HMMActual","","","","","","null","","","","Images/BlackBeadChoice.png","","null"
"image-button-response","418","572020","0.0-13.0-2.119","19","Low_HMMActual","","","","","","null","","","","Images/BlackBeadChoiceCorrect.png","","null"
"image-button-response","419","572424","0.0-13.0-0.120","19","Low_HMMActual","","","","","","401.19999980926514","","","","Images/NewTrialBC.png","","0"
"image-button-response","420","572732","0.0-13.0-1.120","19","Low_HMMActual","","","","","","null","","","","Images/BlackBeadChoice.png","","null"
"image-button-response","421","573236","0.0-13.0-2.120","19","Low_HMMActual","","","","","","null","","","","Images/BlackBeadChoiceWrong.png","","null"
"image-button-response","422","574252","0.0-13.0-0.121","19","Low_HMMActual","","","","","","1012.9000000953674","","","","Images/NewTrialWC.png","","3"
"image-button-response","423","574557","0.0-13.0-1.121","19","Low_HMMActual","","","","","","null","","","","Images/WhiteBeadChoice.png","","null"
"image-button-response","424","575065","0.0-13.0-2.121","19","Low_HMMActual","","","","","","null","","","","Images/WhiteBeadChoiceCorrect.png","","null"
"image-button-response","425","575959","0.0-13.0-0.122","19","Low_HMMActual","","","","","","890.3999996185303","","","","Images/NewTrialWC.png","","2"
"image-button-response","426","576266","0.0-13.0-1.122","19","Low_HMMActual","","","","","","null","","","","Images/WhiteBeadChoice.png","","null"
"image-button-response","427","576783","0.0-13.0-2.122","19","Low_HMMActual","","","","","","null","","","","Images/WhiteBeadChoiceCorrect.png","","null"
"image-button-response","428","577365","0.0-13.0-0.123","19","Low_HMMActual","","","","","","579.1999998092651","","","","Images/NewTrialWC.png","","2"
"image-button-response","429","577671","0.0-13.0-1.123","19","Low_HMMActual","","","","","","null","","","","Images/WhiteBeadChoice.png","","null"
"image-button-response","430","578177","0.0-13.0-2.123","19","Low_HMMActual","","","","","","null","","","","Images/WhiteBeadChoiceWrong.png","","null"
"image-button-response","431","578767","0.0-13.0-0.124","19","Low_HMMActual","","","","","","588.5","","","","Images/NewTrialBC.png","","1"
"image-button-response","432","579072","0.0-13.0-1.124","19","Low_HMMActual","","","","","","null","","","","Images/BlackBeadChoice.png","","null"
"image-button-response","433","579576","0.0-13.0-2.124","19","Low_HMMActual","","","","","","null","","","","Images/BlackBeadChoiceCorrect.png","","null"
"image-button-response","434","580423","0.0-13.0-0.125","19","Low_HMMActual","","","","","","844.5999999046326","","","","Images/NewTrialBC.png","","0"
"image-button-response","435","580729","0.0-13.0-1.125","19","Low_HMMActual","","","","","","null","","","","Images/BlackBeadChoice.png","","null"
"image-button-response","436","581248","0.0-13.0-2.125","19","Low_HMMActual","","","","","","null","","","","Images/BlackBeadChoiceWrong.png","","null"
"image-button-response","437","581865","0.0-13.0-0.126","19","Low_HMMActual","","","","","","614.4000000953674","","","","Images/NewTrialWC.png","","3"
"image-button-response","438","582171","0.0-13.0-1.126","19","Low_HMMActual","","","","","","null","","","","Images/WhiteBeadChoice.png","","null"
"image-button-response","439","582674","0.0-13.0-2.126","19","Low_HMMActual","","","","","","null","","","","Images/WhiteBeadChoiceWrong.png","","null"
"image-button-response","440","583581","0.0-13.0-0.127","19","Low_HMMActual","","","","","","903","","","","Images/NewTrialBC.png","","1"
"image-button-response","441","583891","0.0-13.0-1.127","19","Low_HMMActual","","","","","","null","","","","Images/BlackBeadChoice.png","","null"
"image-button-response","442","584393","0.0-13.0-2.127","19","Low_HMMActual","","","","","","null","","","","Images/BlackBeadChoiceCorrect.png","","null"
"image-button-response","443","584755","0.0-13.0-0.128","19","Low_HMMActual","","","","","","357.59999990463257","","","","Images/NewTrialBC.png","","0"
"image-button-response","444","585062","0.0-13.0-1.128","19","Low_HMMActual","","","","","","null","","","","Images/BlackBeadChoice.png","","null"
"image-button-response","445","585569","0.0-13.0-2.128","19","Low_HMMActual","","","","","","null","","","","Images/BlackBeadChoiceCorrect.png","","null"
"image-button-response","446","586230","0.0-13.0-0.129","19","Low_HMMActual","","","","","","657.1999998092651","","","","Images/NewTrialBC.png","","0"
"image-button-response","447","586536","0.0-13.0-1.129","19","Low_HMMActual","","","","","","null","","","","Images/BlackBeadChoice.png","","null"
"image-button-response","448","587047","0.0-13.0-2.129","19","Low_HMMActual","","","","","","null","","","","Images/BlackBeadChoiceCorrect.png","","null"
"image-button-response","449","587672","0.0-13.0-0.130","19","Low_HMMActual","","","","","","621.0999999046326","","","","Images/NewTrialBC.png","","0"
"image-button-response","450","587976","0.0-13.0-1.130","19","Low_HMMActual","","","","","","null","","","","Images/BlackBeadChoice.png","","null"
"image-button-response","451","588481","0.0-13.0-2.130","19","Low_HMMActual","","","","","","null","","","","Images/BlackBeadChoiceCorrect.png","","null"
"image-button-response","452","589656","0.0-13.0-0.131","19","Low_HMMActual","","","","","","1171.7999997138977","","","","Images/NewTrialBC.png","","0"
"image-button-response","453","589962","0.0-13.0-1.131","19","Low_HMMActual","","","","","","null","","","","Images/BlackBeadChoice.png","","null"
"image-button-response","454","590472","0.0-13.0-2.131","19","Low_HMMActual","","","","","","null","","","","Images/BlackBeadChoiceCorrect.png","","null"
"image-button-response","455","591612","0.0-13.0-0.132","19","Low_HMMActual","","","","","","1136.7999997138977","","","","Images/NewTrialBC.png","","0"
"image-button-response","456","591918","0.0-13.0-1.132","19","Low_HMMActual","","","","","","null","","","","Images/BlackBeadChoice.png","","null"
"image-button-response","457","592422","0.0-13.0-2.132","19","Low_HMMActual","","","","","","null","","","","Images/BlackBeadChoiceCorrect.png","","null"
"image-button-response","458","593404","0.0-13.0-0.133","19","Low_HMMActual","","","","","","978.2999997138977","","","","Images/NewTrialBC.png","","0"
"image-button-response","459","593711","0.0-13.0-1.133","19","Low_HMMActual","","","","","","null","","","","Images/BlackBeadChoice.png","","null"
"image-button-response","460","594216","0.0-13.0-2.133","19","Low_HMMActual","","","","","","null","","","","Images/BlackBeadChoiceCorrect.png","","null"
"image-button-response","461","594918","0.0-13.0-0.134","19","Low_HMMActual","","","","","","699.0999999046326","","","","Images/NewTrialBC.png","","0"
"image-button-response","462","595227","0.0-13.0-1.134","19","Low_HMMActual","","","","","","null","","","","Images/BlackBeadChoice.png","","null"
"image-button-response","463","595731","0.0-13.0-2.134","19","Low_HMMActual","","","","","","null","","","","Images/BlackBeadChoiceCorrect.png","","null"
"image-button-response","464","596289","0.0-13.0-0.135","19","Low_HMMActual","","","","","","554.6999998092651","","","","Images/NewTrialBC.png","","0"
"image-button-response","465","596592","0.0-13.0-1.135","19","Low_HMMActual","","","","","","null","","","","Images/BlackBeadChoice.png","","null"
"image-button-response","466","597096","0.0-13.0-2.135","19","Low_HMMActual","","","","","","null","","","","Images/BlackBeadChoiceWrong.png","","null"
"image-button-response","467","597993","0.0-13.0-0.136","19","Low_HMMActual","","","","","","894.6999998092651","","","","Images/NewTrialWC.png","","3"
"image-button-response","468","598298","0.0-13.0-1.136","19","Low_HMMActual","","","","","","null","","","","Images/WhiteBeadChoice.png","","null"
"image-button-response","469","598805","0.0-13.0-2.136","19","Low_HMMActual","","","","","","null","","","","Images/WhiteBeadChoiceCorrect.png","","null"
"image-button-response","470","599507","0.0-13.0-0.137","19","Low_HMMActual","","","","","","699.0999999046326","","","","Images/NewTrialWC.png","","2"
"image-button-response","471","599813","0.0-13.0-1.137","19","Low_HMMActual","","","","","","null","","","","Images/WhiteBeadChoice.png","","null"
"image-button-response","472","600317","0.0-13.0-2.137","19","Low_HMMActual","","","","","","null","","","","Images/WhiteBeadChoiceCorrect.png","","null"
"image-button-response","473","600842","0.0-13.0-0.138","19","Low_HMMActual","","","","","","519.4000000953674","","","","Images/NewTrialWC.png","","2"
"image-button-response","474","601148","0.0-13.0-1.138","19","Low_HMMActual","","","","","","null","","","","Images/WhiteBeadChoice.png","","null"
"image-button-response","475","601653","0.0-13.0-2.138","19","Low_HMMActual","","","","","","null","","","","Images/WhiteBeadChoiceCorrect.png","","null"
"image-button-response","476","602196","0.0-13.0-0.139","19","Low_HMMActual","","","","","","540.5","","","","Images/NewTrialWC.png","","2"
"image-button-response","477","602512","0.0-13.0-1.139","19","Low_HMMActual","","","","","","null","","","","Images/WhiteBeadChoice.png","","null"
"image-button-response","478","603016","0.0-13.0-2.139","19","Low_HMMActual","","","","","","null","","","","Images/WhiteBeadChoiceCorrect.png","","null"
"image-button-response","479","603479","0.0-13.0-0.140","19","Low_HMMActual","","","","","","459.80000019073486","","","","Images/NewTrialWC.png","","2"
"image-button-response","480","603786","0.0-13.0-1.140","19","Low_HMMActual","","","","","","null","","","","Images/WhiteBeadChoice.png","","null"
"image-button-response","481","604294","0.0-13.0-2.140","19","Low_HMMActual","","","","","","null","","","","Images/WhiteBeadChoiceCorrect.png","","null"
"image-button-response","482","604718","0.0-13.0-0.141","19","Low_HMMActual","","","","","","420.5","","","","Images/NewTrialWC.png","","2"
"image-button-response","483","605028","0.0-13.0-1.141","19","Low_HMMActual","","","","","","null","","","","Images/WhiteBeadChoice.png","","null"
"image-button-response","484","605535","0.0-13.0-2.141","19","Low_HMMActual","","","","","","null","","","","Images/WhiteBeadChoiceCorrect.png","","null"
"image-button-response","485","606265","0.0-13.0-0.142","19","Low_HMMActual","","","","","","717.3999996185303","","","","Images/NewTrialWC.png","","2"
"image-button-response","486","606570","0.0-13.0-1.142","19","Low_HMMActual","","","","","","null","","","","Images/WhiteBeadChoice.png","","null"
"image-button-response","487","607075","0.0-13.0-2.142","19","Low_HMMActual","","","","","","null","","","","Images/WhiteBeadChoiceWrong.png","","null"
"image-button-response","488","607860","0.0-13.0-0.143","19","Low_HMMActual","","","","","","782.1999998092651","","","","Images/NewTrialBC.png","","1"
"image-button-response","489","608166","0.0-13.0-1.143","19","Low_HMMActual","","","","","","null","","","","Images/BlackBeadChoice.png","","null"
"image-button-response","490","608675","0.0-13.0-2.143","19","Low_HMMActual","","","","","","null","","","","Images/BlackBeadChoiceWrong.png","","null"
"image-button-response","491","609491","0.0-13.0-0.144","19","Low_HMMActual","","","","","","812.8000001907349","","","","Images/NewTrialWC.png","","3"
"image-button-response","492","609798","0.0-13.0-1.144","19","Low_HMMActual","","","","","","null","","","","Images/WhiteBeadChoice.png","","null"
"image-button-response","493","610302","0.0-13.0-2.144","19","Low_HMMActual","","","","","","null","","","","Images/WhiteBeadChoiceCorrect.png","","null"
"image-button-response","494","611070","0.0-13.0-0.145","19","Low_HMMActual","","","","","","765","","","","Images/NewTrialWC.png","","2"
"image-button-response","495","611376","0.0-13.0-1.145","19","Low_HMMActual","","","","","","null","","","","Images/WhiteBeadChoice.png","","null"
"image-button-response","496","611881","0.0-13.0-2.145","19","Low_HMMActual","","","","","","null","","","","Images/WhiteBeadChoiceCorrect.png","","null"
"image-button-response","497","612145","0.0-13.0-0.146","19","Low_HMMActual","","","","","","260.19999980926514","","","","Images/NewTrialWC.png","","2"
"image-button-response","498","612450","0.0-13.0-1.146","19","Low_HMMActual","","","","","","null","","","","Images/WhiteBeadChoice.png","","null"
"image-button-response","499","612955","0.0-13.0-2.146","19","Low_HMMActual","","","","","","null","","","","Images/WhiteBeadChoiceWrong.png","","null"
"image-button-response","500","613535","0.0-13.0-0.147","19","Low_HMMActual","","","","","","577.8000001907349","","","","Images/NewTrialBC.png","","1"
"image-button-response","501","613838","0.0-13.0-1.147","19","Low_HMMActual","","","","","","null","","","","Images/BlackBeadChoice.png","","null"
"image-button-response","502","614342","0.0-13.0-2.147","19","Low_HMMActual","","","","","","null","","","","Images/BlackBeadChoiceWrong.png","","null"
"image-button-response","503","615026","0.0-13.0-0.148","19","Low_HMMActual","","","","","","680.7999997138977","","","","Images/NewTrialWC.png","","3"
"image-button-response","504","615330","0.0-13.0-1.148","19","Low_HMMActual","","","","","","null","","","","Images/WhiteBeadChoice.png","","null"
"image-button-response","505","615835","0.0-13.0-2.148","19","Low_HMMActual","","","","","","null","","","","Images/WhiteBeadChoiceCorrect.png","","null"
"image-button-response","506","616061","0.0-13.0-0.149","19","Low_HMMActual","","","","","","222.69999980926514","","","","Images/NewTrialWC.png","","3"
"image-button-response","507","616368","0.0-13.0-1.149","19","Low_HMMActual","","","","","","null","","","","Images/WhiteBeadChoice.png","","null"
"image-button-response","508","616873","0.0-13.0-2.149","19","Low_HMMActual","","","","","","null","","","","Images/WhiteBeadChoiceWrong.png","","null"
"image-button-response","509","617868","0.0-13.0-0.150","19","Low_HMMActual","","","","","","991.2000002861023","","","","Images/NewTrialBC.png","","0"
"image-button-response","510","618174","0.0-13.0-1.150","19","Low_HMMActual","","","","","","null","","","","Images/BlackBeadChoice.png","","null"
"image-button-response","511","618679","0.0-13.0-2.150","19","Low_HMMActual","","","","","","null","","","","Images/BlackBeadChoiceWrong.png","","null"
"image-button-response","512","619415","0.0-13.0-0.151","19","Low_HMMActual","","","","","","722.3999996185303","","","","Images/NewTrialWC.png","","3"
"image-button-response","513","619719","0.0-13.0-1.151","19","Low_HMMActual","","","","","","null","","","","Images/WhiteBeadChoice.png","","null"
"image-button-response","514","620221","0.0-13.0-2.151","19","Low_HMMActual","","","","","","null","","","","Images/WhiteBeadChoiceCorrect.png","","null"
"image-button-response","515","622706","0.0-13.0-0.152","19","Low_HMMActual","","","","","","2481.1000003814697","","","","Images/NewTrialWC.png","","2"
"image-button-response","516","623010","0.0-13.0-1.152","19","Low_HMMActual","","","","","","null","","","","Images/WhiteBeadChoice.png","","null"
"image-button-response","517","623515","0.0-13.0-2.152","19","Low_HMMActual","","","","","","null","","","","Images/WhiteBeadChoiceCorrect.png","","null"
"image-button-response","518","623877","0.0-13.0-0.153","19","Low_HMMActual","","","","","","356.90000009536743","","","","Images/NewTrialWC.png","","2"
"image-button-response","519","624183","0.0-13.0-1.153","19","Low_HMMActual","","","","","","null","","","","Images/WhiteBeadChoice.png","","null"
"image-button-response","520","624687","0.0-13.0-2.153","19","Low_HMMActual","","","","","","null","","","","Images/WhiteBeadChoiceCorrect.png","","null"
"image-button-response","521","625235","0.0-13.0-0.154","19","Low_HMMActual","","","","","","544.2000002861023","","","","Images/NewTrialWC.png","","2"
"image-button-response","522","625541","0.0-13.0-1.154","19","Low_HMMActual","","","","","","null","","","","Images/WhiteBeadChoice.png","","null"
"image-button-response","523","626049","0.0-13.0-2.154","19","Low_HMMActual","","","","","","null","","","","Images/WhiteBeadChoiceCorrect.png","","null"
"image-button-response","524","626470","0.0-13.0-0.155","19","Low_HMMActual","","","","","","415.40000009536743","","","","Images/NewTrialWC.png","","2"
"image-button-response","525","626773","0.0-13.0-1.155","19","Low_HMMActual","","","","","","null","","","","Images/WhiteBeadChoice.png","","null"
"image-button-response","526","627277","0.0-13.0-2.155","19","Low_HMMActual","","","","","","null","","","","Images/WhiteBeadChoiceWrong.png","","null"
"image-button-response","527","628322","0.0-13.0-0.156","19","Low_HMMActual","","","","","","1042.8000001907349","","","","Images/NewTrialBC.png","","1"
"image-button-response","528","628629","0.0-13.0-1.156","19","Low_HMMActual","","","","","","null","","","","Images/BlackBeadChoice.png","","null"
"image-button-response","529","629136","0.0-13.0-2.156","19","Low_HMMActual","","","","","","null","","","","Images/BlackBeadChoiceCorrect.png","","null"
"image-button-response","530","629752","0.0-13.0-0.157","19","Low_HMMActual","","","","","","612.5","","","","Images/NewTrialBC.png","","0"
"image-button-response","531","630057","0.0-13.0-1.157","19","Low_HMMActual","","","","","","null","","","","Images/BlackBeadChoice.png","","null"
"image-button-response","532","630562","0.0-13.0-2.157","19","Low_HMMActual","","","","","","null","","","","Images/BlackBeadChoiceCorrect.png","","null"
"image-button-response","533","631010","0.0-13.0-0.158","19","Low_HMMActual","","","","","","442.7999997138977","","","","Images/NewTrialBC.png","","0"
"image-button-response","534","631317","0.0-13.0-1.158","19","Low_HMMActual","","","","","","null","","","","Images/BlackBeadChoice.png","","null"
"image-button-response","535","631822","0.0-13.0-2.158","19","Low_HMMActual","","","","","","null","","","","Images/BlackBeadChoiceCorrect.png","","null"
"image-button-response","536","632816","0.0-13.0-0.159","19","Low_HMMActual","","","","","","991.2000002861023","","","","Images/NewTrialBC.png","","0"
"image-button-response","537","633123","0.0-13.0-1.159","19","Low_HMMActual","","","","","","null","","","","Images/BlackBeadChoice.png","","null"
"image-button-response","538","633627","0.0-13.0-2.159","19","Low_HMMActual","","","","","","null","","","","Images/BlackBeadChoiceCorrect.png","","null"
"image-button-response","539","633933","0.0-13.0-0.160","19","Low_HMMActual","","","","","","301.3999996185303","","","","Images/NewTrialBC.png","","0"
"image-button-response","540","634238","0.0-13.0-1.160","19","Low_HMMActual","","","","","","null","","","","Images/BlackBeadChoice.png","","null"
"image-button-response","541","634744","0.0-13.0-2.160","19","Low_HMMActual","","","","","","null","","","","Images/BlackBeadChoiceCorrect.png","","null"
"image-button-response","542","635183","0.0-13.0-0.161","19","Low_HMMActual","","","","","","433.90000009536743","","","","Images/NewTrialBC.png","","0"
"image-button-response","543","635488","0.0-13.0-1.161","19","Low_HMMActual","","","","","","null","","","","Images/BlackBeadChoice.png","","null"
"image-button-response","544","635990","0.0-13.0-2.161","19","Low_HMMActual","","","","","","null","","","","Images/BlackBeadChoiceWrong.png","","null"
"image-button-response","545","645021","0.0-13.0-0.162","19","Low_HMMActual","","","","","","9028.39999961853","","","","Images/NewTrialWC.png","","3"
"image-button-response","546","645325","0.0-13.0-1.162","19","Low_HMMActual","","","","","","null","","","","Images/WhiteBeadChoice.png","","null"
"image-button-response","547","645830","0.0-13.0-2.162","19","Low_HMMActual","","","","","","null","","","","Images/WhiteBeadChoiceCorrect.png","","null"
"image-button-response","548","646215","0.0-13.0-0.163","19","Low_HMMActual","","","","","","381.90000009536743","","","","Images/NewTrialWC.png","","2"
"image-button-response","549","646521","0.0-13.0-1.163","19","Low_HMMActual","","","","","","null","","","","Images/WhiteBeadChoice.png","","null"
"image-button-response","550","647026","0.0-13.0-2.163","19","Low_HMMActual","","","","","","null","","","","Images/WhiteBeadChoiceCorrect.png","","null"
"image-button-response","551","650610","0.0-13.0-0.164","19","Low_HMMActual","","","","","","3578.300000190735","","","","Images/NewTrialWC.png","","2"
"image-button-response","552","650916","0.0-13.0-1.164","19","Low_HMMActual","","","","","","null","","","","Images/WhiteBeadChoice.png","","null"
"image-button-response","553","651420","0.0-13.0-2.164","19","Low_HMMActual","","","","","","null","","","","Images/WhiteBeadChoiceCorrect.png","","null"
"image-button-response","554","651869","0.0-13.0-0.165","19","Low_HMMActual","","","","","","446","","","","Images/NewTrialWC.png","","2"
"image-button-response","555","652175","0.0-13.0-1.165","19","Low_HMMActual","","","","","","null","","","","Images/WhiteBeadChoice.png","","null"
"image-button-response","556","652680","0.0-13.0-2.165","19","Low_HMMActual","","","","","","null","","","","Images/WhiteBeadChoiceCorrect.png","","null"
"image-button-response","557","653202","0.0-13.0-0.166","19","Low_HMMActual","","","","","","508.2999997138977","","","","Images/NewTrialWC.png","","2"
"image-button-response","558","653510","0.0-13.0-1.166","19","Low_HMMActual","","","","","","null","","","","Images/WhiteBeadChoice.png","","null"
"image-button-response","559","654015","0.0-13.0-2.166","19","Low_HMMActual","","","","","","null","","","","Images/WhiteBeadChoiceCorrect.png","","null"
"image-button-response","560","654543","0.0-13.0-0.167","19","Low_HMMActual","","","","","","524.8000001907349","","","","Images/NewTrialWC.png","","2"
"image-button-response","561","654851","0.0-13.0-1.167","19","Low_HMMActual","","","","","","null","","","","Images/WhiteBeadChoice.png","","null"
"image-button-response","562","655357","0.0-13.0-2.167","19","Low_HMMActual","","","","","","null","","","","Images/WhiteBeadChoiceCorrect.png","","null"
"image-button-response","563","656063","0.0-13.0-0.168","19","Low_HMMActual","","","","","","703.7999997138977","","","","Images/NewTrialWC.png","","2"
"image-button-response","564","656370","0.0-13.0-1.168","19","Low_HMMActual","","","","","","null","","","","Images/WhiteBeadChoice.png","","null"
"image-button-response","565","656877","0.0-13.0-2.168","19","Low_HMMActual","","","","","","null","","","","Images/WhiteBeadChoiceWrong.png","","null"
"image-button-response","566","657646","0.0-13.0-0.169","19","Low_HMMActual","","","","","","766.3000001907349","","","","Images/NewTrialBC.png","","1"
"image-button-response","567","657951","0.0-13.0-1.169","19","Low_HMMActual","","","","","","null","","","","Images/BlackBeadChoice.png","","null"
"image-button-response","568","658456","0.0-13.0-2.169","19","Low_HMMActual","","","","","","null","","","","Images/BlackBeadChoiceWrong.png","","null"
"image-button-response","569","659250","0.0-13.0-0.170","19","Low_HMMActual","","","","","","788.2000002861023","","","","Images/NewTrialWC.png","","3"
"image-button-response","570","659553","0.0-13.0-1.170","19","Low_HMMActual","","","","","","null","","","","Images/WhiteBeadChoice.png","","null"
"image-button-response","571","660055","0.0-13.0-2.170","19","Low_HMMActual","","","","","","null","","","","Images/WhiteBeadChoiceCorrect.png","","null"
"image-button-response","572","660331","0.0-13.0-0.171","19","Low_HMMActual","","","","","","273.2999997138977","","","","Images/NewTrialWC.png","","2"
"image-button-response","573","660639","0.0-13.0-1.171","19","Low_HMMActual","","","","","","null","","","","Images/WhiteBeadChoice.png","","null"
"image-button-response","574","661144","0.0-13.0-2.171","19","Low_HMMActual","","","","","","null","","","","Images/WhiteBeadChoiceCorrect.png","","null"
"image-button-response","575","661707","0.0-13.0-0.172","19","Low_HMMActual","","","","","","548.9000000953674","","","","Images/NewTrialWC.png","","2"
"image-button-response","576","662014","0.0-13.0-1.172","19","Low_HMMActual","","","","","","null","","","","Images/WhiteBeadChoice.png","","null"
"image-button-response","577","662519","0.0-13.0-2.172","19","Low_HMMActual","","","","","","null","","","","Images/WhiteBeadChoiceCorrect.png","","null"
"image-button-response","578","662877","0.0-13.0-0.173","19","Low_HMMActual","","","","","","354.2999997138977","","","","Images/NewTrialWC.png","","2"
"image-button-response","579","663182","0.0-13.0-1.173","19","Low_HMMActual","","","","","","null","","","","Images/WhiteBeadChoice.png","","null"
"image-button-response","580","663687","0.0-13.0-2.173","19","Low_HMMActual","","","","","","null","","","","Images/WhiteBeadChoiceCorrect.png","","null"
"image-button-response","581","664224","0.0-13.0-0.174","19","Low_HMMActual","","","","","","533.5999999046326","","","","Images/NewTrialWC.png","","2"
"image-button-response","582","664529","0.0-13.0-1.174","19","Low_HMMActual","","","","","","null","","","","Images/WhiteBeadChoice.png","","null"
"image-button-response","583","665045","0.0-13.0-2.174","19","Low_HMMActual","","","","","","null","","","","Images/WhiteBeadChoiceCorrect.png","","null"
"image-button-response","584","665511","0.0-13.0-0.175","19","Low_HMMActual","","","","","","461.90000009536743","","","","Images/NewTrialWC.png","","2"
"image-button-response","585","665817","0.0-13.0-1.175","19","Low_HMMActual","","","","","","null","","","","Images/WhiteBeadChoice.png","","null"
"image-button-response","586","666322","0.0-13.0-2.175","19","Low_HMMActual","","","","","","null","","","","Images/WhiteBeadChoiceWrong.png","","null"
"image-button-response","587","667676","0.0-13.0-0.176","19","Low_HMMActual","","","","","","1350.6999998092651","","","","Images/NewTrialBC.png","","1"
"image-button-response","588","667983","0.0-13.0-1.176","19","Low_HMMActual","","","","","","null","","","","Images/BlackBeadChoice.png","","null"
"image-button-response","589","668488","0.0-13.0-2.176","19","Low_HMMActual","","","","","","null","","","","Images/BlackBeadChoiceCorrect.png","","null"
"image-button-response","590","669025","0.0-13.0-0.177","19","Low_HMMActual","","","","","","534.5","","","","Images/NewTrialBC.png","","0"
"image-button-response","591","669341","0.0-13.0-1.177","19","Low_HMMActual","","","","","","null","","","","Images/BlackBeadChoice.png","","null"
"image-button-response","592","669846","0.0-13.0-2.177","19","Low_HMMActual","","","","","","null","","","","Images/BlackBeadChoiceCorrect.png","","null"
"image-button-response","593","670084","0.0-13.0-0.178","19","Low_HMMActual","","","","","","234.80000019073486","","","","Images/NewTrialBC.png","","0"
"image-button-response","594","670392","0.0-13.0-1.178","19","Low_HMMActual","","","","","","null","","","","Images/BlackBeadChoice.png","","null"
"image-button-response","595","670898","0.0-13.0-2.178","19","Low_HMMActual","","","","","","null","","","","Images/BlackBeadChoiceWrong.png","","null"
"image-button-response","596","671599","0.0-13.0-0.179","19","Low_HMMActual","","","","","","694","","","","Images/NewTrialWC.png","","3"
"image-button-response","597","671902","0.0-13.0-1.179","19","Low_HMMActual","","","","","","null","","","","Images/WhiteBeadChoice.png","","null"
"image-button-response","598","672404","0.0-13.0-2.179","19","Low_HMMActual","","","","","","null","","","","Images/WhiteBeadChoiceWrong.png","","null"
"image-button-response","599","672925","0.0-13.0-0.180","19","Low_HMMActual","","","","","","517.0999999046326","","","","Images/NewTrialBC.png","","1"
"image-button-response","600","673231","0.0-13.0-1.180","19","Low_HMMActual","","","","","","null","","","","Images/BlackBeadChoice.png","","null"
"image-button-response","601","673734","0.0-13.0-2.180","19","Low_HMMActual","","","","","","null","","","","Images/BlackBeadChoiceCorrect.png","","null"
"image-button-response","602","674440","0.0-13.0-0.181","19","Low_HMMActual","","","","","","702.5999999046326","","","","Images/NewTrialBC.png","","0"
"image-button-response","603","674751","0.0-13.0-1.181","19","Low_HMMActual","","","","","","null","","","","Images/BlackBeadChoice.png","","null"
"image-button-response","604","675254","0.0-13.0-2.181","19","Low_HMMActual","","","","","","null","","","","Images/BlackBeadChoiceCorrect.png","","null"
"image-button-response","605","675803","0.0-13.0-0.182","19","Low_HMMActual","","","","","","545.3000001907349","","","","Images/NewTrialBC.png","","0"
"image-button-response","606","676110","0.0-13.0-1.182","19","Low_HMMActual","","","","","","null","","","","Images/BlackBeadChoice.png","","null"
"image-button-response","607","676614","0.0-13.0-2.182","19","Low_HMMActual","","","","","","null","","","","Images/BlackBeadChoiceCorrect.png","","null"
"image-button-response","608","677058","0.0-13.0-0.183","19","Low_HMMActual","","","","","","440.80000019073486","","","","Images/NewTrialBC.png","","0"
"image-button-response","609","677364","0.0-13.0-1.183","19","Low_HMMActual","","","","","","null","","","","Images/BlackBeadChoice.png","","null"
"image-button-response","610","677869","0.0-13.0-2.183","19","Low_HMMActual","","","","","","null","","","","Images/BlackBeadChoiceCorrect.png","","null"
"image-button-response","611","678333","0.0-13.0-0.184","19","Low_HMMActual","","","","","","460.7000002861023","","","","Images/NewTrialBC.png","","0"
"image-button-response","612","678635","0.0-13.0-1.184","19","Low_HMMActual","","","","","","null","","","","Images/BlackBeadChoice.png","","null"
"image-button-response","613","679139","0.0-13.0-2.184","19","Low_HMMActual","","","","","","null","","","","Images/BlackBeadChoiceCorrect.png","","null"
"image-button-response","614","679503","0.0-13.0-0.185","19","Low_HMMActual","","","","","","360.40000009536743","","","","Images/NewTrialBC.png","","0"
"image-button-response","615","679807","0.0-13.0-1.185","19","Low_HMMActual","","","","","","null","","","","Images/BlackBeadChoice.png","","null"
"image-button-response","616","680313","0.0-13.0-2.185","19","Low_HMMActual","","","","","","null","","","","Images/BlackBeadChoiceCorrect.png","","null"
"image-button-response","617","680757","0.0-13.0-0.186","19","Low_HMMActual","","","","","","441.7000002861023","","","","Images/NewTrialBC.png","","0"
"image-button-response","618","681064","0.0-13.0-1.186","19","Low_HMMActual","","","","","","null","","","","Images/BlackBeadChoice.png","","null"
"image-button-response","619","681572","0.0-13.0-2.186","19","Low_HMMActual","","","","","","null","","","","Images/BlackBeadChoiceCorrect.png","","null"
"image-button-response","620","681976","0.0-13.0-0.187","19","Low_HMMActual","","","","","","400.6000003814697","","","","Images/NewTrialBC.png","","0"
"image-button-response","621","682281","0.0-13.0-1.187","19","Low_HMMActual","","","","","","null","","","","Images/BlackBeadChoice.png","","null"
"image-button-response","622","682785","0.0-13.0-2.187","19","Low_HMMActual","","","","","","null","","","","Images/BlackBeadChoiceWrong.png","","null"
"image-button-response","623","683692","0.0-13.0-0.188","19","Low_HMMActual","","","","","","903.7999997138977","","","","Images/NewTrialWC.png","","3"
"image-button-response","624","683995","0.0-13.0-1.188","19","Low_HMMActual","","","","","","null","","","","Images/WhiteBeadChoice.png","","null"
"image-button-response","625","684498","0.0-13.0-2.188","19","Low_HMMActual","","","","","","null","","","","Images/WhiteBeadChoiceCorrect.png","","null"
"image-button-response","626","685244","0.0-13.0-0.189","19","Low_HMMActual","","","","","","742.5","","","","Images/NewTrialWC.png","","2"
"image-button-response","627","685549","0.0-13.0-1.189","19","Low_HMMActual","","","","","","null","","","","Images/WhiteBeadChoice.png","","null"
"image-button-response","628","686053","0.0-13.0-2.189","19","Low_HMMActual","","","","","","null","","","","Images/WhiteBeadChoiceCorrect.png","","null"
"image-button-response","629","686262","0.0-13.0-0.190","19","Low_HMMActual","","","","","","205.10000038146973","","","","Images/NewTrialWC.png","","2"
"image-button-response","630","686568","0.0-13.0-1.190","19","Low_HMMActual","","","","","","null","","","","Images/WhiteBeadChoice.png","","null"
"image-button-response","631","687075","0.0-13.0-2.190","19","Low_HMMActual","","","","","","null","","","","Images/WhiteBeadChoiceCorrect.png","","null"
"image-button-response","632","687584","0.0-13.0-0.191","19","Low_HMMActual","","","","","","506","","","","Images/NewTrialWC.png","","2"
"image-button-response","633","687890","0.0-13.0-1.191","19","Low_HMMActual","","","","","","null","","","","Images/WhiteBeadChoice.png","","null"
"image-button-response","634","688395","0.0-13.0-2.191","19","Low_HMMActual","","","","","","null","","","","Images/WhiteBeadChoiceCorrect.png","","null"
"image-button-response","635","688784","0.0-13.0-0.192","19","Low_HMMActual","","","","","","384.69999980926514","","","","Images/NewTrialWC.png","","2"
"image-button-response","636","689090","0.0-13.0-1.192","19","Low_HMMActual","","","","","","null","","","","Images/WhiteBeadChoice.png","","null"
"image-button-response","637","689595","0.0-13.0-2.192","19","Low_HMMActual","","","","","","null","","","","Images/WhiteBeadChoiceCorrect.png","","null"
"image-button-response","638","690145","0.0-13.0-0.193","19","Low_HMMActual","","","","","","546.5999999046326","","","","Images/NewTrialWC.png","","2"
"image-button-response","639","690452","0.0-13.0-1.193","19","Low_HMMActual","","","","","","null","","","","Images/WhiteBeadChoice.png","","null"
"image-button-response","640","690959","0.0-13.0-2.193","19","Low_HMMActual","","","","","","null","","","","Images/WhiteBeadChoiceCorrect.png","","null"
"image-button-response","641","691396","0.0-13.0-0.194","19","Low_HMMActual","","","","","","431.5","","","","Images/NewTrialWC.png","","2"
"image-button-response","642","691703","0.0-13.0-1.194","19","Low_HMMActual","","","","","","null","","","","Images/WhiteBeadChoice.png","","null"
"image-button-response","643","692210","0.0-13.0-2.194","19","Low_HMMActual","","","","","","null","","","","Images/WhiteBeadChoiceCorrect.png","","null"
"image-button-response","644","692703","0.0-13.0-0.195","19","Low_HMMActual","","","","","","489.6000003814697","","","","Images/NewTrialWC.png","","2"
"image-button-response","645","693009","0.0-13.0-1.195","19","Low_HMMActual","","","","","","null","","","","Images/WhiteBeadChoice.png","","null"
"image-button-response","646","693514","0.0-13.0-2.195","19","Low_HMMActual","","","","","","null","","","","Images/WhiteBeadChoiceCorrect.png","","null"
"image-button-response","647","694302","0.0-13.0-0.196","19","Low_HMMActual","","","","","","785.0999999046326","","","","Images/NewTrialWC.png","","2"
"image-button-response","648","694605","0.0-13.0-1.196","19","Low_HMMActual","","","","","","null","","","","Images/WhiteBeadChoice.png","","null"
"image-button-response","649","695110","0.0-13.0-2.196","19","Low_HMMActual","","","","","","null","","","","Images/WhiteBeadChoiceCorrect.png","","null"
"image-button-response","650","695632","0.0-13.0-0.197","19","Low_HMMActual","","","","","","519.1999998092651","","","","Images/NewTrialWC.png","","2"
"image-button-response","651","695940","0.0-13.0-1.197","19","Low_HMMActual","","","","","","null","","","","Images/WhiteBeadChoice.png","","null"
"image-button-response","652","696446","0.0-13.0-2.197","19","Low_HMMActual","","","","","","null","","","","Images/WhiteBeadChoiceCorrect.png","","null"
"image-button-response","653","697058","0.0-13.0-0.198","19","Low_HMMActual","","","","","","609","","","","Images/NewTrialWC.png","","2"
"image-button-response","654","697362","0.0-13.0-1.198","19","Low_HMMActual","","","","","","null","","","","Images/WhiteBeadChoice.png","","null"
"image-button-response","655","697867","0.0-13.0-2.198","19","Low_HMMActual","","","","","","null","","","","Images/WhiteBeadChoiceWrong.png","","null"
"image-button-response","656","698547","0.0-13.0-0.199","19","Low_HMMActual","","","","","","665.8000001907349","","","","Images/NewTrialBC.png","","1"
"image-button-response","657","698854","0.0-13.0-1.199","19","Low_HMMActual","","","","","","null","","","","Images/BlackBeadChoice.png","","null"
"image-button-response","658","699359","0.0-13.0-2.199","19","Low_HMMActual","","","","","","null","","","","Images/BlackBeadChoiceWrong.png","","null"
"image-button-response","659","701429","0.0-13.0-0.200","19","Low_HMMActual","","","","","","2066.2999997138977","","","","Images/NewTrialWC.png","","3"
"image-button-response","660","701733","0.0-13.0-1.200","19","Low_HMMActual","","","","","","null","","","","Images/WhiteBeadChoice.png","","null"
"image-button-response","661","702238","0.0-13.0-2.200","19","Low_HMMActual","","","","","","null","","","","Images/WhiteBeadChoiceCorrect.png","","null"
"image-button-response","662","702752","0.0-13.0-0.201","19","Low_HMMActual","","","","","","510.2999997138977","","","","Images/NewTrialWC.png","","2"
"image-button-response","663","703059","0.0-13.0-1.201","19","Low_HMMActual","","","","","","null","","","","Images/WhiteBeadChoice.png","","null"
"image-button-response","664","703562","0.0-13.0-2.201","19","Low_HMMActual","","","","","","null","","","","Images/WhiteBeadChoiceWrong.png","","null"
"image-button-response","665","704492","0.0-13.0-0.202","19","Low_HMMActual","","","","","","926.5","","","","Images/NewTrialBC.png","","1"
