"trial_type","trial_index","time_elapsed","internal_node_id","Script_Picker","Block_Type","success","timeout","failed_images","failed_audio","failed_video","rt","url","responses","question_order","stimulus","key_press","response"
"pavlovia","0","18","0.0-0.0","17","Low_HMMActual","","","","","","","","","","","",""
"preload","1","19","0.0-1.0","17","Low_HMMActual","true","false","[]","[]","[]","","","","","","",""
"external-html","2","40240","0.0-2.0-0.0","17","Low_HMMActual","","","","","","40170.79999998212","consent.html","","","","",""
"survey-multi-choice","3","196982","0.0-2.0-1.0","17","Low_HMMActual","","","","","","156741","","{""Q0"":""Female"",""Q1"":""White""}","[0,1]","","",""
"survey-text","4","199704","0.0-2.0-2.0","17","Low_HMMActual","","","","","","2717.199999988079","","{""Q0"":""18""}","","","",""
"survey-text","5","205504","0.0-2.0-3.0","17","Low_HMMActual","","","","","","5697.5","","{""Q0"":""60a44015d0ff9f3d81a1a1c8""}","","","",""
"image-keyboard-response","6","372919","0.0-3.0-0.0","17","Low_HMMActual","","","","","","167310.29999998212","","","","tutorial/tutorial1.png"," ",""
"image-keyboard-response","7","399622","0.0-3.0-0.1","17","Low_HMMActual","","","","","","26702.69999998808","","","","tutorial/tutorial2.png"," ",""
"image-keyboard-response","8","546501","0.0-3.0-0.2","17","Low_HMMActual","","","","","","146878.5","","","","tutorial/tutorial3.png"," ",""
"image-keyboard-response","9","549205","0.0-3.0-0.3","17","Low_HMMActual","","","","","","2703.4000000059605","","","","tutorial/tutorial4.png"," ",""
"image-keyboard-response","10","551661","0.0-3.0-0.4","17","Low_HMMActual","","","","","","2455.5999999940395","","","","tutorial/tutorial5.png"," ",""
"image-keyboard-response","11","587278","0.0-3.0-0.5","17","Low_HMMActual","","","","","","35616","","","","tutorial/tutorial6.png"," ",""
"image-keyboard-response","12","591070","0.0-3.0-0.6","17","Low_HMMActual","","","","","","3790.800000011921","","","","tutorial/tutorial7.png"," ",""
"image-keyboard-response","13","595878","0.0-3.0-0.7","17","Low_HMMActual","","","","","","4807.0999999940395","","","","tutorial/tutorial8.png"," ",""
"image-keyboard-response","14","598991","0.0-3.0-0.8","17","Low_HMMActual","","","","","","3111.600000023842","","","","tutorial/tutorial9.png"," ",""
"image-keyboard-response","15","603598","0.0-3.0-0.9","17","Low_HMMActual","","","","","","4606.800000011921","","","","tutorial/tutorial10.png"," ",""
"image-keyboard-response","16","604926","0.0-3.0-0.10","17","Low_HMMActual","","","","","","1327","","","","tutorial/tutorial11.png"," ",""
"image-keyboard-response","17","605942","0.0-3.0-0.11","17","Low_HMMActual","","","","","","1015.0999999940395","","","","tutorial/tutorial12.png"," ",""
"image-keyboard-response","18","612462","0.0-3.0-0.12","17","Low_HMMActual","","","","","","6519.600000023842","","","","tutorial/tutorial13.png"," ",""
"image-keyboard-response","19","614726","0.0-3.0-0.13","17","Low_HMMActual","","","","","","2262.5999999940395","","","","tutorial/tutorial14.png"," ",""
"image-keyboard-response","20","617966","0.0-3.0-0.14","17","Low_HMMActual","","","","","","3239.300000011921","","","","tutorial/tutorial15.png"," ",""
"image-keyboard-response","21","632326","0.0-4.0","17","Low_HMMActual","","","","","","14359.299999982119","","","","tutorial/tutorial16.png","arrowup",""
"image-keyboard-response","22","639894","0.0-5.0","17","Low_HMMActual","","","","","","5840.800000011921","","","","tutorial/tutorial17.png","arrowright",""
"image-keyboard-response","23","651958","0.0-6.0","17","Low_HMMActual","","","","","","10862.299999982119","","","","tutorial/tutorial18.png","arrowleft",""
"image-keyboard-response","24","661542","0.0-7.0","17","Low_HMMActual","","","","","","7244.700000017881","","","","tutorial/tutorial19.png"," ",""
"html-keyboard-response","25","666430","0.0-8.0","18","Low_HMMActual","","","","","","4881.899999976158","","","","<div class=""container"" style=""height:800px;width:800px;display:flex;flex-direction:column;justify-content:center;align-items:center;text-align:center;font-weight:normal;font-family:Arial;font-size:20px""><p>Loading episode&hellip;</p><div>"," ",""
"image-button-response","26","672778","0.0-9.0-0.0","18","Low_HMMActual","","","","","","6343.899999976158","","","","Images/NoChoice.png","","1"
"image-button-response","27","673081","0.0-9.0-1.0","18","Low_HMMActual","","","","","","null","","","","Images/BlackBeadChoice.png","","null"
"image-button-response","28","673589","0.0-9.0-2.0","18","Low_HMMActual","","","","","","null","","","","Images/BlackBeadChoiceWrong.png","","null"
"image-button-response","29","677503","0.0-9.0-0.1","18","Low_HMMActual","","","","","","3903.5","","","","Images/NewTrialWC.png","","2"
"image-button-response","30","677810","0.0-9.0-1.1","18","Low_HMMActual","","","","","","null","","","","Images/WhiteBeadChoice.png","","null"
"image-button-response","31","678322","0.0-9.0-2.1","18","Low_HMMActual","","","","","","null","","","","Images/WhiteBeadChoiceCorrect.png","","null"
"image-button-response","32","679171","0.0-9.0-0.2","18","Low_HMMActual","","","","","","846.5","","","","Images/NewTrialWC.png","","2"
"image-button-response","33","679473","0.0-9.0-1.2","18","Low_HMMActual","","","","","","null","","","","Images/WhiteBeadChoice.png","","null"
"image-button-response","34","679984","0.0-9.0-2.2","18","Low_HMMActual","","","","","","null","","","","Images/WhiteBeadChoiceCorrect.png","","null"
"image-button-response","35","681329","0.0-9.0-0.3","18","Low_HMMActual","","","","","","1342.699999988079","","","","Images/NewTrialWC.png","","2"
"image-button-response","36","681643","0.0-9.0-1.3","18","Low_HMMActual","","","","","","null","","","","Images/WhiteBeadChoice.png","","null"
"image-button-response","37","682151","0.0-9.0-2.3","18","Low_HMMActual","","","","","","null","","","","Images/WhiteBeadChoiceWrong.png","","null"
"image-button-response","38","683677","0.0-9.0-0.4","18","Low_HMMActual","","","","","","1524.5","","","","Images/NewTrialBC.png","","0"
"image-button-response","39","683989","0.0-9.0-1.4","18","Low_HMMActual","","","","","","null","","","","Images/BlackBeadChoice.png","","null"
"image-button-response","40","684490","0.0-9.0-2.4","18","Low_HMMActual","","","","","","null","","","","Images/BlackBeadChoiceWrong.png","","null"
"image-button-response","41","684941","0.0-9.0-0.5","18","Low_HMMActual","","","","","","449.40000000596046","","","","Images/NewTrialWC.png","","2"
"image-button-response","42","685243","0.0-9.0-1.5","18","Low_HMMActual","","","","","","null","","","","Images/WhiteBeadChoice.png","","null"
"image-button-response","43","685746","0.0-9.0-2.5","18","Low_HMMActual","","","","","","null","","","","Images/WhiteBeadChoiceCorrect.png","","null"
"image-button-response","44","686205","0.0-9.0-0.6","18","Low_HMMActual","","","","","","457.40000000596046","","","","Images/NewTrialWC.png","","2"
"image-button-response","45","686506","0.0-9.0-1.6","18","Low_HMMActual","","","","","","null","","","","Images/WhiteBeadChoice.png","","null"
"image-button-response","46","687008","0.0-9.0-2.6","18","Low_HMMActual","","","","","","null","","","","Images/WhiteBeadChoiceWrong.png","","null"
"image-button-response","47","687161","0.0-9.0-0.7","18","Low_HMMActual","","","","","","151.5","","","","Images/NewTrialBC.png","","0"
"image-button-response","48","687477","0.0-9.0-1.7","18","Low_HMMActual","","","","","","null","","","","Images/BlackBeadChoice.png","","null"
"image-button-response","49","687979","0.0-9.0-2.7","18","Low_HMMActual","","","","","","null","","","","Images/BlackBeadChoiceWrong.png","","null"
"image-button-response","50","688259","0.0-9.0-0.8","18","Low_HMMActual","","","","","","278.30000001192093","","","","Images/NewTrialWC.png","","2"
"image-button-response","51","688561","0.0-9.0-1.8","18","Low_HMMActual","","","","","","null","","","","Images/WhiteBeadChoice.png","","null"
"image-button-response","52","689063","0.0-9.0-2.8","18","Low_HMMActual","","","","","","null","","","","Images/WhiteBeadChoiceCorrect.png","","null"
"image-button-response","53","689341","0.0-9.0-0.9","18","Low_HMMActual","","","","","","276","","","","Images/NewTrialWC.png","","2"
"image-button-response","54","689650","0.0-9.0-1.9","18","Low_HMMActual","","","","","","null","","","","Images/WhiteBeadChoice.png","","null"
"image-button-response","55","690153","0.0-9.0-2.9","18","Low_HMMActual","","","","","","null","","","","Images/WhiteBeadChoiceWrong.png","","null"
"html-keyboard-response","56","693438","0.0-10.0","18","Low_HMMActual","","","","","","3284.2999999821186","","","",""," ",""
"image-keyboard-response","57","695254","0.0-11.0","18","Low_HMMActual","","","","","","1814.300000011921","","","","tutorial/tutorial20.png"," ",""
"html-keyboard-response","58","699262","0.0-12.0","19","Low_HMMActual","","","","","","4004.4000000059605","","","","<div class=""container"" style=""height:800px;width:800px;display:flex;flex-direction:column;justify-content:center;align-items:center;text-align:center;font-weight:normal;font-family:Arial;font-size:20px""><p>Loading episode&hellip;</p><div>"," ",""
"image-button-response","59","702039","0.0-13.0-0.0","19","Low_HMMActual","","","","","","2775.5","","","","Images/NoChoice.png","","0"
"image-button-response","60","702340","0.0-13.0-1.0","19","Low_HMMActual","","","","","","null","","","","Images/BlackBeadChoice.png","","null"
"image-button-response","61","702848","0.0-13.0-2.0","19","Low_HMMActual","","","","","","null","","","","Images/BlackBeadChoiceWrong.png","","null"
"image-button-response","62","705773","0.0-13.0-0.1","19","Low_HMMActual","","","","","","2923.2999999821186","","","","Images/NewTrialWC.png","","2"
"image-button-response","63","706089","0.0-13.0-1.1","19","Low_HMMActual","","","","","","null","","","","Images/WhiteBeadChoice.png","","null"
"image-button-response","64","706600","0.0-13.0-2.1","19","Low_HMMActual","","","","","","null","","","","Images/WhiteBeadChoiceCorrect.png","","null"
"image-button-response","65","706743","0.0-13.0-0.2","19","Low_HMMActual","","","","","","140.5","","","","Images/NewTrialWC.png","","2"
"image-button-response","66","707055","0.0-13.0-1.2","19","Low_HMMActual","","","","","","null","","","","Images/WhiteBeadChoice.png","","null"
"image-button-response","67","707566","0.0-13.0-2.2","19","Low_HMMActual","","","","","","null","","","","Images/WhiteBeadChoiceCorrect.png","","null"
"image-button-response","68","708871","0.0-13.0-0.3","19","Low_HMMActual","","","","","","1302.4000000059605","","","","Images/NewTrialWC.png","","2"
"image-button-response","69","709174","0.0-13.0-1.3","19","Low_HMMActual","","","","","","null","","","","Images/WhiteBeadChoice.png","","null"
"image-button-response","70","709676","0.0-13.0-2.3","19","Low_HMMActual","","","","","","375.2000000178814","","","","Images/WhiteBeadChoiceCorrect.png","","2"
"image-button-response","71","710461","0.0-13.0-0.4","19","Low_HMMActual","","","","","","783.0999999940395","","","","Images/NewTrialWC.png","","2"
"image-button-response","72","710762","0.0-13.0-1.4","19","Low_HMMActual","","","","","","null","","","","Images/WhiteBeadChoice.png","","null"
"image-button-response","73","711276","0.0-13.0-2.4","19","Low_HMMActual","","","","","","420.80000001192093","","","","Images/WhiteBeadChoiceCorrect.png","","2"
"image-button-response","74","711723","0.0-13.0-0.5","19","Low_HMMActual","","","","","","445.30000001192093","","","","Images/NewTrialWC.png","","2"
"image-button-response","75","712024","0.0-13.0-1.5","19","Low_HMMActual","","","","","","null","","","","Images/WhiteBeadChoice.png","","null"
"image-button-response","76","712528","0.0-13.0-2.5","19","Low_HMMActual","","","","","","null","","","","Images/WhiteBeadChoiceWrong.png","","null"
"image-button-response","77","713087","0.0-13.0-0.6","19","Low_HMMActual","","","","","","557.5","","","","Images/NewTrialBC.png","","0"
"image-button-response","78","713390","0.0-13.0-1.6","19","Low_HMMActual","","","","","","null","","","","Images/BlackBeadChoice.png","","null"
"image-button-response","79","713896","0.0-13.0-2.6","19","Low_HMMActual","","","","","","null","","","","Images/BlackBeadChoiceCorrect.png","","null"
"image-button-response","80","714237","0.0-13.0-0.7","19","Low_HMMActual","","","","","","338.59999999403954","","","","Images/NewTrialBC.png","","0"
"image-button-response","81","714546","0.0-13.0-1.7","19","Low_HMMActual","","","","","","null","","","","Images/BlackBeadChoice.png","","null"
"image-button-response","82","715053","0.0-13.0-2.7","19","Low_HMMActual","","","","","","null","","","","Images/BlackBeadChoiceCorrect.png","","null"
"image-button-response","83","715697","0.0-13.0-0.8","19","Low_HMMActual","","","","","","641.7999999821186","","","","Images/NewTrialBC.png","","0"
"image-button-response","84","715999","0.0-13.0-1.8","19","Low_HMMActual","","","","","","null","","","","Images/BlackBeadChoice.png","","null"
"image-button-response","85","716518","0.0-13.0-2.8","19","Low_HMMActual","","","","","","null","","","","Images/BlackBeadChoiceCorrect.png","","null"
"image-button-response","86","717170","0.0-13.0-0.9","19","Low_HMMActual","","","","","","650.3000000119209","","","","Images/NewTrialBC.png","","0"
"image-button-response","87","717477","0.0-13.0-1.9","19","Low_HMMActual","","","","","","null","","","","Images/BlackBeadChoice.png","","null"
"image-button-response","88","717985","0.0-13.0-2.9","19","Low_HMMActual","","","","","","null","","","","Images/BlackBeadChoiceCorrect.png","","null"
"image-button-response","89","718136","0.0-13.0-0.10","19","Low_HMMActual","","","","","","149.7000000178814","","","","Images/NewTrialBC.png","","0"
"image-button-response","90","718439","0.0-13.0-1.10","19","Low_HMMActual","","","","","","null","","","","Images/BlackBeadChoice.png","","null"
"image-button-response","91","718942","0.0-13.0-2.10","19","Low_HMMActual","","","","","","null","","","","Images/BlackBeadChoiceWrong.png","","null"
"image-button-response","92","719449","0.0-13.0-0.11","19","Low_HMMActual","","","","","","504.7000000178814","","","","Images/NewTrialWC.png","","2"
"image-button-response","93","719750","0.0-13.0-1.11","19","Low_HMMActual","","","","","","null","","","","Images/WhiteBeadChoice.png","","null"
"image-button-response","94","720253","0.0-13.0-2.11","19","Low_HMMActual","","","","","","null","","","","Images/WhiteBeadChoiceWrong.png","","null"
"image-button-response","95","720716","0.0-13.0-0.12","19","Low_HMMActual","","","","","","461.09999999403954","","","","Images/NewTrialBC.png","","0"
"image-button-response","96","721018","0.0-13.0-1.12","19","Low_HMMActual","","","","","","null","","","","Images/BlackBeadChoice.png","","null"
"image-button-response","97","721520","0.0-13.0-2.12","19","Low_HMMActual","","","","","","null","","","","Images/BlackBeadChoiceWrong.png","","null"
"image-button-response","98","721760","0.0-13.0-0.13","19","Low_HMMActual","","","","","","238","","","","Images/NewTrialWC.png","","2"
"image-button-response","99","722062","0.0-13.0-1.13","19","Low_HMMActual","","","","","","null","","","","Images/WhiteBeadChoice.png","","null"
"image-button-response","100","722564","0.0-13.0-2.13","19","Low_HMMActual","","","","","","null","","","","Images/WhiteBeadChoiceCorrect.png","","null"
"image-button-response","101","722916","0.0-13.0-0.14","19","Low_HMMActual","","","","","","350.80000001192093","","","","Images/NewTrialWC.png","","2"
"image-button-response","102","723218","0.0-13.0-1.14","19","Low_HMMActual","","","","","","null","","","","Images/WhiteBeadChoice.png","","null"
"image-button-response","103","723721","0.0-13.0-2.14","19","Low_HMMActual","","","","","","null","","","","Images/WhiteBeadChoiceCorrect.png","","null"
"image-button-response","104","724046","0.0-13.0-0.15","19","Low_HMMActual","","","","","","322.90000000596046","","","","Images/NewTrialWC.png","","2"
"image-button-response","105","724353","0.0-13.0-1.15","19","Low_HMMActual","","","","","","null","","","","Images/WhiteBeadChoice.png","","null"
"image-button-response","106","724861","0.0-13.0-2.15","19","Low_HMMActual","","","","","","427.69999998807907","","","","Images/WhiteBeadChoiceCorrect.png","","2"
"image-button-response","107","726170","0.0-13.0-0.16","19","Low_HMMActual","","","","","","1307.300000011921","","","","Images/NewTrialWC.png","","2"
"image-button-response","108","726484","0.0-13.0-1.16","19","Low_HMMActual","","","","","","null","","","","Images/WhiteBeadChoice.png","","null"
"image-button-response","109","726986","0.0-13.0-2.16","19","Low_HMMActual","","","","","","null","","","","Images/WhiteBeadChoiceWrong.png","","null"
"image-button-response","110","727686","0.0-13.0-0.17","19","Low_HMMActual","","","","","","699.2000000178814","","","","Images/NewTrialBC.png","","0"
"image-button-response","111","727987","0.0-13.0-1.17","19","Low_HMMActual","","","","","","null","","","","Images/BlackBeadChoice.png","","null"
"image-button-response","112","728490","0.0-13.0-2.17","19","Low_HMMActual","","","","","","null","","","","Images/BlackBeadChoiceCorrect.png","","null"
"image-button-response","113","729258","0.0-13.0-0.18","19","Low_HMMActual","","","","","","767.2000000178814","","","","Images/NewTrialBC.png","","0"
"image-button-response","114","729575","0.0-13.0-1.18","19","Low_HMMActual","","","","","","null","","","","Images/BlackBeadChoice.png","","null"
"image-button-response","115","730081","0.0-13.0-2.18","19","Low_HMMActual","","","","","","345.69999998807907","","","","Images/BlackBeadChoiceCorrect.png","","0"
"image-button-response","116","730466","0.0-13.0-0.19","19","Low_HMMActual","","","","","","383.30000001192093","","","","Images/NewTrialBC.png","","0"
"image-button-response","117","730776","0.0-13.0-1.19","19","Low_HMMActual","","","","","","null","","","","Images/BlackBeadChoice.png","","null"
"image-button-response","118","731292","0.0-13.0-2.19","19","Low_HMMActual","","","","","","362","","","","Images/BlackBeadChoiceCorrect.png","","0"
"image-button-response","119","731844","0.0-13.0-0.20","19","Low_HMMActual","","","","","","541","","","","Images/NewTrialBC.png","","0"
"image-button-response","120","732153","0.0-13.0-1.20","19","Low_HMMActual","","","","","","null","","","","Images/BlackBeadChoice.png","","null"
"image-button-response","121","732664","0.0-13.0-2.20","19","Low_HMMActual","","","","","","null","","","","Images/BlackBeadChoiceCorrect.png","","null"
"image-button-response","122","733209","0.0-13.0-0.21","19","Low_HMMActual","","","","","","542.5","","","","Images/NewTrialBC.png","","0"
"image-button-response","123","733521","0.0-13.0-1.21","19","Low_HMMActual","","","","","","null","","","","Images/BlackBeadChoice.png","","null"
"image-button-response","124","734025","0.0-13.0-2.21","19","Low_HMMActual","","","","","","null","","","","Images/BlackBeadChoiceWrong.png","","null"
"image-button-response","125","734624","0.0-13.0-0.22","19","Low_HMMActual","","","","","","597.4000000059605","","","","Images/NewTrialWC.png","","2"
"image-button-response","126","734926","0.0-13.0-1.22","19","Low_HMMActual","","","","","","null","","","","Images/WhiteBeadChoice.png","","null"
"image-button-response","127","735436","0.0-13.0-2.22","19","Low_HMMActual","","","","","","null","","","","Images/WhiteBeadChoiceWrong.png","","null"
"image-button-response","128","735716","0.0-13.0-0.23","19","Low_HMMActual","","","","","","278.5","","","","Images/NewTrialBC.png","","0"
"image-button-response","129","736023","0.0-13.0-1.23","19","Low_HMMActual","","","","","","null","","","","Images/BlackBeadChoice.png","","null"
"image-button-response","130","736526","0.0-13.0-2.23","19","Low_HMMActual","","","","","","null","","","","Images/BlackBeadChoiceWrong.png","","null"
"image-button-response","131","736782","0.0-13.0-0.24","19","Low_HMMActual","","","","","","254.2000000178814","","","","Images/NewTrialWC.png","","2"
"image-button-response","132","737084","0.0-13.0-1.24","19","Low_HMMActual","","","","","","null","","","","Images/WhiteBeadChoice.png","","null"
"image-button-response","133","737586","0.0-13.0-2.24","19","Low_HMMActual","","","","","","null","","","","Images/WhiteBeadChoiceWrong.png","","null"
"image-button-response","134","737718","0.0-13.0-0.25","19","Low_HMMActual","","","","","","129.90000000596046","","","","Images/NewTrialBC.png","","0"
"image-button-response","135","738024","0.0-13.0-1.25","19","Low_HMMActual","","","","","","null","","","","Images/BlackBeadChoice.png","","null"
"image-button-response","136","738525","0.0-13.0-2.25","19","Low_HMMActual","","","","","","null","","","","Images/BlackBeadChoiceWrong.png","","null"
"image-button-response","137","738662","0.0-13.0-0.26","19","Low_HMMActual","","","","","","135.30000001192093","","","","Images/NewTrialWC.png","","2"
"image-button-response","138","738963","0.0-13.0-1.26","19","Low_HMMActual","","","","","","null","","","","Images/WhiteBeadChoice.png","","null"
"image-button-response","139","739477","0.0-13.0-2.26","19","Low_HMMActual","","","","","","425.30000001192093","","","","Images/WhiteBeadChoiceWrong.png","","0"
"image-button-response","140","740582","0.0-13.0-0.27","19","Low_HMMActual","","","","","","1103.0999999940395","","","","Images/NewTrialBC.png","","0"
"image-button-response","141","740892","0.0-13.0-1.27","19","Low_HMMActual","","","","","","null","","","","Images/BlackBeadChoice.png","","null"
"image-button-response","142","741400","0.0-13.0-2.27","19","Low_HMMActual","","","","","","399.30000001192093","","","","Images/BlackBeadChoiceCorrect.png","","0"
"image-button-response","143","741972","0.0-13.0-0.28","19","Low_HMMActual","","","","","","570.4000000059605","","","","Images/NewTrialBC.png","","0"
"image-button-response","144","742274","0.0-13.0-1.28","19","Low_HMMActual","","","","","","null","","","","Images/BlackBeadChoice.png","","null"
"image-button-response","145","742776","0.0-13.0-2.28","19","Low_HMMActual","","","","","","null","","","","Images/BlackBeadChoiceWrong.png","","null"
"image-button-response","146","743062","0.0-13.0-0.29","19","Low_HMMActual","","","","","","285","","","","Images/NewTrialWC.png","","2"
"image-button-response","147","743364","0.0-13.0-1.29","19","Low_HMMActual","","","","","","null","","","","Images/WhiteBeadChoice.png","","null"
"image-button-response","148","743865","0.0-13.0-2.29","19","Low_HMMActual","","","","","","null","","","","Images/WhiteBeadChoiceWrong.png","","null"
"image-button-response","149","744042","0.0-13.0-0.30","19","Low_HMMActual","","","","","","175","","","","Images/NewTrialBC.png","","0"
"image-button-response","150","744345","0.0-13.0-1.30","19","Low_HMMActual","","","","","","null","","","","Images/BlackBeadChoice.png","","null"
"image-button-response","151","744847","0.0-13.0-2.30","19","Low_HMMActual","","","","","","null","","","","Images/BlackBeadChoiceWrong.png","","null"
"image-button-response","152","744980","0.0-13.0-0.31","19","Low_HMMActual","","","","","","131.19999998807907","","","","Images/NewTrialWC.png","","2"
"image-button-response","153","745281","0.0-13.0-1.31","19","Low_HMMActual","","","","","","null","","","","Images/WhiteBeadChoice.png","","null"
"image-button-response","154","745783","0.0-13.0-2.31","19","Low_HMMActual","","","","","","null","","","","Images/WhiteBeadChoiceCorrect.png","","null"
"image-button-response","155","746038","0.0-13.0-0.32","19","Low_HMMActual","","","","","","253.30000001192093","","","","Images/NewTrialWC.png","","2"
"image-button-response","156","746340","0.0-13.0-1.32","19","Low_HMMActual","","","","","","null","","","","Images/WhiteBeadChoice.png","","null"
"image-button-response","157","746842","0.0-13.0-2.32","19","Low_HMMActual","","","","","","null","","","","Images/WhiteBeadChoiceCorrect.png","","null"
"image-button-response","158","747078","0.0-13.0-0.33","19","Low_HMMActual","","","","","","233.59999999403954","","","","Images/NewTrialWC.png","","2"
"image-button-response","159","747381","0.0-13.0-1.33","19","Low_HMMActual","","","","","","null","","","","Images/WhiteBeadChoice.png","","null"
"image-button-response","160","747883","0.0-13.0-2.33","19","Low_HMMActual","","","","","","null","","","","Images/WhiteBeadChoiceCorrect.png","","null"
"image-button-response","161","748254","0.0-13.0-0.34","19","Low_HMMActual","","","","","","369","","","","Images/NewTrialWC.png","","2"
"image-button-response","162","748557","0.0-13.0-1.34","19","Low_HMMActual","","","","","","null","","","","Images/WhiteBeadChoice.png","","null"
"image-button-response","163","749060","0.0-13.0-2.34","19","Low_HMMActual","","","","","","null","","","","Images/WhiteBeadChoiceWrong.png","","null"
"image-button-response","164","749318","0.0-13.0-0.35","19","Low_HMMActual","","","","","","257","","","","Images/NewTrialBC.png","","0"
"image-button-response","165","749619","0.0-13.0-1.35","19","Low_HMMActual","","","","","","null","","","","Images/BlackBeadChoice.png","","null"
"image-button-response","166","750122","0.0-13.0-2.35","19","Low_HMMActual","","","","","","null","","","","Images/BlackBeadChoiceWrong.png","","null"
"image-button-response","167","750201","0.0-13.0-0.36","19","Low_HMMActual","","","","","","76.69999998807907","","","","Images/NewTrialWC.png","","2"
"image-button-response","168","750502","0.0-13.0-1.36","19","Low_HMMActual","","","","","","null","","","","Images/WhiteBeadChoice.png","","null"
"image-button-response","169","751004","0.0-13.0-2.36","19","Low_HMMActual","","","","","","null","","","","Images/WhiteBeadChoiceWrong.png","","null"
"image-button-response","170","751119","0.0-13.0-0.37","19","Low_HMMActual","","","","","","112.7999999821186","","","","Images/NewTrialBC.png","","0"
"image-button-response","171","751420","0.0-13.0-1.37","19","Low_HMMActual","","","","","","null","","","","Images/BlackBeadChoice.png","","null"
"image-button-response","172","751922","0.0-13.0-2.37","19","Low_HMMActual","","","","","","null","","","","Images/BlackBeadChoiceCorrect.png","","null"
"image-button-response","173","752434","0.0-13.0-0.38","19","Low_HMMActual","","","","","","510.09999999403954","","","","Images/NewTrialBC.png","","0"
"image-button-response","174","752735","0.0-13.0-1.38","19","Low_HMMActual","","","","","","null","","","","Images/BlackBeadChoice.png","","null"
"image-button-response","175","753236","0.0-13.0-2.38","19","Low_HMMActual","","","","","","null","","","","Images/BlackBeadChoiceCorrect.png","","null"
"image-button-response","176","753356","0.0-13.0-0.39","19","Low_HMMActual","","","","","","117.7999999821186","","","","Images/NewTrialBC.png","","0"
"image-button-response","177","753658","0.0-13.0-1.39","19","Low_HMMActual","","","","","","null","","","","Images/BlackBeadChoice.png","","null"
"image-button-response","178","754160","0.0-13.0-2.39","19","Low_HMMActual","","","","","","null","","","","Images/BlackBeadChoiceWrong.png","","null"
"image-button-response","179","754407","0.0-13.0-0.40","19","Low_HMMActual","","","","","","245.5","","","","Images/NewTrialWC.png","","2"
"image-button-response","180","754708","0.0-13.0-1.40","19","Low_HMMActual","","","","","","null","","","","Images/WhiteBeadChoice.png","","null"
"image-button-response","181","755210","0.0-13.0-2.40","19","Low_HMMActual","","","","","","null","","","","Images/WhiteBeadChoiceCorrect.png","","null"
"image-button-response","182","755491","0.0-13.0-0.41","19","Low_HMMActual","","","","","","278.10000002384186","","","","Images/NewTrialWC.png","","2"
"image-button-response","183","755793","0.0-13.0-1.41","19","Low_HMMActual","","","","","","null","","","","Images/WhiteBeadChoice.png","","null"
"image-button-response","184","756295","0.0-13.0-2.41","19","Low_HMMActual","","","","","","null","","","","Images/WhiteBeadChoiceCorrect.png","","null"
"image-button-response","185","758687","0.0-13.0-0.42","19","Low_HMMActual","","","","","","2389.100000023842","","","","Images/NewTrialWC.png","","2"
"image-button-response","186","758992","0.0-13.0-1.42","19","Low_HMMActual","","","","","","null","","","","Images/WhiteBeadChoice.png","","null"
"image-button-response","187","759494","0.0-13.0-2.42","19","Low_HMMActual","","","","","","null","","","","Images/WhiteBeadChoiceWrong.png","","null"
"image-button-response","188","759954","0.0-13.0-0.43","19","Low_HMMActual","","","","","","458.19999998807907","","","","Images/NewTrialBC.png","","0"
"image-button-response","189","760267","0.0-13.0-1.43","19","Low_HMMActual","","","","","","null","","","","Images/BlackBeadChoice.png","","null"
"image-button-response","190","760768","0.0-13.0-2.43","19","Low_HMMActual","","","","","","null","","","","Images/BlackBeadChoiceWrong.png","","null"
"image-button-response","191","760876","0.0-13.0-0.44","19","Low_HMMActual","","","","","","105.7999999821186","","","","Images/NewTrialWC.png","","2"
"image-button-response","192","761178","0.0-13.0-1.44","19","Low_HMMActual","","","","","","null","","","","Images/WhiteBeadChoice.png","","null"
"image-button-response","193","761680","0.0-13.0-2.44","19","Low_HMMActual","","","","","","null","","","","Images/WhiteBeadChoiceWrong.png","","null"
"image-button-response","194","761776","0.0-13.0-0.45","19","Low_HMMActual","","","","","","94.40000000596046","","","","Images/NewTrialBC.png","","0"
"image-button-response","195","762078","0.0-13.0-1.45","19","Low_HMMActual","","","","","","null","","","","Images/BlackBeadChoice.png","","null"
"image-button-response","196","762580","0.0-13.0-2.45","19","Low_HMMActual","","","","","","null","","","","Images/BlackBeadChoiceCorrect.png","","null"
"image-button-response","197","762758","0.0-13.0-0.46","19","Low_HMMActual","","","","","","176","","","","Images/NewTrialBC.png","","0"
"image-button-response","198","763070","0.0-13.0-1.46","19","Low_HMMActual","","","","","","null","","","","Images/BlackBeadChoice.png","","null"
"image-button-response","199","763572","0.0-13.0-2.46","19","Low_HMMActual","","","","","","null","","","","Images/BlackBeadChoiceWrong.png","","null"
"image-button-response","200","764356","0.0-13.0-0.47","19","Low_HMMActual","","","","","","781.7000000178814","","","","Images/NewTrialWC.png","","2"
"image-button-response","201","764667","0.0-13.0-1.47","19","Low_HMMActual","","","","","","null","","","","Images/WhiteBeadChoice.png","","null"
"image-button-response","202","765169","0.0-13.0-2.47","19","Low_HMMActual","","","","","","null","","","","Images/WhiteBeadChoiceCorrect.png","","null"
"image-button-response","203","765382","0.0-13.0-0.48","19","Low_HMMActual","","","","","","210.89999997615814","","","","Images/NewTrialWC.png","","2"
"image-button-response","204","765697","0.0-13.0-1.48","19","Low_HMMActual","","","","","","null","","","","Images/WhiteBeadChoice.png","","null"
"image-button-response","205","766212","0.0-13.0-2.48","19","Low_HMMActual","","","","","","null","","","","Images/WhiteBeadChoiceCorrect.png","","null"
"image-button-response","206","766683","0.0-13.0-0.49","19","Low_HMMActual","","","","","","468.30000001192093","","","","Images/NewTrialWC.png","","2"
"image-button-response","207","766991","0.0-13.0-1.49","19","Low_HMMActual","","","","","","null","","","","Images/WhiteBeadChoice.png","","null"
"image-button-response","208","767493","0.0-13.0-2.49","19","Low_HMMActual","","","","","","null","","","","Images/WhiteBeadChoiceCorrect.png","","null"
"image-button-response","209","767776","0.0-13.0-0.50","19","Low_HMMActual","","","","","","280.7999999821186","","","","Images/NewTrialWC.png","","2"
"image-button-response","210","768084","0.0-13.0-1.50","19","Low_HMMActual","","","","","","null","","","","Images/WhiteBeadChoice.png","","null"
"image-button-response","211","768596","0.0-13.0-2.50","19","Low_HMMActual","","","","","","null","","","","Images/WhiteBeadChoiceWrong.png","","null"
"image-button-response","212","770504","0.0-13.0-0.51","19","Low_HMMActual","","","","","","1904.5","","","","Images/NewTrialBC.png","","0"
"image-button-response","213","770806","0.0-13.0-1.51","19","Low_HMMActual","","","","","","null","","","","Images/BlackBeadChoice.png","","null"
"image-button-response","214","771308","0.0-13.0-2.51","19","Low_HMMActual","","","","","","419","","","","Images/BlackBeadChoiceCorrect.png","","0"
"image-button-response","215","771818","0.0-13.0-0.52","19","Low_HMMActual","","","","","","508.7000000178814","","","","Images/NewTrialBC.png","","0"
"image-button-response","216","772130","0.0-13.0-1.52","19","Low_HMMActual","","","","","","null","","","","Images/BlackBeadChoice.png","","null"
"image-button-response","217","772633","0.0-13.0-2.52","19","Low_HMMActual","","","","","","395.59999999403954","","","","Images/BlackBeadChoiceCorrect.png","","0"
"image-button-response","218","772870","0.0-13.0-0.53","19","Low_HMMActual","","","","","","233.39999997615814","","","","Images/NewTrialBC.png","","0"
"image-button-response","219","773173","0.0-13.0-1.53","19","Low_HMMActual","","","","","","null","","","","Images/BlackBeadChoice.png","","null"
"image-button-response","220","773678","0.0-13.0-2.53","19","Low_HMMActual","","","","","","null","","","","Images/BlackBeadChoiceWrong.png","","null"
"image-button-response","221","774134","0.0-13.0-0.54","19","Low_HMMActual","","","","","","454.19999998807907","","","","Images/NewTrialWC.png","","2"
"image-button-response","222","774445","0.0-13.0-1.54","19","Low_HMMActual","","","","","","null","","","","Images/WhiteBeadChoice.png","","null"
"image-button-response","223","774947","0.0-13.0-2.54","19","Low_HMMActual","","","","","","null","","","","Images/WhiteBeadChoiceWrong.png","","null"
"image-button-response","224","775422","0.0-13.0-0.55","19","Low_HMMActual","","","","","","473.40000000596046","","","","Images/NewTrialBC.png","","0"
"image-button-response","225","775724","0.0-13.0-1.55","19","Low_HMMActual","","","","","","null","","","","Images/BlackBeadChoice.png","","null"
"image-button-response","226","776225","0.0-13.0-2.55","19","Low_HMMActual","","","","","","428.90000000596046","","","","Images/BlackBeadChoiceCorrect.png","","0"
"image-button-response","227","776904","0.0-13.0-0.56","19","Low_HMMActual","","","","","","676.5","","","","Images/NewTrialBC.png","","0"
"image-button-response","228","777212","0.0-13.0-1.56","19","Low_HMMActual","","","","","","null","","","","Images/BlackBeadChoice.png","","null"
"image-button-response","229","777718","0.0-13.0-2.56","19","Low_HMMActual","","","","","","null","","","","Images/BlackBeadChoiceCorrect.png","","null"
"image-button-response","230","778702","0.0-13.0-0.57","19","Low_HMMActual","","","","","","982.4000000059605","","","","Images/NewTrialBC.png","","0"
"image-button-response","231","779006","0.0-13.0-1.57","19","Low_HMMActual","","","","","","null","","","","Images/BlackBeadChoice.png","","null"
"image-button-response","232","779514","0.0-13.0-2.57","19","Low_HMMActual","","","","","","null","","","","Images/BlackBeadChoiceCorrect.png","","null"
"image-button-response","233","779674","0.0-13.0-0.58","19","Low_HMMActual","","","","","","157.39999997615814","","","","Images/NewTrialBC.png","","0"
"image-button-response","234","779986","0.0-13.0-1.58","19","Low_HMMActual","","","","","","null","","","","Images/BlackBeadChoice.png","","null"
"image-button-response","235","780489","0.0-13.0-2.58","19","Low_HMMActual","","","","","","null","","","","Images/BlackBeadChoiceCorrect.png","","null"
"image-button-response","236","780880","0.0-13.0-0.59","19","Low_HMMActual","","","","","","389.2000000178814","","","","Images/NewTrialBC.png","","0"
"image-button-response","237","781183","0.0-13.0-1.59","19","Low_HMMActual","","","","","","null","","","","Images/BlackBeadChoice.png","","null"
"image-button-response","238","781685","0.0-13.0-2.59","19","Low_HMMActual","","","","","","null","","","","Images/BlackBeadChoiceWrong.png","","null"
"image-button-response","239","781898","0.0-13.0-0.60","19","Low_HMMActual","","","","","","211.80000001192093","","","","Images/NewTrialWC.png","","2"
"image-button-response","240","782201","0.0-13.0-1.60","19","Low_HMMActual","","","","","","null","","","","Images/WhiteBeadChoice.png","","null"
"image-button-response","241","782704","0.0-13.0-2.60","19","Low_HMMActual","","","","","","null","","","","Images/WhiteBeadChoiceCorrect.png","","null"
"image-button-response","242","783330","0.0-13.0-0.61","19","Low_HMMActual","","","","","","623.7000000178814","","","","Images/NewTrialWC.png","","2"
"image-button-response","243","783643","0.0-13.0-1.61","19","Low_HMMActual","","","","","","null","","","","Images/WhiteBeadChoice.png","","null"
"image-button-response","244","784146","0.0-13.0-2.61","19","Low_HMMActual","","","","","","null","","","","Images/WhiteBeadChoiceCorrect.png","","null"
"image-button-response","245","784342","0.0-13.0-0.62","19","Low_HMMActual","","","","","","193.69999998807907","","","","Images/NewTrialWC.png","","2"
"image-button-response","246","784643","0.0-13.0-1.62","19","Low_HMMActual","","","","","","null","","","","Images/WhiteBeadChoice.png","","null"
"image-button-response","247","785151","0.0-13.0-2.62","19","Low_HMMActual","","","","","","null","","","","Images/WhiteBeadChoiceWrong.png","","null"
"image-button-response","248","785810","0.0-13.0-0.63","19","Low_HMMActual","","","","","","657.4000000059605","","","","Images/NewTrialBC.png","","0"
"image-button-response","249","786123","0.0-13.0-1.63","19","Low_HMMActual","","","","","","null","","","","Images/BlackBeadChoice.png","","null"
"image-button-response","250","786630","0.0-13.0-2.63","19","Low_HMMActual","","","","","","null","","","","Images/BlackBeadChoiceCorrect.png","","null"
"image-button-response","251","786722","0.0-13.0-0.64","19","Low_HMMActual","","","","","","90.09999999403954","","","","Images/NewTrialBC.png","","0"
"image-button-response","252","787024","0.0-13.0-1.64","19","Low_HMMActual","","","","","","null","","","","Images/BlackBeadChoice.png","","null"
"image-button-response","253","787528","0.0-13.0-2.64","19","Low_HMMActual","","","","","","null","","","","Images/BlackBeadChoiceWrong.png","","null"
"image-button-response","254","787960","0.0-13.0-0.65","19","Low_HMMActual","","","","","","430.2999999821186","","","","Images/NewTrialWC.png","","2"
"image-button-response","255","788276","0.0-13.0-1.65","19","Low_HMMActual","","","","","","null","","","","Images/WhiteBeadChoice.png","","null"
"image-button-response","256","788778","0.0-13.0-2.65","19","Low_HMMActual","","","","","","null","","","","Images/WhiteBeadChoiceWrong.png","","null"
"image-button-response","257","789386","0.0-13.0-0.66","19","Low_HMMActual","","","","","","605.7999999821186","","","","Images/NewTrialBC.png","","0"
"image-button-response","258","789688","0.0-13.0-1.66","19","Low_HMMActual","","","","","","null","","","","Images/BlackBeadChoice.png","","null"
"image-button-response","259","790190","0.0-13.0-2.66","19","Low_HMMActual","","","","","","null","","","","Images/BlackBeadChoiceCorrect.png","","null"
"image-button-response","260","790716","0.0-13.0-0.67","19","Low_HMMActual","","","","","","522.9000000059605","","","","Images/NewTrialBC.png","","0"
"image-button-response","261","791024","0.0-13.0-1.67","19","Low_HMMActual","","","","","","null","","","","Images/BlackBeadChoice.png","","null"
"image-button-response","262","791526","0.0-13.0-2.67","19","Low_HMMActual","","","","","","null","","","","Images/BlackBeadChoiceCorrect.png","","null"
"image-button-response","263","791804","0.0-13.0-0.68","19","Low_HMMActual","","","","","","275.59999999403954","","","","Images/NewTrialBC.png","","0"
"image-button-response","264","792106","0.0-13.0-1.68","19","Low_HMMActual","","","","","","null","","","","Images/BlackBeadChoice.png","","null"
"image-button-response","265","792608","0.0-13.0-2.68","19","Low_HMMActual","","","","","","null","","","","Images/BlackBeadChoiceWrong.png","","null"
"image-button-response","266","792950","0.0-13.0-0.69","19","Low_HMMActual","","","","","","340.90000000596046","","","","Images/NewTrialWC.png","","2"
"image-button-response","267","793252","0.0-13.0-1.69","19","Low_HMMActual","","","","","","null","","","","Images/WhiteBeadChoice.png","","null"
"image-button-response","268","793765","0.0-13.0-2.69","19","Low_HMMActual","","","","","","null","","","","Images/WhiteBeadChoiceWrong.png","","null"
"image-button-response","269","794660","0.0-13.0-0.70","19","Low_HMMActual","","","","","","891","","","","Images/NewTrialBC.png","","0"
"image-button-response","270","794970","0.0-13.0-1.70","19","Low_HMMActual","","","","","","null","","","","Images/BlackBeadChoice.png","","null"
"image-button-response","271","795472","0.0-13.0-2.70","19","Low_HMMActual","","","","","","null","","","","Images/BlackBeadChoiceWrong.png","","null"
"image-button-response","272","795748","0.0-13.0-0.71","19","Low_HMMActual","","","","","","274","","","","Images/NewTrialWC.png","","2"
"image-button-response","273","796050","0.0-13.0-1.71","19","Low_HMMActual","","","","","","null","","","","Images/WhiteBeadChoice.png","","null"
"image-button-response","274","796552","0.0-13.0-2.71","19","Low_HMMActual","","","","","","null","","","","Images/WhiteBeadChoiceWrong.png","","null"
"image-button-response","275","796650","0.0-13.0-0.72","19","Low_HMMActual","","","","","","95.7999999821186","","","","Images/NewTrialBC.png","","0"
"image-button-response","276","796954","0.0-13.0-1.72","19","Low_HMMActual","","","","","","null","","","","Images/BlackBeadChoice.png","","null"
"image-button-response","277","797463","0.0-13.0-2.72","19","Low_HMMActual","","","","","","null","","","","Images/BlackBeadChoiceCorrect.png","","null"
"image-button-response","278","797876","0.0-13.0-0.73","19","Low_HMMActual","","","","","","409.30000001192093","","","","Images/NewTrialBC.png","","0"
"image-button-response","279","798178","0.0-13.0-1.73","19","Low_HMMActual","","","","","","null","","","","Images/BlackBeadChoice.png","","null"
"image-button-response","280","798680","0.0-13.0-2.73","19","Low_HMMActual","","","","","","null","","","","Images/BlackBeadChoiceCorrect.png","","null"
"image-button-response","281","798868","0.0-13.0-0.74","19","Low_HMMActual","","","","","","185.90000000596046","","","","Images/NewTrialBC.png","","0"
"image-button-response","282","799170","0.0-13.0-1.74","19","Low_HMMActual","","","","","","null","","","","Images/BlackBeadChoice.png","","null"
"image-button-response","283","799672","0.0-13.0-2.74","19","Low_HMMActual","","","","","","null","","","","Images/BlackBeadChoiceCorrect.png","","null"
"image-button-response","284","800004","0.0-13.0-0.75","19","Low_HMMActual","","","","","","329.7999999821186","","","","Images/NewTrialBC.png","","0"
"image-button-response","285","800305","0.0-13.0-1.75","19","Low_HMMActual","","","","","","null","","","","Images/BlackBeadChoice.png","","null"
"image-button-response","286","800807","0.0-13.0-2.75","19","Low_HMMActual","","","","","","null","","","","Images/BlackBeadChoiceCorrect.png","","null"
"image-button-response","287","801176","0.0-13.0-0.76","19","Low_HMMActual","","","","","","366.90000000596046","","","","Images/NewTrialBC.png","","0"
"image-button-response","288","801478","0.0-13.0-1.76","19","Low_HMMActual","","","","","","null","","","","Images/BlackBeadChoice.png","","null"
"image-button-response","289","801981","0.0-13.0-2.76","19","Low_HMMActual","","","","","","null","","","","Images/BlackBeadChoiceCorrect.png","","null"
"image-button-response","290","802272","0.0-13.0-0.77","19","Low_HMMActual","","","","","","288.7999999821186","","","","Images/NewTrialBC.png","","0"
"image-button-response","291","802573","0.0-13.0-1.77","19","Low_HMMActual","","","","","","null","","","","Images/BlackBeadChoice.png","","null"
"image-button-response","292","803077","0.0-13.0-2.77","19","Low_HMMActual","","","","","","null","","","","Images/BlackBeadChoiceWrong.png","","null"
"image-button-response","293","803220","0.0-13.0-0.78","19","Low_HMMActual","","","","","","142.19999998807907","","","","Images/NewTrialWC.png","","2"
"image-button-response","294","803521","0.0-13.0-1.78","19","Low_HMMActual","","","","","","null","","","","Images/WhiteBeadChoice.png","","null"
"image-button-response","295","804022","0.0-13.0-2.78","19","Low_HMMActual","","","","","","null","","","","Images/WhiteBeadChoiceWrong.png","","null"
"image-button-response","296","804136","0.0-13.0-0.79","19","Low_HMMActual","","","","","","111.5","","","","Images/NewTrialBC.png","","0"
"image-button-response","297","804437","0.0-13.0-1.79","19","Low_HMMActual","","","","","","null","","","","Images/BlackBeadChoice.png","","null"
"image-button-response","298","804939","0.0-13.0-2.79","19","Low_HMMActual","","","","","","null","","","","Images/BlackBeadChoiceCorrect.png","","null"
"image-button-response","299","805298","0.0-13.0-0.80","19","Low_HMMActual","","","","","","356.89999997615814","","","","Images/NewTrialBC.png","","0"
"image-button-response","300","805602","0.0-13.0-1.80","19","Low_HMMActual","","","","","","null","","","","Images/BlackBeadChoice.png","","null"
"image-button-response","301","806104","0.0-13.0-2.80","19","Low_HMMActual","","","","","","null","","","","Images/BlackBeadChoiceWrong.png","","null"
"image-button-response","302","806184","0.0-13.0-0.81","19","Low_HMMActual","","","","","","78.5","","","","Images/NewTrialWC.png","","2"
"image-button-response","303","806485","0.0-13.0-1.81","19","Low_HMMActual","","","","","","null","","","","Images/WhiteBeadChoice.png","","null"
"image-button-response","304","806986","0.0-13.0-2.81","19","Low_HMMActual","","","","","","null","","","","Images/WhiteBeadChoiceCorrect.png","","null"
"image-button-response","305","807098","0.0-13.0-0.82","19","Low_HMMActual","","","","","","110.69999998807907","","","","Images/NewTrialWC.png","","2"
"image-button-response","306","807400","0.0-13.0-1.82","19","Low_HMMActual","","","","","","null","","","","Images/WhiteBeadChoice.png","","null"
"image-button-response","307","807902","0.0-13.0-2.82","19","Low_HMMActual","","","","","","null","","","","Images/WhiteBeadChoiceWrong.png","","null"
"image-button-response","308","808092","0.0-13.0-0.83","19","Low_HMMActual","","","","","","187.19999998807907","","","","Images/NewTrialBC.png","","0"
"image-button-response","309","808393","0.0-13.0-1.83","19","Low_HMMActual","","","","","","null","","","","Images/BlackBeadChoice.png","","null"
"image-button-response","310","808896","0.0-13.0-2.83","19","Low_HMMActual","","","","","","null","","","","Images/BlackBeadChoiceCorrect.png","","null"
"image-button-response","311","809512","0.0-13.0-0.84","19","Low_HMMActual","","","","","","613.5","","","","Images/NewTrialBC.png","","0"
"image-button-response","312","809813","0.0-13.0-1.84","19","Low_HMMActual","","","","","","null","","","","Images/BlackBeadChoice.png","","null"
"image-button-response","313","810320","0.0-13.0-2.84","19","Low_HMMActual","","","","","","504.5","","","","Images/BlackBeadChoiceCorrect.png","","0"
"image-button-response","314","810948","0.0-13.0-0.85","19","Low_HMMActual","","","","","","626.2999999821186","","","","Images/NewTrialBC.png","","0"
"image-button-response","315","811258","0.0-13.0-1.85","19","Low_HMMActual","","","","","","null","","","","Images/BlackBeadChoice.png","","null"
"image-button-response","316","811775","0.0-13.0-2.85","19","Low_HMMActual","","","","","","null","","","","Images/BlackBeadChoiceCorrect.png","","null"
"image-button-response","317","812460","0.0-13.0-0.86","19","Low_HMMActual","","","","","","683.4000000059605","","","","Images/NewTrialBC.png","","0"
"image-button-response","318","812769","0.0-13.0-1.86","19","Low_HMMActual","","","","","","null","","","","Images/BlackBeadChoice.png","","null"
"image-button-response","319","813272","0.0-13.0-2.86","19","Low_HMMActual","","","","","","null","","","","Images/BlackBeadChoiceWrong.png","","null"
"image-button-response","320","816846","0.0-13.0-0.87","19","Low_HMMActual","","","","","","3572.199999988079","","","","Images/NewTrialWC.png","","2"
"image-button-response","321","817153","0.0-13.0-1.87","19","Low_HMMActual","","","","","","null","","","","Images/WhiteBeadChoice.png","","null"
"image-button-response","322","817662","0.0-13.0-2.87","19","Low_HMMActual","","","","","","null","","","","Images/WhiteBeadChoiceCorrect.png","","null"
"image-button-response","323","818302","0.0-13.0-0.88","19","Low_HMMActual","","","","","","637.6999999880791","","","","Images/NewTrialWC.png","","2"
"image-button-response","324","818603","0.0-13.0-1.88","19","Low_HMMActual","","","","","","null","","","","Images/WhiteBeadChoice.png","","null"
"image-button-response","325","819112","0.0-13.0-2.88","19","Low_HMMActual","","","","","","null","","","","Images/WhiteBeadChoiceCorrect.png","","null"
"image-button-response","326","819478","0.0-13.0-0.89","19","Low_HMMActual","","","","","","363.7000000178814","","","","Images/NewTrialWC.png","","2"
"image-button-response","327","819793","0.0-13.0-1.89","19","Low_HMMActual","","","","","","null","","","","Images/WhiteBeadChoice.png","","null"
"image-button-response","328","820295","0.0-13.0-2.89","19","Low_HMMActual","","","","","","null","","","","Images/WhiteBeadChoiceWrong.png","","null"
"image-button-response","329","820960","0.0-13.0-0.90","19","Low_HMMActual","","","","","","663","","","","Images/NewTrialBC.png","","0"
"image-button-response","330","821275","0.0-13.0-1.90","19","Low_HMMActual","","","","","","null","","","","Images/BlackBeadChoice.png","","null"
"image-button-response","331","821781","0.0-13.0-2.90","19","Low_HMMActual","","","","","","null","","","","Images/BlackBeadChoiceCorrect.png","","null"
"image-button-response","332","821968","0.0-13.0-0.91","19","Low_HMMActual","","","","","","184.40000000596046","","","","Images/NewTrialBC.png","","0"
"image-button-response","333","822271","0.0-13.0-1.91","19","Low_HMMActual","","","","","","null","","","","Images/BlackBeadChoice.png","","null"
"image-button-response","334","822793","0.0-13.0-2.91","19","Low_HMMActual","","","","","","null","","","","Images/BlackBeadChoiceCorrect.png","","null"
"image-button-response","335","822928","0.0-13.0-0.92","19","Low_HMMActual","","","","","","132.80000001192093","","","","Images/NewTrialBC.png","","0"
"image-button-response","336","823235","0.0-13.0-1.92","19","Low_HMMActual","","","","","","null","","","","Images/BlackBeadChoice.png","","null"
"image-button-response","337","823737","0.0-13.0-2.92","19","Low_HMMActual","","","","","","null","","","","Images/BlackBeadChoiceWrong.png","","null"
"image-button-response","338","824286","0.0-13.0-0.93","19","Low_HMMActual","","","","","","548.1999999880791","","","","Images/NewTrialWC.png","","2"
"image-button-response","339","824587","0.0-13.0-1.93","19","Low_HMMActual","","","","","","null","","","","Images/WhiteBeadChoice.png","","null"
"image-button-response","340","825091","0.0-13.0-2.93","19","Low_HMMActual","","","","","","null","","","","Images/WhiteBeadChoiceCorrect.png","","null"
"image-button-response","341","825882","0.0-13.0-0.94","19","Low_HMMActual","","","","","","788.7999999821186","","","","Images/NewTrialWC.png","","2"
"image-button-response","342","826198","0.0-13.0-1.94","19","Low_HMMActual","","","","","","null","","","","Images/WhiteBeadChoice.png","","null"
"image-button-response","343","826700","0.0-13.0-2.94","19","Low_HMMActual","","","","","","null","","","","Images/WhiteBeadChoiceWrong.png","","null"
"image-button-response","344","827224","0.0-13.0-0.95","19","Low_HMMActual","","","","","","522.1999999880791","","","","Images/NewTrialBC.png","","0"
"image-button-response","345","827525","0.0-13.0-1.95","19","Low_HMMActual","","","","","","null","","","","Images/BlackBeadChoice.png","","null"
"image-button-response","346","828027","0.0-13.0-2.95","19","Low_HMMActual","","","","","","null","","","","Images/BlackBeadChoiceCorrect.png","","null"
"image-button-response","347","828590","0.0-13.0-0.96","19","Low_HMMActual","","","","","","560.4000000059605","","","","Images/NewTrialBC.png","","0"
"image-button-response","348","828903","0.0-13.0-1.96","19","Low_HMMActual","","","","","","null","","","","Images/BlackBeadChoice.png","","null"
"image-button-response","349","829408","0.0-13.0-2.96","19","Low_HMMActual","","","","","","null","","","","Images/BlackBeadChoiceCorrect.png","","null"
"image-button-response","350","829554","0.0-13.0-0.97","19","Low_HMMActual","","","","","","142.10000002384186","","","","Images/NewTrialBC.png","","0"
"image-button-response","351","829870","0.0-13.0-1.97","19","Low_HMMActual","","","","","","null","","","","Images/BlackBeadChoice.png","","null"
"image-button-response","352","830373","0.0-13.0-2.97","19","Low_HMMActual","","","","","","null","","","","Images/BlackBeadChoiceCorrect.png","","null"
"image-button-response","353","831049","0.0-13.0-0.98","19","Low_HMMActual","","","","","","674.7000000178814","","","","Images/NewTrialBC.png","","0"
"image-button-response","354","831364","0.0-13.0-1.98","19","Low_HMMActual","","","","","","null","","","","Images/BlackBeadChoice.png","","null"
"image-button-response","355","831865","0.0-13.0-2.98","19","Low_HMMActual","","","","","","null","","","","Images/BlackBeadChoiceWrong.png","","null"
"image-button-response","356","832340","0.0-13.0-0.99","19","Low_HMMActual","","","","","","473","","","","Images/NewTrialWC.png","","2"
"image-button-response","357","832646","0.0-13.0-1.99","19","Low_HMMActual","","","","","","null","","","","Images/WhiteBeadChoice.png","","null"
"image-button-response","358","833149","0.0-13.0-2.99","19","Low_HMMActual","","","","","","null","","","","Images/WhiteBeadChoiceWrong.png","","null"
"image-button-response","359","833439","0.0-13.0-0.100","19","Low_HMMActual","","","","","","289.40000000596046","","","","Images/NewTrialBC.png","","0"
"image-button-response","360","833756","0.0-13.0-1.100","19","Low_HMMActual","","","","","","null","","","","Images/BlackBeadChoice.png","","null"
"image-button-response","361","834259","0.0-13.0-2.100","19","Low_HMMActual","","","","","","null","","","","Images/BlackBeadChoiceWrong.png","","null"
"image-button-response","362","834562","0.0-13.0-0.101","19","Low_HMMActual","","","","","","301.09999999403954","","","","Images/NewTrialWC.png","","2"
"image-button-response","363","834869","0.0-13.0-1.101","19","Low_HMMActual","","","","","","null","","","","Images/WhiteBeadChoice.png","","null"
"image-button-response","364","835371","0.0-13.0-2.101","19","Low_HMMActual","","","","","","null","","","","Images/WhiteBeadChoiceCorrect.png","","null"
"image-button-response","365","835840","0.0-13.0-0.102","19","Low_HMMActual","","","","","","466.5","","","","Images/NewTrialWC.png","","2"
"image-button-response","366","836142","0.0-13.0-1.102","19","Low_HMMActual","","","","","","null","","","","Images/WhiteBeadChoice.png","","null"
"image-button-response","367","836659","0.0-13.0-2.102","19","Low_HMMActual","","","","","","430","","","","Images/WhiteBeadChoiceCorrect.png","","2"
"image-button-response","368","837088","0.0-13.0-0.103","19","Low_HMMActual","","","","","","427.19999998807907","","","","Images/NewTrialWC.png","","2"
"image-button-response","369","837389","0.0-13.0-1.103","19","Low_HMMActual","","","","","","null","","","","Images/WhiteBeadChoice.png","","null"
"image-button-response","370","837892","0.0-13.0-2.103","19","Low_HMMActual","","","","","","null","","","","Images/WhiteBeadChoiceWrong.png","","null"
"image-button-response","371","838480","0.0-13.0-0.104","19","Low_HMMActual","","","","","","586","","","","Images/NewTrialBC.png","","0"
"image-button-response","372","838782","0.0-13.0-1.104","19","Low_HMMActual","","","","","","null","","","","Images/BlackBeadChoice.png","","null"
"image-button-response","373","839286","0.0-13.0-2.104","19","Low_HMMActual","","","","","","null","","","","Images/BlackBeadChoiceWrong.png","","null"
"image-button-response","374","840110","0.0-13.0-0.105","19","Low_HMMActual","","","","","","822.0999999940395","","","","Images/NewTrialWC.png","","2"
"image-button-response","375","840417","0.0-13.0-1.105","19","Low_HMMActual","","","","","","null","","","","Images/WhiteBeadChoice.png","","null"
"image-button-response","376","840920","0.0-13.0-2.105","19","Low_HMMActual","","","","","","null","","","","Images/WhiteBeadChoiceCorrect.png","","null"
"image-button-response","377","841578","0.0-13.0-0.106","19","Low_HMMActual","","","","","","655.9000000059605","","","","Images/NewTrialWC.png","","2"
"image-button-response","378","841879","0.0-13.0-1.106","19","Low_HMMActual","","","","","","null","","","","Images/WhiteBeadChoice.png","","null"
"image-button-response","379","842381","0.0-13.0-2.106","19","Low_HMMActual","","","","","","484.69999998807907","","","","Images/WhiteBeadChoiceCorrect.png","","2"
"image-button-response","380","842810","0.0-13.0-0.107","19","Low_HMMActual","","","","","","427","","","","Images/NewTrialWC.png","","2"
"image-button-response","381","843112","0.0-13.0-1.107","19","Low_HMMActual","","","","","","null","","","","Images/WhiteBeadChoice.png","","null"
"image-button-response","382","843622","0.0-13.0-2.107","19","Low_HMMActual","","","","","","null","","","","Images/WhiteBeadChoiceCorrect.png","","null"
"image-button-response","383","843808","0.0-13.0-0.108","19","Low_HMMActual","","","","","","182.19999998807907","","","","Images/NewTrialWC.png","","2"
"image-button-response","384","844116","0.0-13.0-1.108","19","Low_HMMActual","","","","","","null","","","","Images/WhiteBeadChoice.png","","null"
"image-button-response","385","844629","0.0-13.0-2.108","19","Low_HMMActual","","","","","","null","","","","Images/WhiteBeadChoiceCorrect.png","","null"
"image-button-response","386","845232","0.0-13.0-0.109","19","Low_HMMActual","","","","","","600.4000000059605","","","","Images/NewTrialWC.png","","2"
"image-button-response","387","845538","0.0-13.0-1.109","19","Low_HMMActual","","","","","","null","","","","Images/WhiteBeadChoice.png","","null"
"image-button-response","388","846048","0.0-13.0-2.109","19","Low_HMMActual","","","","","","null","","","","Images/WhiteBeadChoiceCorrect.png","","null"
"image-button-response","389","846304","0.0-13.0-0.110","19","Low_HMMActual","","","","","","253.5","","","","Images/NewTrialWC.png","","2"
"image-button-response","390","846620","0.0-13.0-1.110","19","Low_HMMActual","","","","","","null","","","","Images/WhiteBeadChoice.png","","null"
"image-button-response","391","847123","0.0-13.0-2.110","19","Low_HMMActual","","","","","","null","","","","Images/WhiteBeadChoiceWrong.png","","null"
"image-button-response","392","847506","0.0-13.0-0.111","19","Low_HMMActual","","","","","","381.5","","","","Images/NewTrialBC.png","","0"
"image-button-response","393","847813","0.0-13.0-1.111","19","Low_HMMActual","","","","","","null","","","","Images/BlackBeadChoice.png","","null"
"image-button-response","394","848340","0.0-13.0-2.111","19","Low_HMMActual","","","","","","null","","","","Images/BlackBeadChoiceCorrect.png","","null"
"image-button-response","395","848798","0.0-13.0-0.112","19","Low_HMMActual","","","","","","455.40000000596046","","","","Images/NewTrialBC.png","","0"
"image-button-response","396","849100","0.0-13.0-1.112","19","Low_HMMActual","","","","","","null","","","","Images/BlackBeadChoice.png","","null"
"image-button-response","397","849602","0.0-13.0-2.112","19","Low_HMMActual","","","","","","null","","","","Images/BlackBeadChoiceWrong.png","","null"
"image-button-response","398","850216","0.0-13.0-0.113","19","Low_HMMActual","","","","","","612","","","","Images/NewTrialWC.png","","2"
"image-button-response","399","850517","0.0-13.0-1.113","19","Low_HMMActual","","","","","","null","","","","Images/WhiteBeadChoice.png","","null"
"image-button-response","400","851024","0.0-13.0-2.113","19","Low_HMMActual","","","","","","null","","","","Images/WhiteBeadChoiceCorrect.png","","null"
"image-button-response","401","851200","0.0-13.0-0.114","19","Low_HMMActual","","","","","","174.30000001192093","","","","Images/NewTrialWC.png","","2"
"image-button-response","402","851507","0.0-13.0-1.114","19","Low_HMMActual","","","","","","null","","","","Images/WhiteBeadChoice.png","","null"
"image-button-response","403","852010","0.0-13.0-2.114","19","Low_HMMActual","","","","","","null","","","","Images/WhiteBeadChoiceCorrect.png","","null"
"image-button-response","404","852126","0.0-13.0-0.115","19","Low_HMMActual","","","","","","103.30000001192093","","","","Images/NewTrialWC.png","","2"
"image-button-response","405","852442","0.0-13.0-1.115","19","Low_HMMActual","","","","","","null","","","","Images/WhiteBeadChoice.png","","null"
"image-button-response","406","852944","0.0-13.0-2.115","19","Low_HMMActual","","","","","","null","","","","Images/WhiteBeadChoiceCorrect.png","","null"
"image-button-response","407","853110","0.0-13.0-0.116","19","Low_HMMActual","","","","","","163.30000001192093","","","","Images/NewTrialWC.png","","2"
"image-button-response","408","853416","0.0-13.0-1.116","19","Low_HMMActual","","","","","","null","","","","Images/WhiteBeadChoice.png","","null"
"image-button-response","409","853919","0.0-13.0-2.116","19","Low_HMMActual","","","","","","null","","","","Images/WhiteBeadChoiceWrong.png","","null"
"image-button-response","410","854316","0.0-13.0-0.117","19","Low_HMMActual","","","","","","393.7999999821186","","","","Images/NewTrialBC.png","","0"
"image-button-response","411","854620","0.0-13.0-1.117","19","Low_HMMActual","","","","","","null","","","","Images/BlackBeadChoice.png","","null"
"image-button-response","412","855123","0.0-13.0-2.117","19","Low_HMMActual","","","","","","442.7000000178814","","","","Images/BlackBeadChoiceCorrect.png","","0"
"image-button-response","413","855482","0.0-13.0-0.118","19","Low_HMMActual","","","","","","356.80000001192093","","","","Images/NewTrialBC.png","","0"
"image-button-response","414","855798","0.0-13.0-1.118","19","Low_HMMActual","","","","","","null","","","","Images/BlackBeadChoice.png","","null"
"image-button-response","415","856304","0.0-13.0-2.118","19","Low_HMMActual","","","","","","null","","","","Images/BlackBeadChoiceCorrect.png","","null"
"image-button-response","416","856492","0.0-13.0-0.119","19","Low_HMMActual","","","","","","185.30000001192093","","","","Images/NewTrialBC.png","","0"
"image-button-response","417","856797","0.0-13.0-1.119","19","Low_HMMActual","","","","","","null","","","","Images/BlackBeadChoice.png","","null"
"image-button-response","418","857303","0.0-13.0-2.119","19","Low_HMMActual","","","","","","421","","","","Images/BlackBeadChoiceCorrect.png","","0"
"image-button-response","419","857578","0.0-13.0-0.120","19","Low_HMMActual","","","","","","272.2999999821186","","","","Images/NewTrialBC.png","","0"
"image-button-response","420","857894","0.0-13.0-1.120","19","Low_HMMActual","","","","","","null","","","","Images/BlackBeadChoice.png","","null"
"image-button-response","421","858396","0.0-13.0-2.120","19","Low_HMMActual","","","","","","null","","","","Images/BlackBeadChoiceWrong.png","","null"
"image-button-response","422","858804","0.0-13.0-0.121","19","Low_HMMActual","","","","","","407","","","","Images/NewTrialWC.png","","2"
"image-button-response","423","859113","0.0-13.0-1.121","19","Low_HMMActual","","","","","","null","","","","Images/WhiteBeadChoice.png","","null"
"image-button-response","424","859623","0.0-13.0-2.121","19","Low_HMMActual","","","","","","437.30000001192093","","","","Images/WhiteBeadChoiceCorrect.png","","2"
"image-button-response","425","860046","0.0-13.0-0.122","19","Low_HMMActual","","","","","","421.2000000178814","","","","Images/NewTrialWC.png","","2"
"image-button-response","426","860357","0.0-13.0-1.122","19","Low_HMMActual","","","","","","null","","","","Images/WhiteBeadChoice.png","","null"
"image-button-response","427","860860","0.0-13.0-2.122","19","Low_HMMActual","","","","","","483.2000000178814","","","","Images/WhiteBeadChoiceCorrect.png","","2"
"image-button-response","428","861334","0.0-13.0-0.123","19","Low_HMMActual","","","","","","472.5","","","","Images/NewTrialWC.png","","2"
"image-button-response","429","861638","0.0-13.0-1.123","19","Low_HMMActual","","","","","","null","","","","Images/WhiteBeadChoice.png","","null"
"image-button-response","430","862142","0.0-13.0-2.123","19","Low_HMMActual","","","","","","null","","","","Images/WhiteBeadChoiceWrong.png","","null"
"image-button-response","431","862622","0.0-13.0-0.124","19","Low_HMMActual","","","","","","478.40000000596046","","","","Images/NewTrialBC.png","","0"
"image-button-response","432","862923","0.0-13.0-1.124","19","Low_HMMActual","","","","","","null","","","","Images/BlackBeadChoice.png","","null"
"image-button-response","433","863434","0.0-13.0-2.124","19","Low_HMMActual","","","","","","null","","","","Images/BlackBeadChoiceCorrect.png","","null"
"image-button-response","434","863936","0.0-13.0-0.125","19","Low_HMMActual","","","","","","500.09999999403954","","","","Images/NewTrialBC.png","","0"
"image-button-response","435","864242","0.0-13.0-1.125","19","Low_HMMActual","","","","","","null","","","","Images/BlackBeadChoice.png","","null"
"image-button-response","436","864744","0.0-13.0-2.125","19","Low_HMMActual","","","","","","null","","","","Images/BlackBeadChoiceWrong.png","","null"
"image-button-response","437","865230","0.0-13.0-0.126","19","Low_HMMActual","","","","","","484.5","","","","Images/NewTrialWC.png","","2"
"image-button-response","438","865531","0.0-13.0-1.126","19","Low_HMMActual","","","","","","null","","","","Images/WhiteBeadChoice.png","","null"
"image-button-response","439","866034","0.0-13.0-2.126","19","Low_HMMActual","","","","","","null","","","","Images/WhiteBeadChoiceWrong.png","","null"
"image-button-response","440","866298","0.0-13.0-0.127","19","Low_HMMActual","","","","","","261.80000001192093","","","","Images/NewTrialBC.png","","0"
"image-button-response","441","866599","0.0-13.0-1.127","19","Low_HMMActual","","","","","","null","","","","Images/BlackBeadChoice.png","","null"
"image-button-response","442","867103","0.0-13.0-2.127","19","Low_HMMActual","","","","","","null","","","","Images/BlackBeadChoiceCorrect.png","","null"
"image-button-response","443","867384","0.0-13.0-0.128","19","Low_HMMActual","","","","","","279.40000000596046","","","","Images/NewTrialBC.png","","0"
"image-button-response","444","867686","0.0-13.0-1.128","19","Low_HMMActual","","","","","","null","","","","Images/BlackBeadChoice.png","","null"
"image-button-response","445","868188","0.0-13.0-2.128","19","Low_HMMActual","","","","","","null","","","","Images/BlackBeadChoiceCorrect.png","","null"
"image-button-response","446","868388","0.0-13.0-0.129","19","Low_HMMActual","","","","","","197","","","","Images/NewTrialBC.png","","0"
"image-button-response","447","868689","0.0-13.0-1.129","19","Low_HMMActual","","","","","","null","","","","Images/BlackBeadChoice.png","","null"
"image-button-response","448","869192","0.0-13.0-2.129","19","Low_HMMActual","","","","","","null","","","","Images/BlackBeadChoiceCorrect.png","","null"
"image-button-response","449","869444","0.0-13.0-0.130","19","Low_HMMActual","","","","","","250.2999999821186","","","","Images/NewTrialBC.png","","0"
"image-button-response","450","869745","0.0-13.0-1.130","19","Low_HMMActual","","","","","","null","","","","Images/BlackBeadChoice.png","","null"
"image-button-response","451","870251","0.0-13.0-2.130","19","Low_HMMActual","","","","","","null","","","","Images/BlackBeadChoiceCorrect.png","","null"
"image-button-response","452","870542","0.0-13.0-0.131","19","Low_HMMActual","","","","","","289.30000001192093","","","","Images/NewTrialBC.png","","0"
"image-button-response","453","870856","0.0-13.0-1.131","19","Low_HMMActual","","","","","","null","","","","Images/BlackBeadChoice.png","","null"
"image-button-response","454","871359","0.0-13.0-2.131","19","Low_HMMActual","","","","","","null","","","","Images/BlackBeadChoiceCorrect.png","","null"
"image-button-response","455","871880","0.0-13.0-0.132","19","Low_HMMActual","","","","","","518.6000000238419","","","","Images/NewTrialBC.png","","0"
"image-button-response","456","872181","0.0-13.0-1.132","19","Low_HMMActual","","","","","","null","","","","Images/BlackBeadChoice.png","","null"
"image-button-response","457","872683","0.0-13.0-2.132","19","Low_HMMActual","","","","","","null","","","","Images/BlackBeadChoiceCorrect.png","","null"
"image-button-response","458","873162","0.0-13.0-0.133","19","Low_HMMActual","","","","","","476.2999999821186","","","","Images/NewTrialBC.png","","0"
"image-button-response","459","873479","0.0-13.0-1.133","19","Low_HMMActual","","","","","","null","","","","Images/BlackBeadChoice.png","","null"
"image-button-response","460","873992","0.0-13.0-2.133","19","Low_HMMActual","","","","","","null","","","","Images/BlackBeadChoiceCorrect.png","","null"
"image-button-response","461","874270","0.0-13.0-0.134","19","Low_HMMActual","","","","","","276","","","","Images/NewTrialBC.png","","0"
"image-button-response","462","874572","0.0-13.0-1.134","19","Low_HMMActual","","","","","","null","","","","Images/BlackBeadChoice.png","","null"
"image-button-response","463","875087","0.0-13.0-2.134","19","Low_HMMActual","","","","","","null","","","","Images/BlackBeadChoiceCorrect.png","","null"
"image-button-response","464","875367","0.0-13.0-0.135","19","Low_HMMActual","","","","","","272.59999999403954","","","","Images/NewTrialBC.png","","0"
"image-button-response","465","875669","0.0-13.0-1.135","19","Low_HMMActual","","","","","","null","","","","Images/BlackBeadChoice.png","","null"
"image-button-response","466","876178","0.0-13.0-2.135","19","Low_HMMActual","","","","","","null","","","","Images/BlackBeadChoiceWrong.png","","null"
"image-button-response","467","879100","0.0-13.0-0.136","19","Low_HMMActual","","","","","","2920.100000023842","","","","Images/NewTrialWC.png","","0"
"image-button-response","468","879411","0.0-13.0-1.136","19","Low_HMMActual","","","","","","null","","","","Images/BlackBeadChoice.png","","null"
"image-button-response","469","879914","0.0-13.0-2.136","19","Low_HMMActual","","","","","","null","","","","Images/BlackBeadChoiceWrong.png","","null"
"image-button-response","470","880320","0.0-13.0-0.137","19","Low_HMMActual","","","","","","403.69999998807907","","","","Images/NewTrialWC.png","","2"
"image-button-response","471","880622","0.0-13.0-1.137","19","Low_HMMActual","","","","","","null","","","","Images/WhiteBeadChoice.png","","null"
"image-button-response","472","881124","0.0-13.0-2.137","19","Low_HMMActual","","","","","","null","","","","Images/WhiteBeadChoiceCorrect.png","","null"
"image-button-response","473","881758","0.0-13.0-0.138","19","Low_HMMActual","","","","","","632.3000000119209","","","","Images/NewTrialWC.png","","2"
"image-button-response","474","882074","0.0-13.0-1.138","19","Low_HMMActual","","","","","","null","","","","Images/WhiteBeadChoice.png","","null"
"image-button-response","475","882576","0.0-13.0-2.138","19","Low_HMMActual","","","","","","null","","","","Images/WhiteBeadChoiceCorrect.png","","null"
"image-button-response","476","883088","0.0-13.0-0.139","19","Low_HMMActual","","","","","","510.09999999403954","","","","Images/NewTrialWC.png","","2"
"image-button-response","477","883390","0.0-13.0-1.139","19","Low_HMMActual","","","","","","null","","","","Images/WhiteBeadChoice.png","","null"
"image-button-response","478","883904","0.0-13.0-2.139","19","Low_HMMActual","","","","","","null","","","","Images/WhiteBeadChoiceCorrect.png","","null"
"image-button-response","479","884482","0.0-13.0-0.140","19","Low_HMMActual","","","","","","575.3999999761581","","","","Images/NewTrialWC.png","","2"
"image-button-response","480","884797","0.0-13.0-1.140","19","Low_HMMActual","","","","","","null","","","","Images/WhiteBeadChoice.png","","null"
"image-button-response","481","885300","0.0-13.0-2.140","19","Low_HMMActual","","","","","","null","","","","Images/WhiteBeadChoiceCorrect.png","","null"
"image-button-response","482","885820","0.0-13.0-0.141","19","Low_HMMActual","","","","","","517.9000000059605","","","","Images/NewTrialWC.png","","2"
"image-button-response","483","886124","0.0-13.0-1.141","19","Low_HMMActual","","","","","","null","","","","Images/WhiteBeadChoice.png","","null"
"image-button-response","484","886626","0.0-13.0-2.141","19","Low_HMMActual","","","","","","null","","","","Images/WhiteBeadChoiceCorrect.png","","null"
"image-button-response","485","887132","0.0-13.0-0.142","19","Low_HMMActual","","","","","","503.09999999403954","","","","Images/NewTrialWC.png","","2"
"image-button-response","486","887439","0.0-13.0-1.142","19","Low_HMMActual","","","","","","null","","","","Images/WhiteBeadChoice.png","","null"
"image-button-response","487","887947","0.0-13.0-2.142","19","Low_HMMActual","","","","","","null","","","","Images/WhiteBeadChoiceWrong.png","","null"
"image-button-response","488","889270","0.0-13.0-0.143","19","Low_HMMActual","","","","","","1318.800000011921","","","","Images/NewTrialBC.png","","0"
"image-button-response","489","889572","0.0-13.0-1.143","19","Low_HMMActual","","","","","","null","","","","Images/BlackBeadChoice.png","","null"
"image-button-response","490","890082","0.0-13.0-2.143","19","Low_HMMActual","","","","","","null","","","","Images/BlackBeadChoiceWrong.png","","null"
"image-button-response","491","890392","0.0-13.0-0.144","19","Low_HMMActual","","","","","","307.90000000596046","","","","Images/NewTrialWC.png","","0"
"image-button-response","492","890701","0.0-13.0-1.144","19","Low_HMMActual","","","","","","null","","","","Images/BlackBeadChoice.png","","null"
"image-button-response","493","891203","0.0-13.0-2.144","19","Low_HMMActual","","","","","","null","","","","Images/BlackBeadChoiceWrong.png","","null"
"image-button-response","494","891764","0.0-13.0-0.145","19","Low_HMMActual","","","","","","558.8000000119209","","","","Images/NewTrialWC.png","","2"
"image-button-response","495","892080","0.0-13.0-1.145","19","Low_HMMActual","","","","","","null","","","","Images/WhiteBeadChoice.png","","null"
"image-button-response","496","892582","0.0-13.0-2.145","19","Low_HMMActual","","","","","","null","","","","Images/WhiteBeadChoiceCorrect.png","","null"
"image-button-response","497","893162","0.0-13.0-0.146","19","Low_HMMActual","","","","","","575.5","","","","Images/NewTrialWC.png","","2"
"image-button-response","498","893472","0.0-13.0-1.146","19","Low_HMMActual","","","","","","null","","","","Images/WhiteBeadChoice.png","","null"
"image-button-response","499","893973","0.0-13.0-2.146","19","Low_HMMActual","","","","","","null","","","","Images/WhiteBeadChoiceWrong.png","","null"
"image-button-response","500","894579","0.0-13.0-0.147","19","Low_HMMActual","","","","","","605.0999999940395","","","","Images/NewTrialBC.png","","0"
"image-button-response","501","894886","0.0-13.0-1.147","19","Low_HMMActual","","","","","","null","","","","Images/BlackBeadChoice.png","","null"
"image-button-response","502","895388","0.0-13.0-2.147","19","Low_HMMActual","","","","","","null","","","","Images/BlackBeadChoiceWrong.png","","null"
"image-button-response","503","895950","0.0-13.0-0.148","19","Low_HMMActual","","","","","","559.3999999761581","","","","Images/NewTrialWC.png","","2"
"image-button-response","504","896254","0.0-13.0-1.148","19","Low_HMMActual","","","","","","null","","","","Images/WhiteBeadChoice.png","","null"
"image-button-response","505","896760","0.0-13.0-2.148","19","Low_HMMActual","","","","","","null","","","","Images/WhiteBeadChoiceCorrect.png","","null"
"image-button-response","506","902488","0.0-13.0-0.149","19","Low_HMMActual","","","","","","5725.199999988079","","","","Images/NewTrialWC.png","","2"
"image-button-response","507","902796","0.0-13.0-1.149","19","Low_HMMActual","","","","","","null","","","","Images/WhiteBeadChoice.png","","null"
"image-button-response","508","903297","0.0-13.0-2.149","19","Low_HMMActual","","","","","","null","","","","Images/WhiteBeadChoiceWrong.png","","null"
"image-button-response","509","908776","0.0-13.0-0.150","19","Low_HMMActual","","","","","","5476.200000017881","","","","Images/NewTrialBC.png","","0"
"image-button-response","510","909083","0.0-13.0-1.150","19","Low_HMMActual","","","","","","null","","","","Images/BlackBeadChoice.png","","null"
"image-button-response","511","909584","0.0-13.0-2.150","19","Low_HMMActual","","","","","","null","","","","Images/BlackBeadChoiceWrong.png","","null"
"image-button-response","512","914306","0.0-13.0-0.151","19","Low_HMMActual","","","","","","4719.899999976158","","","","Images/NewTrialWC.png","","2"
"image-button-response","513","914608","0.0-13.0-1.151","19","Low_HMMActual","","","","","","null","","","","Images/WhiteBeadChoice.png","","null"
"image-button-response","514","915111","0.0-13.0-2.151","19","Low_HMMActual","","","","","","null","","","","Images/WhiteBeadChoiceCorrect.png","","null"
"image-button-response","515","916034","0.0-13.0-0.152","19","Low_HMMActual","","","","","","918.8000000119209","","","","Images/NewTrialWC.png","","2"
"image-button-response","516","916340","0.0-13.0-1.152","19","Low_HMMActual","","","","","","null","","","","Images/WhiteBeadChoice.png","","null"
"image-button-response","517","916852","0.0-13.0-2.152","19","Low_HMMActual","","","","","","null","","","","Images/WhiteBeadChoiceCorrect.png","","null"
"image-button-response","518","917046","0.0-13.0-0.153","19","Low_HMMActual","","","","","","181.19999998807907","","","","Images/NewTrialWC.png","","2"
"image-button-response","519","917347","0.0-13.0-1.153","19","Low_HMMActual","","","","","","null","","","","Images/WhiteBeadChoice.png","","null"
"image-button-response","520","917850","0.0-13.0-2.153","19","Low_HMMActual","","","","","","null","","","","Images/WhiteBeadChoiceCorrect.png","","null"
"image-button-response","521","918291","0.0-13.0-0.154","19","Low_HMMActual","","","","","","440.09999999403954","","","","Images/NewTrialWC.png","","2"
"image-button-response","522","918595","0.0-13.0-1.154","19","Low_HMMActual","","","","","","null","","","","Images/WhiteBeadChoice.png","","null"
"image-button-response","523","919101","0.0-13.0-2.154","19","Low_HMMActual","","","","","","null","","","","Images/WhiteBeadChoiceCorrect.png","","null"
"image-button-response","524","919822","0.0-13.0-0.155","19","Low_HMMActual","","","","","","718.0999999940395","","","","Images/NewTrialWC.png","","2"
"image-button-response","525","920131","0.0-13.0-1.155","19","Low_HMMActual","","","","","","null","","","","Images/WhiteBeadChoice.png","","null"
"image-button-response","526","920641","0.0-13.0-2.155","19","Low_HMMActual","","","","","","null","","","","Images/WhiteBeadChoiceWrong.png","","null"
"image-button-response","527","932465","0.0-13.0-0.156","19","Low_HMMActual","","","","","","11823.09999999404","","","","Images/NewTrialBC.png","","0"
"image-button-response","528","932767","0.0-13.0-1.156","19","Low_HMMActual","","","","","","null","","","","Images/BlackBeadChoice.png","","null"
"image-button-response","529","933270","0.0-13.0-2.156","19","Low_HMMActual","","","","","","null","","","","Images/BlackBeadChoiceCorrect.png","","null"
"image-button-response","530","933692","0.0-13.0-0.157","19","Low_HMMActual","","","","","","419.2999999821186","","","","Images/NewTrialBC.png","","0"
"image-button-response","531","933993","0.0-13.0-1.157","19","Low_HMMActual","","","","","","null","","","","Images/BlackBeadChoice.png","","null"
"image-button-response","532","934497","0.0-13.0-2.157","19","Low_HMMActual","","","","","","null","","","","Images/BlackBeadChoiceCorrect.png","","null"
"image-button-response","533","935032","0.0-13.0-0.158","19","Low_HMMActual","","","","","","529.9000000059605","","","","Images/NewTrialBC.png","","0"
"image-button-response","534","935345","0.0-13.0-1.158","19","Low_HMMActual","","","","","","null","","","","Images/BlackBeadChoice.png","","null"
"image-button-response","535","935856","0.0-13.0-2.158","19","Low_HMMActual","","","","","","null","","","","Images/BlackBeadChoiceCorrect.png","","null"
"image-button-response","536","936128","0.0-13.0-0.159","19","Low_HMMActual","","","","","","269.89999997615814","","","","Images/NewTrialBC.png","","0"
"image-button-response","537","936441","0.0-13.0-1.159","19","Low_HMMActual","","","","","","null","","","","Images/BlackBeadChoice.png","","null"
"image-button-response","538","936947","0.0-13.0-2.159","19","Low_HMMActual","","","","","","null","","","","Images/BlackBeadChoiceCorrect.png","","null"
"image-button-response","539","937190","0.0-13.0-0.160","19","Low_HMMActual","","","","","","240","","","","Images/NewTrialBC.png","","0"
"image-button-response","540","937501","0.0-13.0-1.160","19","Low_HMMActual","","","","","","null","","","","Images/BlackBeadChoice.png","","null"
"image-button-response","541","938010","0.0-13.0-2.160","19","Low_HMMActual","","","","","","null","","","","Images/BlackBeadChoiceCorrect.png","","null"
"image-button-response","542","938325","0.0-13.0-0.161","19","Low_HMMActual","","","","","","312.90000000596046","","","","Images/NewTrialBC.png","","0"
"image-button-response","543","938627","0.0-13.0-1.161","19","Low_HMMActual","","","","","","null","","","","Images/BlackBeadChoice.png","","null"
"image-button-response","544","939135","0.0-13.0-2.161","19","Low_HMMActual","","","","","","null","","","","Images/BlackBeadChoiceWrong.png","","null"
"image-button-response","545","941545","0.0-13.0-0.162","19","Low_HMMActual","","","","","","2409.199999988079","","","","Images/NewTrialWC.png","","2"
"image-button-response","546","941847","0.0-13.0-1.162","19","Low_HMMActual","","","","","","null","","","","Images/WhiteBeadChoice.png","","null"
"image-button-response","547","942360","0.0-13.0-2.162","19","Low_HMMActual","","","","","","null","","","","Images/WhiteBeadChoiceCorrect.png","","null"
"image-button-response","548","942844","0.0-13.0-0.163","19","Low_HMMActual","","","","","","481.90000000596046","","","","Images/NewTrialWC.png","","2"
"image-button-response","549","943146","0.0-13.0-1.163","19","Low_HMMActual","","","","","","null","","","","Images/WhiteBeadChoice.png","","null"
"image-button-response","550","943650","0.0-13.0-2.163","19","Low_HMMActual","","","","","","null","","","","Images/WhiteBeadChoiceCorrect.png","","null"
"image-button-response","551","943936","0.0-13.0-0.164","19","Low_HMMActual","","","","","","283.5","","","","Images/NewTrialWC.png","","2"
"image-button-response","552","944247","0.0-13.0-1.164","19","Low_HMMActual","","","","","","null","","","","Images/WhiteBeadChoice.png","","null"
"image-button-response","553","944756","0.0-13.0-2.164","19","Low_HMMActual","","","","","","null","","","","Images/WhiteBeadChoiceCorrect.png","","null"
"image-button-response","554","945006","0.0-13.0-0.165","19","Low_HMMActual","","","","","","245.7999999821186","","","","Images/NewTrialWC.png","","2"
"image-button-response","555","945310","0.0-13.0-1.165","19","Low_HMMActual","","","","","","null","","","","Images/WhiteBeadChoice.png","","null"
"image-button-response","556","945817","0.0-13.0-2.165","19","Low_HMMActual","","","","","","null","","","","Images/WhiteBeadChoiceCorrect.png","","null"
"image-button-response","557","946022","0.0-13.0-0.166","19","Low_HMMActual","","","","","","202.2999999821186","","","","Images/NewTrialWC.png","","2"
"image-button-response","558","946326","0.0-13.0-1.166","19","Low_HMMActual","","","","","","null","","","","Images/WhiteBeadChoice.png","","null"
"image-button-response","559","946842","0.0-13.0-2.166","19","Low_HMMActual","","","","","","null","","","","Images/WhiteBeadChoiceCorrect.png","","null"
"image-button-response","560","947058","0.0-13.0-0.167","19","Low_HMMActual","","","","","","213.7000000178814","","","","Images/NewTrialWC.png","","2"
"image-button-response","561","947371","0.0-13.0-1.167","19","Low_HMMActual","","","","","","null","","","","Images/WhiteBeadChoice.png","","null"
"image-button-response","562","947877","0.0-13.0-2.167","19","Low_HMMActual","","","","","","null","","","","Images/WhiteBeadChoiceCorrect.png","","null"
"image-button-response","563","948076","0.0-13.0-0.168","19","Low_HMMActual","","","","","","196.2999999821186","","","","Images/NewTrialWC.png","","2"
"image-button-response","564","948386","0.0-13.0-1.168","19","Low_HMMActual","","","","","","null","","","","Images/WhiteBeadChoice.png","","null"
"image-button-response","565","948899","0.0-13.0-2.168","19","Low_HMMActual","","","","","","null","","","","Images/WhiteBeadChoiceWrong.png","","null"
"image-button-response","566","953213","0.0-13.0-0.169","19","Low_HMMActual","","","","","","4313.300000011921","","","","Images/NewTrialBC.png","","3"
"image-button-response","567","953520","0.0-13.0-1.169","19","Low_HMMActual","","","","","","null","","","","Images/WhiteBeadChoice.png","","null"
"image-button-response","568","954022","0.0-13.0-2.169","19","Low_HMMActual","","","","","","null","","","","Images/WhiteBeadChoiceCorrect.png","","null"
"image-button-response","569","954534","0.0-13.0-0.170","19","Low_HMMActual","","","","","","508.7999999821186","","","","Images/NewTrialWC.png","","2"
"image-button-response","570","954850","0.0-13.0-1.170","19","Low_HMMActual","","","","","","null","","","","Images/WhiteBeadChoice.png","","null"
"image-button-response","571","955359","0.0-13.0-2.170","19","Low_HMMActual","","","","","","null","","","","Images/WhiteBeadChoiceCorrect.png","","null"
"image-button-response","572","955620","0.0-13.0-0.171","19","Low_HMMActual","","","","","","258.19999998807907","","","","Images/NewTrialWC.png","","2"
"image-button-response","573","955930","0.0-13.0-1.171","19","Low_HMMActual","","","","","","null","","","","Images/WhiteBeadChoice.png","","null"
"image-button-response","574","956438","0.0-13.0-2.171","19","Low_HMMActual","","","","","","null","","","","Images/WhiteBeadChoiceCorrect.png","","null"
"image-button-response","575","956654","0.0-13.0-0.172","19","Low_HMMActual","","","","","","213.2999999821186","","","","Images/NewTrialWC.png","","2"
"image-button-response","576","956959","0.0-13.0-1.172","19","Low_HMMActual","","","","","","null","","","","Images/WhiteBeadChoice.png","","null"
"image-button-response","577","960003","0.0-13.0-2.172","19","Low_HMMActual","","","","","","null","","","","Images/WhiteBeadChoiceCorrect.png","","null"
"image-button-response","578","960165","0.0-13.0-0.173","19","Low_HMMActual","","","","","","160.19999998807907","","","","Images/NewTrialWC.png","","2"
"image-button-response","579","960480","0.0-13.0-1.173","19","Low_HMMActual","","","","","","null","","","","Images/WhiteBeadChoice.png","","null"
"image-button-response","580","960984","0.0-13.0-2.173","19","Low_HMMActual","","","","","","null","","","","Images/WhiteBeadChoiceCorrect.png","","null"
"image-button-response","581","961681","0.0-13.0-0.174","19","Low_HMMActual","","","","","","694.6999999880791","","","","Images/NewTrialWC.png","","2"
"image-button-response","582","961983","0.0-13.0-1.174","19","Low_HMMActual","","","","","","null","","","","Images/WhiteBeadChoice.png","","null"
"image-button-response","583","962495","0.0-13.0-2.174","19","Low_HMMActual","","","","","","null","","","","Images/WhiteBeadChoiceCorrect.png","","null"
"image-button-response","584","962635","0.0-13.0-0.175","19","Low_HMMActual","","","","","","131.7999999821186","","","","Images/NewTrialWC.png","","2"
"image-button-response","585","962937","0.0-13.0-1.175","19","Low_HMMActual","","","","","","null","","","","Images/WhiteBeadChoice.png","","null"
"image-button-response","586","963438","0.0-13.0-2.175","19","Low_HMMActual","","","","","","null","","","","Images/WhiteBeadChoiceWrong.png","","null"
"image-button-response","587","964137","0.0-13.0-0.176","19","Low_HMMActual","","","","","","696.6999999880791","","","","Images/NewTrialBC.png","","3"
"image-button-response","588","964440","0.0-13.0-1.176","19","Low_HMMActual","","","","","","null","","","","Images/WhiteBeadChoice.png","","null"
"image-button-response","589","964942","0.0-13.0-2.176","19","Low_HMMActual","","","","","","null","","","","Images/WhiteBeadChoiceWrong.png","","null"
"image-button-response","590","967971","0.0-13.0-0.177","19","Low_HMMActual","","","","","","3027.0999999940395","","","","Images/NewTrialBC.png","","1"
"image-button-response","591","968273","0.0-13.0-1.177","19","Low_HMMActual","","","","","","null","","","","Images/BlackBeadChoice.png","","null"
"image-button-response","592","968776","0.0-13.0-2.177","19","Low_HMMActual","","","","","","null","","","","Images/BlackBeadChoiceCorrect.png","","null"
"image-button-response","593","969577","0.0-13.0-0.178","19","Low_HMMActual","","","","","","798.9000000059605","","","","Images/NewTrialBC.png","","0"
"image-button-response","594","969879","0.0-13.0-1.178","19","Low_HMMActual","","","","","","null","","","","Images/BlackBeadChoice.png","","null"
"image-button-response","595","970383","0.0-13.0-2.178","19","Low_HMMActual","","","","","","null","","","","Images/BlackBeadChoiceWrong.png","","null"
"image-button-response","596","973027","0.0-13.0-0.179","19","Low_HMMActual","","","","","","2642.199999988079","","","","Images/NewTrialWC.png","","3"
"image-button-response","597","973340","0.0-13.0-1.179","19","Low_HMMActual","","","","","","null","","","","Images/WhiteBeadChoice.png","","null"
"image-button-response","598","973842","0.0-13.0-2.179","19","Low_HMMActual","","","","","","null","","","","Images/WhiteBeadChoiceWrong.png","","null"
"image-button-response","599","974565","0.0-13.0-0.180","19","Low_HMMActual","","","","","","721.2999999821186","","","","Images/NewTrialBC.png","","0"
"image-button-response","600","974867","0.0-13.0-1.180","19","Low_HMMActual","","","","","","null","","","","Images/BlackBeadChoice.png","","null"
"image-button-response","601","975380","0.0-13.0-2.180","19","Low_HMMActual","","","","","","null","","","","Images/BlackBeadChoiceCorrect.png","","null"
"image-button-response","602","975917","0.0-13.0-0.181","19","Low_HMMActual","","","","","","534.6999999880791","","","","Images/NewTrialBC.png","","0"
"image-button-response","603","976219","0.0-13.0-1.181","19","Low_HMMActual","","","","","","null","","","","Images/BlackBeadChoice.png","","null"
"image-button-response","604","976729","0.0-13.0-2.181","19","Low_HMMActual","","","","","","null","","","","Images/BlackBeadChoiceCorrect.png","","null"
"image-button-response","605","976875","0.0-13.0-0.182","19","Low_HMMActual","","","","","","142","","","","Images/NewTrialBC.png","","0"
"image-button-response","606","977191","0.0-13.0-1.182","19","Low_HMMActual","","","","","","null","","","","Images/BlackBeadChoice.png","","null"
"image-button-response","607","977694","0.0-13.0-2.182","19","Low_HMMActual","","","","","","null","","","","Images/BlackBeadChoiceCorrect.png","","null"
"image-button-response","608","977829","0.0-13.0-0.183","19","Low_HMMActual","","","","","","132.90000000596046","","","","Images/NewTrialBC.png","","0"
"image-button-response","609","978143","0.0-13.0-1.183","19","Low_HMMActual","","","","","","null","","","","Images/BlackBeadChoice.png","","null"
"image-button-response","610","978645","0.0-13.0-2.183","19","Low_HMMActual","","","","","","null","","","","Images/BlackBeadChoiceCorrect.png","","null"
"image-button-response","611","979261","0.0-13.0-0.184","19","Low_HMMActual","","","","","","614.2999999821186","","","","Images/NewTrialBC.png","","0"
"image-button-response","612","979563","0.0-13.0-1.184","19","Low_HMMActual","","","","","","null","","","","Images/BlackBeadChoice.png","","null"
"image-button-response","613","980064","0.0-13.0-2.184","19","Low_HMMActual","","","","","","494.89999997615814","","","","Images/BlackBeadChoiceCorrect.png","","0"
"image-button-response","614","980615","0.0-13.0-0.185","19","Low_HMMActual","","","","","","549.1999999880791","","","","Images/NewTrialBC.png","","0"
"image-button-response","615","980928","0.0-13.0-1.185","19","Low_HMMActual","","","","","","null","","","","Images/BlackBeadChoice.png","","null"
"image-button-response","616","981435","0.0-13.0-2.185","19","Low_HMMActual","","","","","","null","","","","Images/BlackBeadChoiceCorrect.png","","null"
"image-button-response","617","981709","0.0-13.0-0.186","19","Low_HMMActual","","","","","","273.2999999821186","","","","Images/NewTrialBC.png","","0"
"image-button-response","618","982025","0.0-13.0-1.186","19","Low_HMMActual","","","","","","null","","","","Images/BlackBeadChoice.png","","null"
"image-button-response","619","982534","0.0-13.0-2.186","19","Low_HMMActual","","","","","","null","","","","Images/BlackBeadChoiceCorrect.png","","null"
"image-button-response","620","982687","0.0-13.0-0.187","19","Low_HMMActual","","","","","","150.90000000596046","","","","Images/NewTrialBC.png","","0"
"image-button-response","621","982996","0.0-13.0-1.187","19","Low_HMMActual","","","","","","null","","","","Images/BlackBeadChoice.png","","null"
"image-button-response","622","983499","0.0-13.0-2.187","19","Low_HMMActual","","","","","","null","","","","Images/BlackBeadChoiceWrong.png","","null"
"image-button-response","623","984947","0.0-13.0-0.188","19","Low_HMMActual","","","","","","1446.5","","","","Images/NewTrialWC.png","","1"
"image-button-response","624","985263","0.0-13.0-1.188","19","Low_HMMActual","","","","","","null","","","","Images/BlackBeadChoice.png","","null"
"image-button-response","625","985765","0.0-13.0-2.188","19","Low_HMMActual","","","","","","null","","","","Images/BlackBeadChoiceWrong.png","","null"
"image-button-response","626","986277","0.0-13.0-0.189","19","Low_HMMActual","","","","","","509.7000000178814","","","","Images/NewTrialWC.png","","2"
"image-button-response","627","986579","0.0-13.0-1.189","19","Low_HMMActual","","","","","","null","","","","Images/WhiteBeadChoice.png","","null"
"image-button-response","628","987095","0.0-13.0-2.189","19","Low_HMMActual","","","","","","null","","","","Images/WhiteBeadChoiceCorrect.png","","null"
"image-button-response","629","987243","0.0-13.0-0.190","19","Low_HMMActual","","","","","","146","","","","Images/NewTrialWC.png","","2"
"image-button-response","630","987556","0.0-13.0-1.190","19","Low_HMMActual","","","","","","null","","","","Images/WhiteBeadChoice.png","","null"
"image-button-response","631","988068","0.0-13.0-2.190","19","Low_HMMActual","","","","","","428.30000001192093","","","","Images/WhiteBeadChoiceCorrect.png","","2"
"image-button-response","632","988767","0.0-13.0-0.191","19","Low_HMMActual","","","","","","696.4000000059605","","","","Images/NewTrialWC.png","","2"
"image-button-response","633","989083","0.0-13.0-1.191","19","Low_HMMActual","","","","","","null","","","","Images/WhiteBeadChoice.png","","null"
"image-button-response","634","989592","0.0-13.0-2.191","19","Low_HMMActual","","","","","","null","","","","Images/WhiteBeadChoiceCorrect.png","","null"
"image-button-response","635","990029","0.0-13.0-0.192","19","Low_HMMActual","","","","","","435.30000001192093","","","","Images/NewTrialWC.png","","2"
"image-button-response","636","990331","0.0-13.0-1.192","19","Low_HMMActual","","","","","","null","","","","Images/WhiteBeadChoice.png","","null"
"image-button-response","637","990834","0.0-13.0-2.192","19","Low_HMMActual","","","","","","null","","","","Images/WhiteBeadChoiceCorrect.png","","null"
"image-button-response","638","991275","0.0-13.0-0.193","19","Low_HMMActual","","","","","","438.80000001192093","","","","Images/NewTrialWC.png","","2"
"image-button-response","639","991587","0.0-13.0-1.193","19","Low_HMMActual","","","","","","null","","","","Images/WhiteBeadChoice.png","","null"
"image-button-response","640","992090","0.0-13.0-2.193","19","Low_HMMActual","","","","","","null","","","","Images/WhiteBeadChoiceCorrect.png","","null"
"image-button-response","641","992319","0.0-13.0-0.194","19","Low_HMMActual","","","","","","226.10000002384186","","","","Images/NewTrialWC.png","","2"
"image-button-response","642","992624","0.0-13.0-1.194","19","Low_HMMActual","","","","","","null","","","","Images/WhiteBeadChoice.png","","null"
"image-button-response","643","993135","0.0-13.0-2.194","19","Low_HMMActual","","","","","","null","","","","Images/WhiteBeadChoiceCorrect.png","","null"
"image-button-response","644","993523","0.0-13.0-0.195","19","Low_HMMActual","","","","","","386.40000000596046","","","","Images/NewTrialWC.png","","2"
"image-button-response","645","993834","0.0-13.0-1.195","19","Low_HMMActual","","","","","","null","","","","Images/WhiteBeadChoice.png","","null"
"image-button-response","646","994346","0.0-13.0-2.195","19","Low_HMMActual","","","","","","null","","","","Images/WhiteBeadChoiceCorrect.png","","null"
"image-button-response","647","994845","0.0-13.0-0.196","19","Low_HMMActual","","","","","","497.30000001192093","","","","Images/NewTrialWC.png","","2"
"image-button-response","648","995153","0.0-13.0-1.196","19","Low_HMMActual","","","","","","null","","","","Images/WhiteBeadChoice.png","","null"
"image-button-response","649","995656","0.0-13.0-2.196","19","Low_HMMActual","","","","","","null","","","","Images/WhiteBeadChoiceCorrect.png","","null"
"image-button-response","650","996017","0.0-13.0-0.197","19","Low_HMMActual","","","","","","358.40000000596046","","","","Images/NewTrialWC.png","","2"
"image-button-response","651","996321","0.0-13.0-1.197","19","Low_HMMActual","","","","","","null","","","","Images/WhiteBeadChoice.png","","null"
"image-button-response","652","996837","0.0-13.0-2.197","19","Low_HMMActual","","","","","","null","","","","Images/WhiteBeadChoiceCorrect.png","","null"
"image-button-response","653","997079","0.0-13.0-0.198","19","Low_HMMActual","","","","","","240.09999999403954","","","","Images/NewTrialWC.png","","2"
"image-button-response","654","997391","0.0-13.0-1.198","19","Low_HMMActual","","","","","","null","","","","Images/WhiteBeadChoice.png","","null"
"image-button-response","655","997911","0.0-13.0-2.198","19","Low_HMMActual","","","","","","null","","","","Images/WhiteBeadChoiceWrong.png","","null"
"image-button-response","656","998385","0.0-13.0-0.199","19","Low_HMMActual","","","","","","472.59999999403954","","","","Images/NewTrialBC.png","","3"
"image-button-response","657","998688","0.0-13.0-1.199","19","Low_HMMActual","","","","","","null","","","","Images/WhiteBeadChoice.png","","null"
"image-button-response","658","999199","0.0-13.0-2.199","19","Low_HMMActual","","","","","","null","","","","Images/WhiteBeadChoiceCorrect.png","","null"
"image-button-response","659","999519","0.0-13.0-0.200","19","Low_HMMActual","","","","","","318.80000001192093","","","","Images/NewTrialWC.png","","2"
"image-button-response","660","999835","0.0-13.0-1.200","19","Low_HMMActual","","","","","","null","","","","Images/WhiteBeadChoice.png","","null"
"image-button-response","661","1000351","0.0-13.0-2.200","19","Low_HMMActual","","","","","","null","","","","Images/WhiteBeadChoiceCorrect.png","","null"
"image-button-response","662","1000679","0.0-13.0-0.201","19","Low_HMMActual","","","","","","326.2000000178814","","","","Images/NewTrialWC.png","","2"
"image-button-response","663","1000986","0.0-13.0-1.201","19","Low_HMMActual","","","","","","null","","","","Images/WhiteBeadChoice.png","","null"
"image-button-response","664","1001498","0.0-13.0-2.201","19","Low_HMMActual","","","","","","null","","","","Images/WhiteBeadChoiceWrong.png","","null"
