"trial_type","trial_index","time_elapsed","internal_node_id","Script_Picker","Block_Type","success","timeout","failed_images","failed_audio","failed_video","rt","url","responses","question_order","stimulus","key_press","response"
"pavlovia","0","14","0.0-0.0","17","Low_HMMActual","","","","","","","","","","","",""
"preload","1","14","0.0-1.0","17","Low_HMMActual","true","false","[]","[]","[]","","","","","","",""
"external-html","2","15779","0.0-2.0-0.0","17","Low_HMMActual","","","","","","15581","consent.html","","","","",""
"survey-multi-choice","3","21636","0.0-2.0-1.0","17","Low_HMMActual","","","","","","5854.5","","{""Q0"":""Do Not Wish To Say"",""Q1"":""White""}","[0,1]","","",""
"survey-text","4","23859","0.0-2.0-2.0","17","Low_HMMActual","","","","","","2222","","{""Q0"":""18""}","","","",""
"survey-text","5","29253","0.0-2.0-3.0","17","Low_HMMActual","","","","","","5288.399999976158","","{""Q0"":""60f8790908d492b82b505dc3""}","","","",""
"image-keyboard-response","6","51467","0.0-3.0-0.0","17","Low_HMMActual","","","","","","22111.899999976158","","","","tutorial/tutorial1.png"," ",""
"image-keyboard-response","7","61657","0.0-3.0-0.1","17","Low_HMMActual","","","","","","10190.099999904633","","","","tutorial/tutorial2.png"," ",""
"image-keyboard-response","8","63750","0.0-3.0-0.2","17","Low_HMMActual","","","","","","2092.600000023842","","","","tutorial/tutorial3.png"," ",""
"image-keyboard-response","9","66137","0.0-3.0-0.3","17","Low_HMMActual","","","","","","2386.100000023842","","","","tutorial/tutorial4.png"," ",""
"image-keyboard-response","10","67328","0.0-3.0-0.4","17","Low_HMMActual","","","","","","1190.8999999761581","","","","tutorial/tutorial5.png"," ",""
"image-keyboard-response","11","77732","0.0-3.0-0.5","17","Low_HMMActual","","","","","","10403.399999976158","","","","tutorial/tutorial6.png"," ",""
"image-keyboard-response","12","80094","0.0-3.0-0.6","17","Low_HMMActual","","","","","","2361.2000000476837","","","","tutorial/tutorial7.png"," ",""
"image-keyboard-response","13","120225","0.0-3.0-0.7","17","Low_HMMActual","","","","","","40130.199999928474","","","","tutorial/tutorial8.png"," ",""
"image-keyboard-response","14","127756","0.0-3.0-0.8","17","Low_HMMActual","","","","","","7530.799999952316","","","","tutorial/tutorial9.png"," ",""
"image-keyboard-response","15","136461","0.0-3.0-0.9","17","Low_HMMActual","","","","","","8704.100000023842","","","","tutorial/tutorial10.png"," ",""
"image-keyboard-response","16","148331","0.0-3.0-0.10","17","Low_HMMActual","","","","","","11869.399999976158","","","","tutorial/tutorial11.png"," ",""
"image-keyboard-response","17","152996","0.0-3.0-0.11","17","Low_HMMActual","","","","","","4664.300000071526","","","","tutorial/tutorial12.png"," ",""
"image-keyboard-response","18","161573","0.0-3.0-0.12","17","Low_HMMActual","","","","","","8576.600000023842","","","","tutorial/tutorial13.png"," ",""
"image-keyboard-response","19","180746","0.0-3.0-0.13","17","Low_HMMActual","","","","","","19172.699999928474","","","","tutorial/tutorial14.png"," ",""
"image-keyboard-response","20","182324","0.0-3.0-0.14","17","Low_HMMActual","","","","","","1576.8999999761581","","","","tutorial/tutorial15.png"," ",""
"image-keyboard-response","21","185895","0.0-4.0","17","Low_HMMActual","","","","","","3570.899999976158","","","","tutorial/tutorial16.png","arrowup",""
"image-keyboard-response","22","191736","0.0-5.0","17","Low_HMMActual","","","","","","4046.7000000476837","","","","tutorial/tutorial17.png","arrowright",""
"image-keyboard-response","23","197683","0.0-6.0","17","Low_HMMActual","","","","","","4062.100000023842","","","","tutorial/tutorial18.png","arrowleft",""
"image-keyboard-response","24","207426","0.0-7.0","17","Low_HMMActual","","","","","","8582.200000047684","","","","tutorial/tutorial19.png"," ",""
"html-keyboard-response","25","218421","0.0-8.0","18","Low_HMMActual","","","","","","10994.299999952316","","","","<div class=""container"" style=""height:800px;width:800px;display:flex;flex-direction:column;justify-content:center;align-items:center;text-align:center;font-weight:normal;font-family:Arial;font-size:20px""><p>Loading episode&hellip;</p><div>"," ",""
"image-button-response","26","223884","0.0-9.0-0.0","18","Low_HMMActual","","","","","","5460.599999904633","","","","Images/NoChoice.png","","1"
"image-button-response","27","224190","0.0-9.0-1.0","18","Low_HMMActual","","","","","","null","","","","Images/BlackBeadChoice.png","","null"
"image-button-response","28","224702","0.0-9.0-2.0","18","Low_HMMActual","","","","","","null","","","","Images/BlackBeadChoiceWrong.png","","null"
"image-button-response","29","233605","0.0-9.0-0.1","18","Low_HMMActual","","","","","","8902.300000071526","","","","Images/NewTrialWC.png","","2"
"image-button-response","30","233907","0.0-9.0-1.1","18","Low_HMMActual","","","","","","null","","","","Images/WhiteBeadChoice.png","","null"
"image-button-response","31","234417","0.0-9.0-2.1","18","Low_HMMActual","","","","","","null","","","","Images/WhiteBeadChoiceCorrect.png","","null"
"image-button-response","32","236570","0.0-9.0-0.2","18","Low_HMMActual","","","","","","2151.1999999284744","","","","Images/NewTrialWC.png","","2"
"image-button-response","33","236872","0.0-9.0-1.2","18","Low_HMMActual","","","","","","null","","","","Images/WhiteBeadChoice.png","","null"
"image-button-response","34","237389","0.0-9.0-2.2","18","Low_HMMActual","","","","","","null","","","","Images/WhiteBeadChoiceCorrect.png","","null"
"image-button-response","35","239182","0.0-9.0-0.3","18","Low_HMMActual","","","","","","1792.1000000238419","","","","Images/NewTrialWC.png","","2"
"image-button-response","36","239485","0.0-9.0-1.3","18","Low_HMMActual","","","","","","null","","","","Images/WhiteBeadChoice.png","","null"
"image-button-response","37","239995","0.0-9.0-2.3","18","Low_HMMActual","","","","","","null","","","","Images/WhiteBeadChoiceWrong.png","","null"
"image-button-response","38","245256","0.0-9.0-0.4","18","Low_HMMActual","","","","","","5260.399999976158","","","","Images/NewTrialBC.png","","0"
"image-button-response","39","245565","0.0-9.0-1.4","18","Low_HMMActual","","","","","","null","","","","Images/BlackBeadChoice.png","","null"
"image-button-response","40","246071","0.0-9.0-2.4","18","Low_HMMActual","","","","","","null","","","","Images/BlackBeadChoiceWrong.png","","null"
"image-button-response","41","249703","0.0-9.0-0.5","18","Low_HMMActual","","","","","","3630.600000023842","","","","Images/NewTrialWC.png","","3"
"image-button-response","42","250016","0.0-9.0-1.5","18","Low_HMMActual","","","","","","null","","","","Images/WhiteBeadChoice.png","","null"
"image-button-response","43","250526","0.0-9.0-2.5","18","Low_HMMActual","","","","","","null","","","","Images/WhiteBeadChoiceCorrect.png","","null"
"image-button-response","44","255093","0.0-9.0-0.6","18","Low_HMMActual","","","","","","4565.300000071526","","","","Images/NewTrialWC.png","","3"
"image-button-response","45","255397","0.0-9.0-1.6","18","Low_HMMActual","","","","","","null","","","","Images/WhiteBeadChoice.png","","null"
"image-button-response","46","255909","0.0-9.0-2.6","18","Low_HMMActual","","","","","","null","","","","Images/WhiteBeadChoiceWrong.png","","null"
"image-button-response","47","270229","0.0-9.0-0.7","18","Low_HMMActual","","","","","","14319.600000023842","","","","Images/NewTrialBC.png","","0"
"image-button-response","48","270531","0.0-9.0-1.7","18","Low_HMMActual","","","","","","null","","","","Images/BlackBeadChoice.png","","null"
"image-button-response","49","271033","0.0-9.0-2.7","18","Low_HMMActual","","","","","","null","","","","Images/BlackBeadChoiceWrong.png","","null"
"image-button-response","50","299869","0.0-9.0-0.8","18","Low_HMMActual","","","","","","28834.400000095367","","","","Images/NewTrialWC.png","","3"
"image-button-response","51","300170","0.0-9.0-1.8","18","Low_HMMActual","","","","","","null","","","","Images/WhiteBeadChoice.png","","null"
"image-button-response","52","300679","0.0-9.0-2.8","18","Low_HMMActual","","","","","","null","","","","Images/WhiteBeadChoiceCorrect.png","","null"
"image-button-response","53","301860","0.0-9.0-0.9","18","Low_HMMActual","","","","","","1179.5","","","","Images/NewTrialWC.png","","2"
"image-button-response","54","302167","0.0-9.0-1.9","18","Low_HMMActual","","","","","","null","","","","Images/WhiteBeadChoice.png","","null"
"image-button-response","55","302677","0.0-9.0-2.9","18","Low_HMMActual","","","","","","null","","","","Images/WhiteBeadChoiceWrong.png","","null"
"html-keyboard-response","56","306306","0.0-10.0","18","Low_HMMActual","","","","","","3628.399999976158","","","",""," ",""
"image-keyboard-response","57","309036","0.0-11.0","18","Low_HMMActual","","","","","","2729.2000000476837","","","","tutorial/tutorial20.png"," ",""
"html-keyboard-response","58","313009","0.0-12.0","19","Low_HMMActual","","","","","","3970.1999999284744","","","","<div class=""container"" style=""height:800px;width:800px;display:flex;flex-direction:column;justify-content:center;align-items:center;text-align:center;font-weight:normal;font-family:Arial;font-size:20px""><p>Loading episode&hellip;</p><div>"," ",""
"image-button-response","59","316348","0.0-13.0-0.0","19","Low_HMMActual","","","","","","3338.899999976158","","","","Images/NoChoice.png","","1"
"image-button-response","60","316651","0.0-13.0-1.0","19","Low_HMMActual","","","","","","null","","","","Images/BlackBeadChoice.png","","null"
"image-button-response","61","317158","0.0-13.0-2.0","19","Low_HMMActual","","","","","","null","","","","Images/BlackBeadChoiceWrong.png","","null"
"image-button-response","62","321936","0.0-13.0-0.1","19","Low_HMMActual","","","","","","4776.799999952316","","","","Images/NewTrialWC.png","","3"
"image-button-response","63","322248","0.0-13.0-1.1","19","Low_HMMActual","","","","","","null","","","","Images/WhiteBeadChoice.png","","null"
"image-button-response","64","322759","0.0-13.0-2.1","19","Low_HMMActual","","","","","","null","","","","Images/WhiteBeadChoiceCorrect.png","","null"
"image-button-response","65","326160","0.0-13.0-0.2","19","Low_HMMActual","","","","","","3399","","","","Images/NewTrialWC.png","","2"
"image-button-response","66","326461","0.0-13.0-1.2","19","Low_HMMActual","","","","","","null","","","","Images/WhiteBeadChoice.png","","null"
"image-button-response","67","326967","0.0-13.0-2.2","19","Low_HMMActual","","","","","","null","","","","Images/WhiteBeadChoiceCorrect.png","","null"
"image-button-response","68","331093","0.0-13.0-0.3","19","Low_HMMActual","","","","","","4124.200000047684","","","","Images/NewTrialWC.png","","3"
"image-button-response","69","331405","0.0-13.0-1.3","19","Low_HMMActual","","","","","","null","","","","Images/WhiteBeadChoice.png","","null"
"image-button-response","70","331914","0.0-13.0-2.3","19","Low_HMMActual","","","","","","null","","","","Images/WhiteBeadChoiceCorrect.png","","null"
"image-button-response","71","332964","0.0-13.0-0.4","19","Low_HMMActual","","","","","","1048.3999999761581","","","","Images/NewTrialWC.png","","3"
"image-button-response","72","333267","0.0-13.0-1.4","19","Low_HMMActual","","","","","","null","","","","Images/WhiteBeadChoice.png","","null"
"image-button-response","73","333771","0.0-13.0-2.4","19","Low_HMMActual","","","","","","null","","","","Images/WhiteBeadChoiceCorrect.png","","null"
"image-button-response","74","338967","0.0-13.0-0.5","19","Low_HMMActual","","","","","","5194.199999928474","","","","Images/NewTrialWC.png","","1"
"image-button-response","75","339269","0.0-13.0-1.5","19","Low_HMMActual","","","","","","null","","","","Images/BlackBeadChoice.png","","null"
"image-button-response","76","339772","0.0-13.0-2.5","19","Low_HMMActual","","","","","","null","","","","Images/BlackBeadChoiceCorrect.png","","null"
"image-button-response","77","347491","0.0-13.0-0.6","19","Low_HMMActual","","","","","","7718.099999904633","","","","Images/NewTrialBC.png","","1"
"image-button-response","78","347793","0.0-13.0-1.6","19","Low_HMMActual","","","","","","null","","","","Images/BlackBeadChoice.png","","null"
"image-button-response","79","348294","0.0-13.0-2.6","19","Low_HMMActual","","","","","","null","","","","Images/BlackBeadChoiceCorrect.png","","null"
"image-button-response","80","349176","0.0-13.0-0.7","19","Low_HMMActual","","","","","","880.5","","","","Images/NewTrialBC.png","","0"
"image-button-response","81","349478","0.0-13.0-1.7","19","Low_HMMActual","","","","","","null","","","","Images/BlackBeadChoice.png","","null"
"image-button-response","82","349981","0.0-13.0-2.7","19","Low_HMMActual","","","","","","null","","","","Images/BlackBeadChoiceCorrect.png","","null"
"image-button-response","83","351294","0.0-13.0-0.8","19","Low_HMMActual","","","","","","1312.5","","","","Images/NewTrialBC.png","","0"
"image-button-response","84","351595","0.0-13.0-1.8","19","Low_HMMActual","","","","","","null","","","","Images/BlackBeadChoice.png","","null"
"image-button-response","85","352098","0.0-13.0-2.8","19","Low_HMMActual","","","","","","null","","","","Images/BlackBeadChoiceCorrect.png","","null"
"image-button-response","86","353687","0.0-13.0-0.9","19","Low_HMMActual","","","","","","1587.1000000238419","","","","Images/NewTrialBC.png","","1"
"image-button-response","87","354000","0.0-13.0-1.9","19","Low_HMMActual","","","","","","null","","","","Images/BlackBeadChoice.png","","null"
"image-button-response","88","354508","0.0-13.0-2.9","19","Low_HMMActual","","","","","","null","","","","Images/BlackBeadChoiceCorrect.png","","null"
"image-button-response","89","355593","0.0-13.0-0.10","19","Low_HMMActual","","","","","","1083.5","","","","Images/NewTrialBC.png","","1"
"image-button-response","90","355893","0.0-13.0-1.10","19","Low_HMMActual","","","","","","null","","","","Images/BlackBeadChoice.png","","null"
"image-button-response","91","356409","0.0-13.0-2.10","19","Low_HMMActual","","","","","","null","","","","Images/BlackBeadChoiceWrong.png","","null"
"image-button-response","92","360984","0.0-13.0-0.11","19","Low_HMMActual","","","","","","4574.5","","","","Images/NewTrialWC.png","","3"
"image-button-response","93","361285","0.0-13.0-1.11","19","Low_HMMActual","","","","","","null","","","","Images/WhiteBeadChoice.png","","null"
"image-button-response","94","361787","0.0-13.0-2.11","19","Low_HMMActual","","","","","","null","","","","Images/WhiteBeadChoiceWrong.png","","null"
"image-button-response","95","363729","0.0-13.0-0.12","19","Low_HMMActual","","","","","","1941.3000000715256","","","","Images/NewTrialBC.png","","0"
"image-button-response","96","364031","0.0-13.0-1.12","19","Low_HMMActual","","","","","","null","","","","Images/BlackBeadChoice.png","","null"
"image-button-response","97","364532","0.0-13.0-2.12","19","Low_HMMActual","","","","","","null","","","","Images/BlackBeadChoiceWrong.png","","null"
"image-button-response","98","369168","0.0-13.0-0.13","19","Low_HMMActual","","","","","","4635","","","","Images/NewTrialWC.png","","3"
"image-button-response","99","369481","0.0-13.0-1.13","19","Low_HMMActual","","","","","","null","","","","Images/WhiteBeadChoice.png","","null"
"image-button-response","100","369989","0.0-13.0-2.13","19","Low_HMMActual","","","","","","null","","","","Images/WhiteBeadChoiceCorrect.png","","null"
"image-button-response","101","370468","0.0-13.0-0.14","19","Low_HMMActual","","","","","","477","","","","Images/NewTrialWC.png","","2"
"image-button-response","102","370775","0.0-13.0-1.14","19","Low_HMMActual","","","","","","null","","","","Images/WhiteBeadChoice.png","","null"
"image-button-response","103","371287","0.0-13.0-2.14","19","Low_HMMActual","","","","","","null","","","","Images/WhiteBeadChoiceCorrect.png","","null"
"image-button-response","104","371913","0.0-13.0-0.15","19","Low_HMMActual","","","","","","623.3999999761581","","","","Images/NewTrialWC.png","","2"
"image-button-response","105","372214","0.0-13.0-1.15","19","Low_HMMActual","","","","","","null","","","","Images/WhiteBeadChoice.png","","null"
"image-button-response","106","372723","0.0-13.0-2.15","19","Low_HMMActual","","","","","","null","","","","Images/WhiteBeadChoiceCorrect.png","","null"
"image-button-response","107","373540","0.0-13.0-0.16","19","Low_HMMActual","","","","","","816.1000000238419","","","","Images/NewTrialWC.png","","3"
"image-button-response","108","373854","0.0-13.0-1.16","19","Low_HMMActual","","","","","","null","","","","Images/WhiteBeadChoice.png","","null"
"image-button-response","109","374357","0.0-13.0-2.16","19","Low_HMMActual","","","","","","null","","","","Images/WhiteBeadChoiceWrong.png","","null"
"image-button-response","110","378933","0.0-13.0-0.17","19","Low_HMMActual","","","","","","4575.700000047684","","","","Images/NewTrialBC.png","","1"
"image-button-response","111","379235","0.0-13.0-1.17","19","Low_HMMActual","","","","","","null","","","","Images/BlackBeadChoice.png","","null"
"image-button-response","112","379740","0.0-13.0-2.17","19","Low_HMMActual","","","","","","null","","","","Images/BlackBeadChoiceCorrect.png","","null"
"image-button-response","113","380376","0.0-13.0-0.18","19","Low_HMMActual","","","","","","633.8999999761581","","","","Images/NewTrialBC.png","","0"
"image-button-response","114","380678","0.0-13.0-1.18","19","Low_HMMActual","","","","","","null","","","","Images/BlackBeadChoice.png","","null"
"image-button-response","115","381193","0.0-13.0-2.18","19","Low_HMMActual","","","","","","null","","","","Images/BlackBeadChoiceCorrect.png","","null"
"image-button-response","116","382273","0.0-13.0-0.19","19","Low_HMMActual","","","","","","1079.3999999761581","","","","Images/NewTrialBC.png","","0"
"image-button-response","117","382583","0.0-13.0-1.19","19","Low_HMMActual","","","","","","null","","","","Images/BlackBeadChoice.png","","null"
"image-button-response","118","383091","0.0-13.0-2.19","19","Low_HMMActual","","","","","","null","","","","Images/BlackBeadChoiceCorrect.png","","null"
"image-button-response","119","383526","0.0-13.0-0.20","19","Low_HMMActual","","","","","","433.1999999284744","","","","Images/NewTrialBC.png","","0"
"image-button-response","120","383835","0.0-13.0-1.20","19","Low_HMMActual","","","","","","null","","","","Images/BlackBeadChoice.png","","null"
"image-button-response","121","384336","0.0-13.0-2.20","19","Low_HMMActual","","","","","","null","","","","Images/BlackBeadChoiceCorrect.png","","null"
"image-button-response","122","385480","0.0-13.0-0.21","19","Low_HMMActual","","","","","","1142.5","","","","Images/NewTrialBC.png","","1"
"image-button-response","123","385782","0.0-13.0-1.21","19","Low_HMMActual","","","","","","null","","","","Images/BlackBeadChoice.png","","null"
"image-button-response","124","386284","0.0-13.0-2.21","19","Low_HMMActual","","","","","","null","","","","Images/BlackBeadChoiceWrong.png","","null"
"image-button-response","125","388543","0.0-13.0-0.22","19","Low_HMMActual","","","","","","2259","","","","Images/NewTrialWC.png","","2"
"image-button-response","126","388851","0.0-13.0-1.22","19","Low_HMMActual","","","","","","null","","","","Images/WhiteBeadChoice.png","","null"
"image-button-response","127","389360","0.0-13.0-2.22","19","Low_HMMActual","","","","","","null","","","","Images/WhiteBeadChoiceWrong.png","","null"
"image-button-response","128","392374","0.0-13.0-0.23","19","Low_HMMActual","","","","","","3012.5999999046326","","","","Images/NewTrialBC.png","","1"
"image-button-response","129","392676","0.0-13.0-1.23","19","Low_HMMActual","","","","","","null","","","","Images/BlackBeadChoice.png","","null"
"image-button-response","130","393178","0.0-13.0-2.23","19","Low_HMMActual","","","","","","null","","","","Images/BlackBeadChoiceWrong.png","","null"
"image-button-response","131","394027","0.0-13.0-0.24","19","Low_HMMActual","","","","","","848.3999999761581","","","","Images/NewTrialWC.png","","2"
"image-button-response","132","394329","0.0-13.0-1.24","19","Low_HMMActual","","","","","","null","","","","Images/WhiteBeadChoice.png","","null"
"image-button-response","133","394845","0.0-13.0-2.24","19","Low_HMMActual","","","","","","null","","","","Images/WhiteBeadChoiceWrong.png","","null"
"image-button-response","134","395732","0.0-13.0-0.25","19","Low_HMMActual","","","","","","886.1999999284744","","","","Images/NewTrialBC.png","","1"
"image-button-response","135","396033","0.0-13.0-1.25","19","Low_HMMActual","","","","","","null","","","","Images/BlackBeadChoice.png","","null"
"image-button-response","136","396535","0.0-13.0-2.25","19","Low_HMMActual","","","","","","null","","","","Images/BlackBeadChoiceWrong.png","","null"
"image-button-response","137","397059","0.0-13.0-0.26","19","Low_HMMActual","","","","","","523","","","","Images/NewTrialWC.png","","3"
"image-button-response","138","397360","0.0-13.0-1.26","19","Low_HMMActual","","","","","","null","","","","Images/WhiteBeadChoice.png","","null"
"image-button-response","139","397864","0.0-13.0-2.26","19","Low_HMMActual","","","","","","null","","","","Images/WhiteBeadChoiceWrong.png","","null"
"image-button-response","140","403214","0.0-13.0-0.27","19","Low_HMMActual","","","","","","5348.599999904633","","","","Images/NewTrialBC.png","","3"
"image-button-response","141","403516","0.0-13.0-1.27","19","Low_HMMActual","","","","","","null","","","","Images/WhiteBeadChoice.png","","null"
"image-button-response","142","404029","0.0-13.0-2.27","19","Low_HMMActual","","","","","","null","","","","Images/WhiteBeadChoiceWrong.png","","null"
"image-button-response","143","404751","0.0-13.0-0.28","19","Low_HMMActual","","","","","","720.6000000238419","","","","Images/NewTrialBC.png","","1"
"image-button-response","144","405053","0.0-13.0-1.28","19","Low_HMMActual","","","","","","null","","","","Images/BlackBeadChoice.png","","null"
"image-button-response","145","405569","0.0-13.0-2.28","19","Low_HMMActual","","","","","","null","","","","Images/BlackBeadChoiceWrong.png","","null"
"image-button-response","146","409468","0.0-13.0-0.29","19","Low_HMMActual","","","","","","3898.100000023842","","","","Images/NewTrialWC.png","","3"
"image-button-response","147","409774","0.0-13.0-1.29","19","Low_HMMActual","","","","","","null","","","","Images/WhiteBeadChoice.png","","null"
"image-button-response","148","410277","0.0-13.0-2.29","19","Low_HMMActual","","","","","","null","","","","Images/WhiteBeadChoiceWrong.png","","null"
"image-button-response","149","410992","0.0-13.0-0.30","19","Low_HMMActual","","","","","","714.5","","","","Images/NewTrialBC.png","","1"
"image-button-response","150","411294","0.0-13.0-1.30","19","Low_HMMActual","","","","","","null","","","","Images/BlackBeadChoice.png","","null"
"image-button-response","151","411795","0.0-13.0-2.30","19","Low_HMMActual","","","","","","null","","","","Images/BlackBeadChoiceWrong.png","","null"
"image-button-response","152","412370","0.0-13.0-0.31","19","Low_HMMActual","","","","","","574.3000000715256","","","","Images/NewTrialWC.png","","1"
"image-button-response","153","412680","0.0-13.0-1.31","19","Low_HMMActual","","","","","","null","","","","Images/BlackBeadChoice.png","","null"
"image-button-response","154","413191","0.0-13.0-2.31","19","Low_HMMActual","","","","","","null","","","","Images/BlackBeadChoiceWrong.png","","null"
"image-button-response","155","413923","0.0-13.0-0.32","19","Low_HMMActual","","","","","","730.5","","","","Images/NewTrialWC.png","","3"
"image-button-response","156","414228","0.0-13.0-1.32","19","Low_HMMActual","","","","","","null","","","","Images/WhiteBeadChoice.png","","null"
"image-button-response","157","414739","0.0-13.0-2.32","19","Low_HMMActual","","","","","","null","","","","Images/WhiteBeadChoiceCorrect.png","","null"
"image-button-response","158","416117","0.0-13.0-0.33","19","Low_HMMActual","","","","","","1375.6000000238419","","","","Images/NewTrialWC.png","","3"
"image-button-response","159","416419","0.0-13.0-1.33","19","Low_HMMActual","","","","","","null","","","","Images/WhiteBeadChoice.png","","null"
"image-button-response","160","416935","0.0-13.0-2.33","19","Low_HMMActual","","","","","","null","","","","Images/WhiteBeadChoiceCorrect.png","","null"
"image-button-response","161","417433","0.0-13.0-0.34","19","Low_HMMActual","","","","","","496.7000000476837","","","","Images/NewTrialWC.png","","3"
"image-button-response","162","417736","0.0-13.0-1.34","19","Low_HMMActual","","","","","","null","","","","Images/WhiteBeadChoice.png","","null"
"image-button-response","163","418238","0.0-13.0-2.34","19","Low_HMMActual","","","","","","null","","","","Images/WhiteBeadChoiceWrong.png","","null"
"image-button-response","164","421584","0.0-13.0-0.35","19","Low_HMMActual","","","","","","3345.2000000476837","","","","Images/NewTrialBC.png","","1"
"image-button-response","165","421885","0.0-13.0-1.35","19","Low_HMMActual","","","","","","null","","","","Images/BlackBeadChoice.png","","null"
"image-button-response","166","422387","0.0-13.0-2.35","19","Low_HMMActual","","","","","","null","","","","Images/BlackBeadChoiceWrong.png","","null"
"image-button-response","167","424108","0.0-13.0-0.36","19","Low_HMMActual","","","","","","1720.1000000238419","","","","Images/NewTrialWC.png","","3"
"image-button-response","168","424422","0.0-13.0-1.36","19","Low_HMMActual","","","","","","null","","","","Images/WhiteBeadChoice.png","","null"
"image-button-response","169","424931","0.0-13.0-2.36","19","Low_HMMActual","","","","","","null","","","","Images/WhiteBeadChoiceWrong.png","","null"
"image-button-response","170","426404","0.0-13.0-0.37","19","Low_HMMActual","","","","","","1471.5","","","","Images/NewTrialBC.png","","1"
"image-button-response","171","426706","0.0-13.0-1.37","19","Low_HMMActual","","","","","","null","","","","Images/BlackBeadChoice.png","","null"
"image-button-response","172","427207","0.0-13.0-2.37","19","Low_HMMActual","","","","","","null","","","","Images/BlackBeadChoiceCorrect.png","","null"
"image-button-response","173","427706","0.0-13.0-0.38","19","Low_HMMActual","","","","","","497.60000002384186","","","","Images/NewTrialBC.png","","0"
"image-button-response","174","428012","0.0-13.0-1.38","19","Low_HMMActual","","","","","","null","","","","Images/BlackBeadChoice.png","","null"
"image-button-response","175","428521","0.0-13.0-2.38","19","Low_HMMActual","","","","","","null","","","","Images/BlackBeadChoiceCorrect.png","","null"
"image-button-response","176","430545","0.0-13.0-0.39","19","Low_HMMActual","","","","","","2022.5","","","","Images/NewTrialBC.png","","1"
"image-button-response","177","430847","0.0-13.0-1.39","19","Low_HMMActual","","","","","","null","","","","Images/BlackBeadChoice.png","","null"
"image-button-response","178","431349","0.0-13.0-2.39","19","Low_HMMActual","","","","","","null","","","","Images/BlackBeadChoiceWrong.png","","null"
"image-button-response","179","432352","0.0-13.0-0.40","19","Low_HMMActual","","","","","","1002","","","","Images/NewTrialWC.png","","3"
"image-button-response","180","432667","0.0-13.0-1.40","19","Low_HMMActual","","","","","","null","","","","Images/WhiteBeadChoice.png","","null"
"image-button-response","181","433172","0.0-13.0-2.40","19","Low_HMMActual","","","","","","null","","","","Images/WhiteBeadChoiceCorrect.png","","null"
"image-button-response","182","433638","0.0-13.0-0.41","19","Low_HMMActual","","","","","","465.10000002384186","","","","Images/NewTrialWC.png","","2"
"image-button-response","183","433952","0.0-13.0-1.41","19","Low_HMMActual","","","","","","null","","","","Images/WhiteBeadChoice.png","","null"
"image-button-response","184","434463","0.0-13.0-2.41","19","Low_HMMActual","","","","","","null","","","","Images/WhiteBeadChoiceCorrect.png","","null"
"image-button-response","185","435356","0.0-13.0-0.42","19","Low_HMMActual","","","","","","891","","","","Images/NewTrialWC.png","","3"
"image-button-response","186","435668","0.0-13.0-1.42","19","Low_HMMActual","","","","","","null","","","","Images/WhiteBeadChoice.png","","null"
"image-button-response","187","436169","0.0-13.0-2.42","19","Low_HMMActual","","","","","","null","","","","Images/WhiteBeadChoiceWrong.png","","null"
"image-button-response","188","438626","0.0-13.0-0.43","19","Low_HMMActual","","","","","","2455.600000023842","","","","Images/NewTrialBC.png","","1"
"image-button-response","189","438927","0.0-13.0-1.43","19","Low_HMMActual","","","","","","null","","","","Images/BlackBeadChoice.png","","null"
"image-button-response","190","439428","0.0-13.0-2.43","19","Low_HMMActual","","","","","","null","","","","Images/BlackBeadChoiceWrong.png","","null"
"image-button-response","191","440474","0.0-13.0-0.44","19","Low_HMMActual","","","","","","1044.6999999284744","","","","Images/NewTrialWC.png","","3"
"image-button-response","192","440786","0.0-13.0-1.44","19","Low_HMMActual","","","","","","null","","","","Images/WhiteBeadChoice.png","","null"
"image-button-response","193","441288","0.0-13.0-2.44","19","Low_HMMActual","","","","","","null","","","","Images/WhiteBeadChoiceWrong.png","","null"
"image-button-response","194","442200","0.0-13.0-0.45","19","Low_HMMActual","","","","","","910.6999999284744","","","","Images/NewTrialBC.png","","1"
"image-button-response","195","442502","0.0-13.0-1.45","19","Low_HMMActual","","","","","","null","","","","Images/BlackBeadChoice.png","","null"
"image-button-response","196","443004","0.0-13.0-2.45","19","Low_HMMActual","","","","","","null","","","","Images/BlackBeadChoiceCorrect.png","","null"
"image-button-response","197","444185","0.0-13.0-0.46","19","Low_HMMActual","","","","","","1180.2999999523163","","","","Images/NewTrialBC.png","","0"
"image-button-response","198","444491","0.0-13.0-1.46","19","Low_HMMActual","","","","","","null","","","","Images/BlackBeadChoice.png","","null"
"image-button-response","199","445001","0.0-13.0-2.46","19","Low_HMMActual","","","","","","null","","","","Images/BlackBeadChoiceWrong.png","","null"
"image-button-response","200","446475","0.0-13.0-0.47","19","Low_HMMActual","","","","","","1472.3999999761581","","","","Images/NewTrialWC.png","","3"
"image-button-response","201","446776","0.0-13.0-1.47","19","Low_HMMActual","","","","","","null","","","","Images/WhiteBeadChoice.png","","null"
"image-button-response","202","447277","0.0-13.0-2.47","19","Low_HMMActual","","","","","","null","","","","Images/WhiteBeadChoiceCorrect.png","","null"
"image-button-response","203","447720","0.0-13.0-0.48","19","Low_HMMActual","","","","","","441.5","","","","Images/NewTrialWC.png","","2"
"image-button-response","204","448034","0.0-13.0-1.48","19","Low_HMMActual","","","","","","null","","","","Images/WhiteBeadChoice.png","","null"
"image-button-response","205","448545","0.0-13.0-2.48","19","Low_HMMActual","","","","","","null","","","","Images/WhiteBeadChoiceCorrect.png","","null"
"image-button-response","206","449089","0.0-13.0-0.49","19","Low_HMMActual","","","","","","542.8000000715256","","","","Images/NewTrialWC.png","","2"
"image-button-response","207","449393","0.0-13.0-1.49","19","Low_HMMActual","","","","","","null","","","","Images/WhiteBeadChoice.png","","null"
"image-button-response","208","449904","0.0-13.0-2.49","19","Low_HMMActual","","","","","","null","","","","Images/WhiteBeadChoiceCorrect.png","","null"
"image-button-response","209","450641","0.0-13.0-0.50","19","Low_HMMActual","","","","","","735.5","","","","Images/NewTrialWC.png","","3"
"image-button-response","210","450943","0.0-13.0-1.50","19","Low_HMMActual","","","","","","null","","","","Images/WhiteBeadChoice.png","","null"
"image-button-response","211","451445","0.0-13.0-2.50","19","Low_HMMActual","","","","","","null","","","","Images/WhiteBeadChoiceWrong.png","","null"
"image-button-response","212","455094","0.0-13.0-0.51","19","Low_HMMActual","","","","","","3648.7000000476837","","","","Images/NewTrialBC.png","","1"
"image-button-response","213","455396","0.0-13.0-1.51","19","Low_HMMActual","","","","","","null","","","","Images/BlackBeadChoice.png","","null"
"image-button-response","214","455898","0.0-13.0-2.51","19","Low_HMMActual","","","","","","null","","","","Images/BlackBeadChoiceCorrect.png","","null"
"image-button-response","215","456632","0.0-13.0-0.52","19","Low_HMMActual","","","","","","732.5","","","","Images/NewTrialBC.png","","0"
"image-button-response","216","456933","0.0-13.0-1.52","19","Low_HMMActual","","","","","","null","","","","Images/BlackBeadChoice.png","","null"
"image-button-response","217","457435","0.0-13.0-2.52","19","Low_HMMActual","","","","","","null","","","","Images/BlackBeadChoiceCorrect.png","","null"
"image-button-response","218","457883","0.0-13.0-0.53","19","Low_HMMActual","","","","","","447.5","","","","Images/NewTrialBC.png","","0"
"image-button-response","219","458196","0.0-13.0-1.53","19","Low_HMMActual","","","","","","null","","","","Images/BlackBeadChoice.png","","null"
"image-button-response","220","458698","0.0-13.0-2.53","19","Low_HMMActual","","","","","","null","","","","Images/BlackBeadChoiceWrong.png","","null"
"image-button-response","221","460119","0.0-13.0-0.54","19","Low_HMMActual","","","","","","1420.1000000238419","","","","Images/NewTrialWC.png","","3"
"image-button-response","222","460420","0.0-13.0-1.54","19","Low_HMMActual","","","","","","null","","","","Images/WhiteBeadChoice.png","","null"
"image-button-response","223","460922","0.0-13.0-2.54","19","Low_HMMActual","","","","","","null","","","","Images/WhiteBeadChoiceWrong.png","","null"
"image-button-response","224","465343","0.0-13.0-0.55","19","Low_HMMActual","","","","","","4420.200000047684","","","","Images/NewTrialBC.png","","1"
"image-button-response","225","465656","0.0-13.0-1.55","19","Low_HMMActual","","","","","","null","","","","Images/BlackBeadChoice.png","","null"
"image-button-response","226","466165","0.0-13.0-2.55","19","Low_HMMActual","","","","","","null","","","","Images/BlackBeadChoiceCorrect.png","","null"
"image-button-response","227","467247","0.0-13.0-0.56","19","Low_HMMActual","","","","","","1081.3999999761581","","","","Images/NewTrialBC.png","","0"
"image-button-response","228","467549","0.0-13.0-1.56","19","Low_HMMActual","","","","","","null","","","","Images/BlackBeadChoice.png","","null"
"image-button-response","229","468051","0.0-13.0-2.56","19","Low_HMMActual","","","","","","null","","","","Images/BlackBeadChoiceCorrect.png","","null"
"image-button-response","230","469221","0.0-13.0-0.57","19","Low_HMMActual","","","","","","1168.5","","","","Images/NewTrialBC.png","","1"
"image-button-response","231","469524","0.0-13.0-1.57","19","Low_HMMActual","","","","","","null","","","","Images/BlackBeadChoice.png","","null"
"image-button-response","232","470027","0.0-13.0-2.57","19","Low_HMMActual","","","","","","null","","","","Images/BlackBeadChoiceCorrect.png","","null"
"image-button-response","233","470478","0.0-13.0-0.58","19","Low_HMMActual","","","","","","450.2999999523163","","","","Images/NewTrialBC.png","","1"
"image-button-response","234","470779","0.0-13.0-1.58","19","Low_HMMActual","","","","","","null","","","","Images/BlackBeadChoice.png","","null"
"image-button-response","235","471283","0.0-13.0-2.58","19","Low_HMMActual","","","","","","null","","","","Images/BlackBeadChoiceCorrect.png","","null"
"image-button-response","236","471938","0.0-13.0-0.59","19","Low_HMMActual","","","","","","653.6000000238419","","","","Images/NewTrialBC.png","","1"
"image-button-response","237","472240","0.0-13.0-1.59","19","Low_HMMActual","","","","","","null","","","","Images/BlackBeadChoice.png","","null"
"image-button-response","238","472741","0.0-13.0-2.59","19","Low_HMMActual","","","","","","null","","","","Images/BlackBeadChoiceWrong.png","","null"
"image-button-response","239","473373","0.0-13.0-0.60","19","Low_HMMActual","","","","","","631.3000000715256","","","","Images/NewTrialWC.png","","3"
"image-button-response","240","473677","0.0-13.0-1.60","19","Low_HMMActual","","","","","","null","","","","Images/WhiteBeadChoice.png","","null"
"image-button-response","241","474185","0.0-13.0-2.60","19","Low_HMMActual","","","","","","null","","","","Images/WhiteBeadChoiceCorrect.png","","null"
"image-button-response","242","474732","0.0-13.0-0.61","19","Low_HMMActual","","","","","","544.6999999284744","","","","Images/NewTrialWC.png","","2"
"image-button-response","243","475037","0.0-13.0-1.61","19","Low_HMMActual","","","","","","null","","","","Images/WhiteBeadChoice.png","","null"
"image-button-response","244","475548","0.0-13.0-2.61","19","Low_HMMActual","","","","","","null","","","","Images/WhiteBeadChoiceCorrect.png","","null"
"image-button-response","245","476044","0.0-13.0-0.62","19","Low_HMMActual","","","","","","494.60000002384186","","","","Images/NewTrialWC.png","","2"
"image-button-response","246","476355","0.0-13.0-1.62","19","Low_HMMActual","","","","","","null","","","","Images/WhiteBeadChoice.png","","null"
"image-button-response","247","476858","0.0-13.0-2.62","19","Low_HMMActual","","","","","","null","","","","Images/WhiteBeadChoiceWrong.png","","null"
"image-button-response","248","478723","0.0-13.0-0.63","19","Low_HMMActual","","","","","","1865.1000000238419","","","","Images/NewTrialBC.png","","1"
"image-button-response","249","479027","0.0-13.0-1.63","19","Low_HMMActual","","","","","","null","","","","Images/BlackBeadChoice.png","","null"
"image-button-response","250","479529","0.0-13.0-2.63","19","Low_HMMActual","","","","","","null","","","","Images/BlackBeadChoiceCorrect.png","","null"
"image-button-response","251","479768","0.0-13.0-0.64","19","Low_HMMActual","","","","","","237.60000002384186","","","","Images/NewTrialBC.png","","0"
"image-button-response","252","480070","0.0-13.0-1.64","19","Low_HMMActual","","","","","","null","","","","Images/BlackBeadChoice.png","","null"
"image-button-response","253","480572","0.0-13.0-2.64","19","Low_HMMActual","","","","","","null","","","","Images/BlackBeadChoiceWrong.png","","null"
"image-button-response","254","481962","0.0-13.0-0.65","19","Low_HMMActual","","","","","","1389.1000000238419","","","","Images/NewTrialWC.png","","3"
"image-button-response","255","482264","0.0-13.0-1.65","19","Low_HMMActual","","","","","","null","","","","Images/WhiteBeadChoice.png","","null"
"image-button-response","256","482765","0.0-13.0-2.65","19","Low_HMMActual","","","","","","null","","","","Images/WhiteBeadChoiceWrong.png","","null"
"image-button-response","257","483590","0.0-13.0-0.66","19","Low_HMMActual","","","","","","824.3999999761581","","","","Images/NewTrialBC.png","","0"
"image-button-response","258","483892","0.0-13.0-1.66","19","Low_HMMActual","","","","","","null","","","","Images/BlackBeadChoice.png","","null"
"image-button-response","259","484393","0.0-13.0-2.66","19","Low_HMMActual","","","","","","null","","","","Images/BlackBeadChoiceCorrect.png","","null"
"image-button-response","260","485372","0.0-13.0-0.67","19","Low_HMMActual","","","","","","978","","","","Images/NewTrialBC.png","","1"
"image-button-response","261","485674","0.0-13.0-1.67","19","Low_HMMActual","","","","","","null","","","","Images/BlackBeadChoice.png","","null"
"image-button-response","262","486176","0.0-13.0-2.67","19","Low_HMMActual","","","","","","null","","","","Images/BlackBeadChoiceCorrect.png","","null"
"image-button-response","263","487508","0.0-13.0-0.68","19","Low_HMMActual","","","","","","1331.6000000238419","","","","Images/NewTrialBC.png","","3"
"image-button-response","264","487810","0.0-13.0-1.68","19","Low_HMMActual","","","","","","null","","","","Images/WhiteBeadChoice.png","","null"
"image-button-response","265","488315","0.0-13.0-2.68","19","Low_HMMActual","","","","","","null","","","","Images/WhiteBeadChoiceCorrect.png","","null"
"image-button-response","266","494123","0.0-13.0-0.69","19","Low_HMMActual","","","","","","5806.100000023842","","","","Images/NewTrialWC.png","","3"
"image-button-response","267","494425","0.0-13.0-1.69","19","Low_HMMActual","","","","","","null","","","","Images/WhiteBeadChoice.png","","null"
"image-button-response","268","494926","0.0-13.0-2.69","19","Low_HMMActual","","","","","","null","","","","Images/WhiteBeadChoiceWrong.png","","null"
"image-button-response","269","495763","0.0-13.0-0.70","19","Low_HMMActual","","","","","","835.5999999046326","","","","Images/NewTrialBC.png","","1"
"image-button-response","270","496064","0.0-13.0-1.70","19","Low_HMMActual","","","","","","null","","","","Images/BlackBeadChoice.png","","null"
"image-button-response","271","496566","0.0-13.0-2.70","19","Low_HMMActual","","","","","","null","","","","Images/BlackBeadChoiceWrong.png","","null"
"image-button-response","272","498573","0.0-13.0-0.71","19","Low_HMMActual","","","","","","2007","","","","Images/NewTrialWC.png","","2"
"image-button-response","273","498887","0.0-13.0-1.71","19","Low_HMMActual","","","","","","null","","","","Images/WhiteBeadChoice.png","","null"
"image-button-response","274","499389","0.0-13.0-2.71","19","Low_HMMActual","","","","","","null","","","","Images/WhiteBeadChoiceWrong.png","","null"
"image-button-response","275","500458","0.0-13.0-0.72","19","Low_HMMActual","","","","","","1067.8999999761581","","","","Images/NewTrialBC.png","","1"
"image-button-response","276","500760","0.0-13.0-1.72","19","Low_HMMActual","","","","","","null","","","","Images/BlackBeadChoice.png","","null"
"image-button-response","277","501262","0.0-13.0-2.72","19","Low_HMMActual","","","","","","null","","","","Images/BlackBeadChoiceCorrect.png","","null"
"image-button-response","278","503811","0.0-13.0-0.73","19","Low_HMMActual","","","","","","2547.7999999523163","","","","Images/NewTrialBC.png","","0"
"image-button-response","279","504113","0.0-13.0-1.73","19","Low_HMMActual","","","","","","null","","","","Images/BlackBeadChoice.png","","null"
"image-button-response","280","504615","0.0-13.0-2.73","19","Low_HMMActual","","","","","","null","","","","Images/BlackBeadChoiceCorrect.png","","null"
"image-button-response","281","505585","0.0-13.0-0.74","19","Low_HMMActual","","","","","","968.1000000238419","","","","Images/NewTrialBC.png","","1"
"image-button-response","282","505888","0.0-13.0-1.74","19","Low_HMMActual","","","","","","null","","","","Images/BlackBeadChoice.png","","null"
"image-button-response","283","506391","0.0-13.0-2.74","19","Low_HMMActual","","","","","","null","","","","Images/BlackBeadChoiceCorrect.png","","null"
"image-button-response","284","506983","0.0-13.0-0.75","19","Low_HMMActual","","","","","","590.6000000238419","","","","Images/NewTrialBC.png","","1"
"image-button-response","285","507284","0.0-13.0-1.75","19","Low_HMMActual","","","","","","null","","","","Images/BlackBeadChoice.png","","null"
"image-button-response","286","507786","0.0-13.0-2.75","19","Low_HMMActual","","","","","","null","","","","Images/BlackBeadChoiceCorrect.png","","null"
"image-button-response","287","508999","0.0-13.0-0.76","19","Low_HMMActual","","","","","","1211.1000000238419","","","","Images/NewTrialBC.png","","3"
"image-button-response","288","509305","0.0-13.0-1.76","19","Low_HMMActual","","","","","","null","","","","Images/WhiteBeadChoice.png","","null"
"image-button-response","289","509815","0.0-13.0-2.76","19","Low_HMMActual","","","","","","null","","","","Images/WhiteBeadChoiceWrong.png","","null"
"image-button-response","290","511232","0.0-13.0-0.77","19","Low_HMMActual","","","","","","1415.6000000238419","","","","Images/NewTrialBC.png","","3"
"image-button-response","291","511547","0.0-13.0-1.77","19","Low_HMMActual","","","","","","null","","","","Images/WhiteBeadChoice.png","","null"
"image-button-response","292","512056","0.0-13.0-2.77","19","Low_HMMActual","","","","","","null","","","","Images/WhiteBeadChoiceCorrect.png","","null"
"image-button-response","293","514415","0.0-13.0-0.78","19","Low_HMMActual","","","","","","2357.899999976158","","","","Images/NewTrialWC.png","","2"
"image-button-response","294","514719","0.0-13.0-1.78","19","Low_HMMActual","","","","","","null","","","","Images/WhiteBeadChoice.png","","null"
"image-button-response","295","515221","0.0-13.0-2.78","19","Low_HMMActual","","","","","","null","","","","Images/WhiteBeadChoiceWrong.png","","null"
"image-button-response","296","517378","0.0-13.0-0.79","19","Low_HMMActual","","","","","","2156.8000000715256","","","","Images/NewTrialBC.png","","3"
"image-button-response","297","517680","0.0-13.0-1.79","19","Low_HMMActual","","","","","","null","","","","Images/WhiteBeadChoice.png","","null"
"image-button-response","298","518182","0.0-13.0-2.79","19","Low_HMMActual","","","","","","null","","","","Images/WhiteBeadChoiceWrong.png","","null"
"image-button-response","299","519243","0.0-13.0-0.80","19","Low_HMMActual","","","","","","1059.1999999284744","","","","Images/NewTrialBC.png","","1"
"image-button-response","300","519545","0.0-13.0-1.80","19","Low_HMMActual","","","","","","109.10000002384186","","","","Images/BlackBeadChoice.png","","1"
"image-button-response","301","520046","0.0-13.0-2.80","19","Low_HMMActual","","","","","","null","","","","Images/BlackBeadChoiceWrong.png","","null"
"image-button-response","302","520544","0.0-13.0-0.81","19","Low_HMMActual","","","","","","496.60000002384186","","","","Images/NewTrialWC.png","","3"
"image-button-response","303","520845","0.0-13.0-1.81","19","Low_HMMActual","","","","","","null","","","","Images/WhiteBeadChoice.png","","null"
"image-button-response","304","521357","0.0-13.0-2.81","19","Low_HMMActual","","","","","","null","","","","Images/WhiteBeadChoiceCorrect.png","","null"
"image-button-response","305","522631","0.0-13.0-0.82","19","Low_HMMActual","","","","","","1272.2999999523163","","","","Images/NewTrialWC.png","","3"
"image-button-response","306","522932","0.0-13.0-1.82","19","Low_HMMActual","","","","","","null","","","","Images/WhiteBeadChoice.png","","null"
"image-button-response","307","523441","0.0-13.0-2.82","19","Low_HMMActual","","","","","","null","","","","Images/WhiteBeadChoiceWrong.png","","null"
"image-button-response","308","526763","0.0-13.0-0.83","19","Low_HMMActual","","","","","","3321.4000000953674","","","","Images/NewTrialBC.png","","1"
"image-button-response","309","527065","0.0-13.0-1.83","19","Low_HMMActual","","","","","","null","","","","Images/BlackBeadChoice.png","","null"
"image-button-response","310","527570","0.0-13.0-2.83","19","Low_HMMActual","","","","","","null","","","","Images/BlackBeadChoiceCorrect.png","","null"
"image-button-response","311","529620","0.0-13.0-0.84","19","Low_HMMActual","","","","","","2048.3000000715256","","","","Images/NewTrialBC.png","","0"
"image-button-response","312","529922","0.0-13.0-1.84","19","Low_HMMActual","","","","","","null","","","","Images/BlackBeadChoice.png","","null"
"image-button-response","313","530425","0.0-13.0-2.84","19","Low_HMMActual","","","","","","null","","","","Images/BlackBeadChoiceCorrect.png","","null"
"image-button-response","314","531267","0.0-13.0-0.85","19","Low_HMMActual","","","","","","841.2000000476837","","","","Images/NewTrialBC.png","","1"
"image-button-response","315","531570","0.0-13.0-1.85","19","Low_HMMActual","","","","","","null","","","","Images/BlackBeadChoice.png","","null"
"image-button-response","316","532071","0.0-13.0-2.85","19","Low_HMMActual","","","","","","null","","","","Images/BlackBeadChoiceCorrect.png","","null"
"image-button-response","317","532995","0.0-13.0-0.86","19","Low_HMMActual","","","","","","922.6000000238419","","","","Images/NewTrialBC.png","","1"
"image-button-response","318","533297","0.0-13.0-1.86","19","Low_HMMActual","","","","","","null","","","","Images/BlackBeadChoice.png","","null"
"image-button-response","319","533798","0.0-13.0-2.86","19","Low_HMMActual","","","","","","null","","","","Images/BlackBeadChoiceWrong.png","","null"
"image-button-response","320","534846","0.0-13.0-0.87","19","Low_HMMActual","","","","","","1047.8000000715256","","","","Images/NewTrialWC.png","","3"
"image-button-response","321","535148","0.0-13.0-1.87","19","Low_HMMActual","","","","","","null","","","","Images/WhiteBeadChoice.png","","null"
"image-button-response","322","535662","0.0-13.0-2.87","19","Low_HMMActual","","","","","","null","","","","Images/WhiteBeadChoiceCorrect.png","","null"
"image-button-response","323","538358","0.0-13.0-0.88","19","Low_HMMActual","","","","","","2694.600000023842","","","","Images/NewTrialWC.png","","2"
"image-button-response","324","538664","0.0-13.0-1.88","19","Low_HMMActual","","","","","","null","","","","Images/WhiteBeadChoice.png","","null"
"image-button-response","325","539174","0.0-13.0-2.88","19","Low_HMMActual","","","","","","null","","","","Images/WhiteBeadChoiceCorrect.png","","null"
"image-button-response","326","539679","0.0-13.0-0.89","19","Low_HMMActual","","","","","","504.5","","","","Images/NewTrialWC.png","","2"
"image-button-response","327","539981","0.0-13.0-1.89","19","Low_HMMActual","","","","","","null","","","","Images/WhiteBeadChoice.png","","null"
"image-button-response","328","540482","0.0-13.0-2.89","19","Low_HMMActual","","","","","","null","","","","Images/WhiteBeadChoiceWrong.png","","null"
"image-button-response","329","542824","0.0-13.0-0.90","19","Low_HMMActual","","","","","","2340.399999976158","","","","Images/NewTrialBC.png","","1"
"image-button-response","330","543125","0.0-13.0-1.90","19","Low_HMMActual","","","","","","null","","","","Images/BlackBeadChoice.png","","null"
"image-button-response","331","543626","0.0-13.0-2.90","19","Low_HMMActual","","","","","","null","","","","Images/BlackBeadChoiceCorrect.png","","null"
"image-button-response","332","543889","0.0-13.0-0.91","19","Low_HMMActual","","","","","","261.5","","","","Images/NewTrialBC.png","","0"
"image-button-response","333","544189","0.0-13.0-1.91","19","Low_HMMActual","","","","","","null","","","","Images/BlackBeadChoice.png","","null"
"image-button-response","334","544691","0.0-13.0-2.91","19","Low_HMMActual","","","","","","null","","","","Images/BlackBeadChoiceCorrect.png","","null"
"image-button-response","335","544968","0.0-13.0-0.92","19","Low_HMMActual","","","","","","276","","","","Images/NewTrialBC.png","","1"
"image-button-response","336","545270","0.0-13.0-1.92","19","Low_HMMActual","","","","","","null","","","","Images/BlackBeadChoice.png","","null"
"image-button-response","337","545772","0.0-13.0-2.92","19","Low_HMMActual","","","","","","null","","","","Images/BlackBeadChoiceWrong.png","","null"
"image-button-response","338","547040","0.0-13.0-0.93","19","Low_HMMActual","","","","","","1265.7999999523163","","","","Images/NewTrialWC.png","","3"
"image-button-response","339","547354","0.0-13.0-1.93","19","Low_HMMActual","","","","","","null","","","","Images/WhiteBeadChoice.png","","null"
"image-button-response","340","547856","0.0-13.0-2.93","19","Low_HMMActual","","","","","","null","","","","Images/WhiteBeadChoiceCorrect.png","","null"
"image-button-response","341","548461","0.0-13.0-0.94","19","Low_HMMActual","","","","","","604.1000000238419","","","","Images/NewTrialWC.png","","2"
"image-button-response","342","548767","0.0-13.0-1.94","19","Low_HMMActual","","","","","","null","","","","Images/WhiteBeadChoice.png","","null"
"image-button-response","343","549269","0.0-13.0-2.94","19","Low_HMMActual","","","","","","null","","","","Images/WhiteBeadChoiceWrong.png","","null"
"image-button-response","344","549707","0.0-13.0-0.95","19","Low_HMMActual","","","","","","436.8000000715256","","","","Images/NewTrialBC.png","","1"
"image-button-response","345","550009","0.0-13.0-1.95","19","Low_HMMActual","","","","","","null","","","","Images/BlackBeadChoice.png","","null"
"image-button-response","346","550514","0.0-13.0-2.95","19","Low_HMMActual","","","","","","null","","","","Images/BlackBeadChoiceCorrect.png","","null"
"image-button-response","347","551322","0.0-13.0-0.96","19","Low_HMMActual","","","","","","806.2000000476837","","","","Images/NewTrialBC.png","","0"
"image-button-response","348","551623","0.0-13.0-1.96","19","Low_HMMActual","","","","","","null","","","","Images/BlackBeadChoice.png","","null"
"image-button-response","349","552124","0.0-13.0-2.96","19","Low_HMMActual","","","","","","null","","","","Images/BlackBeadChoiceCorrect.png","","null"
"image-button-response","350","553057","0.0-13.0-0.97","19","Low_HMMActual","","","","","","931.1999999284744","","","","Images/NewTrialBC.png","","1"
"image-button-response","351","553358","0.0-13.0-1.97","19","Low_HMMActual","","","","","","null","","","","Images/BlackBeadChoice.png","","null"
"image-button-response","352","553860","0.0-13.0-2.97","19","Low_HMMActual","","","","","","null","","","","Images/BlackBeadChoiceCorrect.png","","null"
"image-button-response","353","554428","0.0-13.0-0.98","19","Low_HMMActual","","","","","","566.7000000476837","","","","Images/NewTrialBC.png","","1"
"image-button-response","354","554729","0.0-13.0-1.98","19","Low_HMMActual","","","","","","null","","","","Images/BlackBeadChoice.png","","null"
"image-button-response","355","555231","0.0-13.0-2.98","19","Low_HMMActual","","","","","","null","","","","Images/BlackBeadChoiceWrong.png","","null"
"image-button-response","356","555840","0.0-13.0-0.99","19","Low_HMMActual","","","","","","608.4000000953674","","","","Images/NewTrialWC.png","","3"
"image-button-response","357","556143","0.0-13.0-1.99","19","Low_HMMActual","","","","","","null","","","","Images/WhiteBeadChoice.png","","null"
"image-button-response","358","556644","0.0-13.0-2.99","19","Low_HMMActual","","","","","","null","","","","Images/WhiteBeadChoiceWrong.png","","null"
"image-button-response","359","558245","0.0-13.0-0.100","19","Low_HMMActual","","","","","","1599.7000000476837","","","","Images/NewTrialBC.png","","1"
"image-button-response","360","558547","0.0-13.0-1.100","19","Low_HMMActual","","","","","","null","","","","Images/BlackBeadChoice.png","","null"
"image-button-response","361","559048","0.0-13.0-2.100","19","Low_HMMActual","","","","","","null","","","","Images/BlackBeadChoiceWrong.png","","null"
"image-button-response","362","560316","0.0-13.0-0.101","19","Low_HMMActual","","","","","","1267.2000000476837","","","","Images/NewTrialWC.png","","2"
"image-button-response","363","560618","0.0-13.0-1.101","19","Low_HMMActual","","","","","","null","","","","Images/WhiteBeadChoice.png","","null"
"image-button-response","364","561133","0.0-13.0-2.101","19","Low_HMMActual","","","","","","null","","","","Images/WhiteBeadChoiceCorrect.png","","null"
"image-button-response","365","561915","0.0-13.0-0.102","19","Low_HMMActual","","","","","","780.3999999761581","","","","Images/NewTrialWC.png","","2"
"image-button-response","366","562230","0.0-13.0-1.102","19","Low_HMMActual","","","","","","null","","","","Images/WhiteBeadChoice.png","","null"
"image-button-response","367","562731","0.0-13.0-2.102","19","Low_HMMActual","","","","","","null","","","","Images/WhiteBeadChoiceCorrect.png","","null"
"image-button-response","368","564371","0.0-13.0-0.103","19","Low_HMMActual","","","","","","1638.6000000238419","","","","Images/NewTrialWC.png","","1"
"image-button-response","369","564687","0.0-13.0-1.103","19","Low_HMMActual","","","","","","null","","","","Images/BlackBeadChoice.png","","null"
"image-button-response","370","565188","0.0-13.0-2.103","19","Low_HMMActual","","","","","","null","","","","Images/BlackBeadChoiceCorrect.png","","null"
"image-button-response","371","566598","0.0-13.0-0.104","19","Low_HMMActual","","","","","","1408.7000000476837","","","","Images/NewTrialBC.png","","1"
"image-button-response","372","566899","0.0-13.0-1.104","19","Low_HMMActual","","","","","","null","","","","Images/BlackBeadChoice.png","","null"
"image-button-response","373","567401","0.0-13.0-2.104","19","Low_HMMActual","","","","","","null","","","","Images/BlackBeadChoiceWrong.png","","null"
"image-button-response","374","568164","0.0-13.0-0.105","19","Low_HMMActual","","","","","","762.2999999523163","","","","Images/NewTrialWC.png","","3"
"image-button-response","375","568466","0.0-13.0-1.105","19","Low_HMMActual","","","","","","null","","","","Images/WhiteBeadChoice.png","","null"
"image-button-response","376","568968","0.0-13.0-2.105","19","Low_HMMActual","","","","","","null","","","","Images/WhiteBeadChoiceCorrect.png","","null"
"image-button-response","377","569936","0.0-13.0-0.106","19","Low_HMMActual","","","","","","967.7000000476837","","","","Images/NewTrialWC.png","","1"
"image-button-response","378","570252","0.0-13.0-1.106","19","Low_HMMActual","","","","","","null","","","","Images/BlackBeadChoice.png","","null"
"image-button-response","379","570754","0.0-13.0-2.106","19","Low_HMMActual","","","","","","null","","","","Images/BlackBeadChoiceWrong.png","","null"
"image-button-response","380","571530","0.0-13.0-0.107","19","Low_HMMActual","","","","","","775","","","","Images/NewTrialWC.png","","3"
"image-button-response","381","571831","0.0-13.0-1.107","19","Low_HMMActual","","","","","","null","","","","Images/WhiteBeadChoice.png","","null"
"image-button-response","382","572333","0.0-13.0-2.107","19","Low_HMMActual","","","","","","null","","","","Images/WhiteBeadChoiceCorrect.png","","null"
"image-button-response","383","572778","0.0-13.0-0.108","19","Low_HMMActual","","","","","","443.60000002384186","","","","Images/NewTrialWC.png","","3"
"image-button-response","384","573079","0.0-13.0-1.108","19","Low_HMMActual","","","","","","null","","","","Images/WhiteBeadChoice.png","","null"
"image-button-response","385","573588","0.0-13.0-2.108","19","Low_HMMActual","","","","","","null","","","","Images/WhiteBeadChoiceCorrect.png","","null"
"image-button-response","386","574148","0.0-13.0-0.109","19","Low_HMMActual","","","","","","559.5","","","","Images/NewTrialWC.png","","3"
"image-button-response","387","574450","0.0-13.0-1.109","19","Low_HMMActual","","","","","","null","","","","Images/WhiteBeadChoice.png","","null"
"image-button-response","388","574961","0.0-13.0-2.109","19","Low_HMMActual","","","","","","null","","","","Images/WhiteBeadChoiceCorrect.png","","null"
"image-button-response","389","575545","0.0-13.0-0.110","19","Low_HMMActual","","","","","","581.7000000476837","","","","Images/NewTrialWC.png","","3"
"image-button-response","390","575847","0.0-13.0-1.110","19","Low_HMMActual","","","","","","null","","","","Images/WhiteBeadChoice.png","","null"
"image-button-response","391","576348","0.0-13.0-2.110","19","Low_HMMActual","","","","","","null","","","","Images/WhiteBeadChoiceWrong.png","","null"
"image-button-response","392","577132","0.0-13.0-0.111","19","Low_HMMActual","","","","","","782.3999999761581","","","","Images/NewTrialBC.png","","0"
"image-button-response","393","577433","0.0-13.0-1.111","19","Low_HMMActual","","","","","","null","","","","Images/BlackBeadChoice.png","","null"
"image-button-response","394","577935","0.0-13.0-2.111","19","Low_HMMActual","","","","","","null","","","","Images/BlackBeadChoiceCorrect.png","","null"
"image-button-response","395","578715","0.0-13.0-0.112","19","Low_HMMActual","","","","","","779.1000000238419","","","","Images/NewTrialBC.png","","0"
"image-button-response","396","579017","0.0-13.0-1.112","19","Low_HMMActual","","","","","","null","","","","Images/BlackBeadChoice.png","","null"
"image-button-response","397","579518","0.0-13.0-2.112","19","Low_HMMActual","","","","","","null","","","","Images/BlackBeadChoiceWrong.png","","null"
"image-button-response","398","581334","0.0-13.0-0.113","19","Low_HMMActual","","","","","","1815.1000000238419","","","","Images/NewTrialWC.png","","3"
"image-button-response","399","581636","0.0-13.0-1.113","19","Low_HMMActual","","","","","","null","","","","Images/WhiteBeadChoice.png","","null"
"image-button-response","400","582146","0.0-13.0-2.113","19","Low_HMMActual","","","","","","null","","","","Images/WhiteBeadChoiceCorrect.png","","null"
"image-button-response","401","582385","0.0-13.0-0.114","19","Low_HMMActual","","","","","","237.60000002384186","","","","Images/NewTrialWC.png","","3"
"image-button-response","402","582688","0.0-13.0-1.114","19","Low_HMMActual","","","","","","null","","","","Images/WhiteBeadChoice.png","","null"
"image-button-response","403","583200","0.0-13.0-2.114","19","Low_HMMActual","","","","","","null","","","","Images/WhiteBeadChoiceCorrect.png","","null"
"image-button-response","404","584022","0.0-13.0-0.115","19","Low_HMMActual","","","","","","820.4000000953674","","","","Images/NewTrialWC.png","","2"
"image-button-response","405","584329","0.0-13.0-1.115","19","Low_HMMActual","","","","","","null","","","","Images/WhiteBeadChoice.png","","null"
"image-button-response","406","584832","0.0-13.0-2.115","19","Low_HMMActual","","","","","","null","","","","Images/WhiteBeadChoiceCorrect.png","","null"
"image-button-response","407","585584","0.0-13.0-0.116","19","Low_HMMActual","","","","","","751.1000000238419","","","","Images/NewTrialWC.png","","3"
"image-button-response","408","585886","0.0-13.0-1.116","19","Low_HMMActual","","","","","","null","","","","Images/WhiteBeadChoice.png","","null"
"image-button-response","409","586387","0.0-13.0-2.116","19","Low_HMMActual","","","","","","null","","","","Images/WhiteBeadChoiceWrong.png","","null"
"image-button-response","410","591144","0.0-13.0-0.117","19","Low_HMMActual","","","","","","4756.199999928474","","","","Images/NewTrialBC.png","","1"
"image-button-response","411","591446","0.0-13.0-1.117","19","Low_HMMActual","","","","","","null","","","","Images/BlackBeadChoice.png","","null"
"image-button-response","412","591955","0.0-13.0-2.117","19","Low_HMMActual","","","","","","null","","","","Images/BlackBeadChoiceCorrect.png","","null"
"image-button-response","413","593301","0.0-13.0-0.118","19","Low_HMMActual","","","","","","1344.1999999284744","","","","Images/NewTrialBC.png","","0"
"image-button-response","414","593607","0.0-13.0-1.118","19","Low_HMMActual","","","","","","null","","","","Images/BlackBeadChoice.png","","null"
"image-button-response","415","594109","0.0-13.0-2.118","19","Low_HMMActual","","","","","","null","","","","Images/BlackBeadChoiceCorrect.png","","null"
"image-button-response","416","595206","0.0-13.0-0.119","19","Low_HMMActual","","","","","","1096.1000000238419","","","","Images/NewTrialBC.png","","1"
"image-button-response","417","595507","0.0-13.0-1.119","19","Low_HMMActual","","","","","","null","","","","Images/BlackBeadChoice.png","","null"
"image-button-response","418","596023","0.0-13.0-2.119","19","Low_HMMActual","","","","","","null","","","","Images/BlackBeadChoiceCorrect.png","","null"
"image-button-response","419","596694","0.0-13.0-0.120","19","Low_HMMActual","","","","","","670.2000000476837","","","","Images/NewTrialBC.png","","1"
"image-button-response","420","596996","0.0-13.0-1.120","19","Low_HMMActual","","","","","","null","","","","Images/BlackBeadChoice.png","","null"
"image-button-response","421","597497","0.0-13.0-2.120","19","Low_HMMActual","","","","","","null","","","","Images/BlackBeadChoiceWrong.png","","null"
"image-button-response","422","598642","0.0-13.0-0.121","19","Low_HMMActual","","","","","","1144.3000000715256","","","","Images/NewTrialWC.png","","3"
"image-button-response","423","598950","0.0-13.0-1.121","19","Low_HMMActual","","","","","","null","","","","Images/WhiteBeadChoice.png","","null"
"image-button-response","424","599461","0.0-13.0-2.121","19","Low_HMMActual","","","","","","null","","","","Images/WhiteBeadChoiceCorrect.png","","null"
"image-button-response","425","600157","0.0-13.0-0.122","19","Low_HMMActual","","","","","","695.2000000476837","","","","Images/NewTrialWC.png","","2"
"image-button-response","426","600459","0.0-13.0-1.122","19","Low_HMMActual","","","","","","null","","","","Images/WhiteBeadChoice.png","","null"
"image-button-response","427","600961","0.0-13.0-2.122","19","Low_HMMActual","","","","","","null","","","","Images/WhiteBeadChoiceCorrect.png","","null"
"image-button-response","428","601089","0.0-13.0-0.123","19","Low_HMMActual","","","","","","126.70000004768372","","","","Images/NewTrialWC.png","","2"
"image-button-response","429","601391","0.0-13.0-1.123","19","Low_HMMActual","","","","","","null","","","","Images/WhiteBeadChoice.png","","null"
"image-button-response","430","601892","0.0-13.0-2.123","19","Low_HMMActual","","","","","","null","","","","Images/WhiteBeadChoiceWrong.png","","null"
"image-button-response","431","602674","0.0-13.0-0.124","19","Low_HMMActual","","","","","","780.6000000238419","","","","Images/NewTrialBC.png","","1"
"image-button-response","432","602975","0.0-13.0-1.124","19","Low_HMMActual","","","","","","null","","","","Images/BlackBeadChoice.png","","null"
"image-button-response","433","603477","0.0-13.0-2.124","19","Low_HMMActual","","","","","","null","","","","Images/BlackBeadChoiceCorrect.png","","null"
"image-button-response","434","604400","0.0-13.0-0.125","19","Low_HMMActual","","","","","","922.2999999523163","","","","Images/NewTrialBC.png","","0"
"image-button-response","435","604702","0.0-13.0-1.125","19","Low_HMMActual","","","","","","null","","","","Images/BlackBeadChoice.png","","null"
"image-button-response","436","605203","0.0-13.0-2.125","19","Low_HMMActual","","","","","","null","","","","Images/BlackBeadChoiceWrong.png","","null"
"image-button-response","437","607170","0.0-13.0-0.126","19","Low_HMMActual","","","","","","1965.9000000953674","","","","Images/NewTrialWC.png","","3"
"image-button-response","438","607472","0.0-13.0-1.126","19","Low_HMMActual","","","","","","null","","","","Images/WhiteBeadChoice.png","","null"
"image-button-response","439","607973","0.0-13.0-2.126","19","Low_HMMActual","","","","","","null","","","","Images/WhiteBeadChoiceWrong.png","","null"
"image-button-response","440","609311","0.0-13.0-0.127","19","Low_HMMActual","","","","","","1337.8999999761581","","","","Images/NewTrialBC.png","","1"
"image-button-response","441","609613","0.0-13.0-1.127","19","Low_HMMActual","","","","","","null","","","","Images/BlackBeadChoice.png","","null"
"image-button-response","442","610123","0.0-13.0-2.127","19","Low_HMMActual","","","","","","null","","","","Images/BlackBeadChoiceCorrect.png","","null"
"image-button-response","443","611490","0.0-13.0-0.128","19","Low_HMMActual","","","","","","1365.1000000238419","","","","Images/NewTrialBC.png","","0"
"image-button-response","444","611791","0.0-13.0-1.128","19","Low_HMMActual","","","","","","null","","","","Images/BlackBeadChoice.png","","null"
"image-button-response","445","612296","0.0-13.0-2.128","19","Low_HMMActual","","","","","","null","","","","Images/BlackBeadChoiceCorrect.png","","null"
"image-button-response","446","613264","0.0-13.0-0.129","19","Low_HMMActual","","","","","","967.5","","","","Images/NewTrialBC.png","","1"
"image-button-response","447","613566","0.0-13.0-1.129","19","Low_HMMActual","","","","","","null","","","","Images/BlackBeadChoice.png","","null"
"image-button-response","448","614068","0.0-13.0-2.129","19","Low_HMMActual","","","","","","null","","","","Images/BlackBeadChoiceCorrect.png","","null"
"image-button-response","449","614994","0.0-13.0-0.130","19","Low_HMMActual","","","","","","924.5","","","","Images/NewTrialBC.png","","3"
"image-button-response","450","615296","0.0-13.0-1.130","19","Low_HMMActual","","","","","","null","","","","Images/WhiteBeadChoice.png","","null"
"image-button-response","451","615804","0.0-13.0-2.130","19","Low_HMMActual","","","","","","null","","","","Images/WhiteBeadChoiceWrong.png","","null"
"image-button-response","452","616080","0.0-13.0-0.131","19","Low_HMMActual","","","","","","274.90000009536743","","","","Images/NewTrialBC.png","","3"
"image-button-response","453","616389","0.0-13.0-1.131","19","Low_HMMActual","","","","","","null","","","","Images/WhiteBeadChoice.png","","null"
"image-button-response","454","616901","0.0-13.0-2.131","19","Low_HMMActual","","","","","","null","","","","Images/WhiteBeadChoiceWrong.png","","null"
"image-button-response","455","617214","0.0-13.0-0.132","19","Low_HMMActual","","","","","","312.1999999284744","","","","Images/NewTrialBC.png","","3"
"image-button-response","456","617519","0.0-13.0-1.132","19","Low_HMMActual","","","","","","null","","","","Images/WhiteBeadChoice.png","","null"
"image-button-response","457","618030","0.0-13.0-2.132","19","Low_HMMActual","","","","","","null","","","","Images/WhiteBeadChoiceWrong.png","","null"
"image-button-response","458","618527","0.0-13.0-0.133","19","Low_HMMActual","","","","","","495.10000002384186","","","","Images/NewTrialBC.png","","3"
"image-button-response","459","618829","0.0-13.0-1.133","19","Low_HMMActual","","","","","","null","","","","Images/WhiteBeadChoice.png","","null"
"image-button-response","460","619339","0.0-13.0-2.133","19","Low_HMMActual","","","","","","null","","","","Images/WhiteBeadChoiceWrong.png","","null"
"image-button-response","461","620437","0.0-13.0-0.134","19","Low_HMMActual","","","","","","1096.3999999761581","","","","Images/NewTrialBC.png","","3"
"image-button-response","462","620746","0.0-13.0-1.134","19","Low_HMMActual","","","","","","null","","","","Images/WhiteBeadChoice.png","","null"
"image-button-response","463","621258","0.0-13.0-2.134","19","Low_HMMActual","","","","","","null","","","","Images/WhiteBeadChoiceWrong.png","","null"
"image-button-response","464","621788","0.0-13.0-0.135","19","Low_HMMActual","","","","","","528.6999999284744","","","","Images/NewTrialBC.png","","3"
"image-button-response","465","622091","0.0-13.0-1.135","19","Low_HMMActual","","","","","","null","","","","Images/WhiteBeadChoice.png","","null"
"image-button-response","466","622601","0.0-13.0-2.135","19","Low_HMMActual","","","","","","null","","","","Images/WhiteBeadChoiceCorrect.png","","null"
"image-button-response","467","629159","0.0-13.0-0.136","19","Low_HMMActual","","","","","","6556.799999952316","","","","Images/NewTrialWC.png","","3"
"image-button-response","468","629474","0.0-13.0-1.136","19","Low_HMMActual","","","","","","null","","","","Images/WhiteBeadChoice.png","","null"
"image-button-response","469","629976","0.0-13.0-2.136","19","Low_HMMActual","","","","","","null","","","","Images/WhiteBeadChoiceCorrect.png","","null"
"image-button-response","470","630391","0.0-13.0-0.137","19","Low_HMMActual","","","","","","414.2000000476837","","","","Images/NewTrialWC.png","","2"
"image-button-response","471","630699","0.0-13.0-1.137","19","Low_HMMActual","","","","","","null","","","","Images/WhiteBeadChoice.png","","null"
"image-button-response","472","631212","0.0-13.0-2.137","19","Low_HMMActual","","","","","","null","","","","Images/WhiteBeadChoiceCorrect.png","","null"
"image-button-response","473","631881","0.0-13.0-0.138","19","Low_HMMActual","","","","","","668","","","","Images/NewTrialWC.png","","2"
"image-button-response","474","632189","0.0-13.0-1.138","19","Low_HMMActual","","","","","","null","","","","Images/WhiteBeadChoice.png","","null"
"image-button-response","475","632703","0.0-13.0-2.138","19","Low_HMMActual","","","","","","null","","","","Images/WhiteBeadChoiceCorrect.png","","null"
"image-button-response","476","633404","0.0-13.0-0.139","19","Low_HMMActual","","","","","","699.4000000953674","","","","Images/NewTrialWC.png","","3"
"image-button-response","477","633713","0.0-13.0-1.139","19","Low_HMMActual","","","","","","null","","","","Images/WhiteBeadChoice.png","","null"
"image-button-response","478","634215","0.0-13.0-2.139","19","Low_HMMActual","","","","","","null","","","","Images/WhiteBeadChoiceCorrect.png","","null"
"image-button-response","479","634302","0.0-13.0-0.140","19","Low_HMMActual","","","","","","86","","","","Images/NewTrialWC.png","","3"
"image-button-response","480","634603","0.0-13.0-1.140","19","Low_HMMActual","","","","","","null","","","","Images/WhiteBeadChoice.png","","null"
"image-button-response","481","635117","0.0-13.0-2.140","19","Low_HMMActual","","","","","","null","","","","Images/WhiteBeadChoiceCorrect.png","","null"
"image-button-response","482","636011","0.0-13.0-0.141","19","Low_HMMActual","","","","","","892.1999999284744","","","","Images/NewTrialWC.png","","3"
"image-button-response","483","636321","0.0-13.0-1.141","19","Low_HMMActual","","","","","","null","","","","Images/WhiteBeadChoice.png","","null"
"image-button-response","484","636823","0.0-13.0-2.141","19","Low_HMMActual","","","","","","null","","","","Images/WhiteBeadChoiceCorrect.png","","null"
"image-button-response","485","637019","0.0-13.0-0.142","19","Low_HMMActual","","","","","","194.89999997615814","","","","Images/NewTrialWC.png","","3"
"image-button-response","486","637326","0.0-13.0-1.142","19","Low_HMMActual","","","","","","null","","","","Images/WhiteBeadChoice.png","","null"
"image-button-response","487","637833","0.0-13.0-2.142","19","Low_HMMActual","","","","","","null","","","","Images/WhiteBeadChoiceWrong.png","","null"
"image-button-response","488","639389","0.0-13.0-0.143","19","Low_HMMActual","","","","","","1554.3000000715256","","","","Images/NewTrialBC.png","","1"
"image-button-response","489","639690","0.0-13.0-1.143","19","Low_HMMActual","","","","","","null","","","","Images/BlackBeadChoice.png","","null"
"image-button-response","490","640192","0.0-13.0-2.143","19","Low_HMMActual","","","","","","null","","","","Images/BlackBeadChoiceWrong.png","","null"
"image-button-response","491","642105","0.0-13.0-0.144","19","Low_HMMActual","","","","","","1912.3000000715256","","","","Images/NewTrialWC.png","","2"
"image-button-response","492","642408","0.0-13.0-1.144","19","Low_HMMActual","","","","","","null","","","","Images/WhiteBeadChoice.png","","null"
"image-button-response","493","642919","0.0-13.0-2.144","19","Low_HMMActual","","","","","","null","","","","Images/WhiteBeadChoiceCorrect.png","","null"
"image-button-response","494","643648","0.0-13.0-0.145","19","Low_HMMActual","","","","","","726.7999999523163","","","","Images/NewTrialWC.png","","3"
"image-button-response","495","643956","0.0-13.0-1.145","19","Low_HMMActual","","","","","","null","","","","Images/WhiteBeadChoice.png","","null"
"image-button-response","496","644466","0.0-13.0-2.145","19","Low_HMMActual","","","","","","null","","","","Images/WhiteBeadChoiceCorrect.png","","null"
"image-button-response","497","645048","0.0-13.0-0.146","19","Low_HMMActual","","","","","","580.6000000238419","","","","Images/NewTrialWC.png","","2"
"image-button-response","498","645349","0.0-13.0-1.146","19","Low_HMMActual","","","","","","null","","","","Images/WhiteBeadChoice.png","","null"
"image-button-response","499","645851","0.0-13.0-2.146","19","Low_HMMActual","","","","","","null","","","","Images/WhiteBeadChoiceWrong.png","","null"
"image-button-response","500","646815","0.0-13.0-0.147","19","Low_HMMActual","","","","","","963","","","","Images/NewTrialBC.png","","1"
"image-button-response","501","647116","0.0-13.0-1.147","19","Low_HMMActual","","","","","","null","","","","Images/BlackBeadChoice.png","","null"
"image-button-response","502","647618","0.0-13.0-2.147","19","Low_HMMActual","","","","","","null","","","","Images/BlackBeadChoiceWrong.png","","null"
"image-button-response","503","649151","0.0-13.0-0.148","19","Low_HMMActual","","","","","","1531.7000000476837","","","","Images/NewTrialWC.png","","3"
"image-button-response","504","649455","0.0-13.0-1.148","19","Low_HMMActual","","","","","","null","","","","Images/WhiteBeadChoice.png","","null"
"image-button-response","505","649967","0.0-13.0-2.148","19","Low_HMMActual","","","","","","null","","","","Images/WhiteBeadChoiceCorrect.png","","null"
"image-button-response","506","651341","0.0-13.0-0.149","19","Low_HMMActual","","","","","","1372.7000000476837","","","","Images/NewTrialWC.png","","2"
"image-button-response","507","651648","0.0-13.0-1.149","19","Low_HMMActual","","","","","","null","","","","Images/WhiteBeadChoice.png","","null"
"image-button-response","508","652151","0.0-13.0-2.149","19","Low_HMMActual","","","","","","null","","","","Images/WhiteBeadChoiceWrong.png","","null"
"image-button-response","509","654330","0.0-13.0-0.150","19","Low_HMMActual","","","","","","2178.5","","","","Images/NewTrialBC.png","","1"
"image-button-response","510","654631","0.0-13.0-1.150","19","Low_HMMActual","","","","","","null","","","","Images/BlackBeadChoice.png","","null"
"image-button-response","511","655133","0.0-13.0-2.150","19","Low_HMMActual","","","","","","null","","","","Images/BlackBeadChoiceWrong.png","","null"
"image-button-response","512","655824","0.0-13.0-0.151","19","Low_HMMActual","","","","","","690.5","","","","Images/NewTrialWC.png","","2"
"image-button-response","513","656135","0.0-13.0-1.151","19","Low_HMMActual","","","","","","null","","","","Images/WhiteBeadChoice.png","","null"
"image-button-response","514","656646","0.0-13.0-2.151","19","Low_HMMActual","","","","","","null","","","","Images/WhiteBeadChoiceCorrect.png","","null"
"image-button-response","515","658216","0.0-13.0-0.152","19","Low_HMMActual","","","","","","1568.5","","","","Images/NewTrialWC.png","","2"
"image-button-response","516","658517","0.0-13.0-1.152","19","Low_HMMActual","","","","","","null","","","","Images/WhiteBeadChoice.png","","null"
"image-button-response","517","659026","0.0-13.0-2.152","19","Low_HMMActual","","","","","","null","","","","Images/WhiteBeadChoiceCorrect.png","","null"
"image-button-response","518","659570","0.0-13.0-0.153","19","Low_HMMActual","","","","","","542.8999999761581","","","","Images/NewTrialWC.png","","3"
"image-button-response","519","659873","0.0-13.0-1.153","19","Low_HMMActual","","","","","","null","","","","Images/WhiteBeadChoice.png","","null"
"image-button-response","520","660374","0.0-13.0-2.153","19","Low_HMMActual","","","","","","null","","","","Images/WhiteBeadChoiceCorrect.png","","null"
"image-button-response","521","661021","0.0-13.0-0.154","19","Low_HMMActual","","","","","","646.8000000715256","","","","Images/NewTrialWC.png","","3"
"image-button-response","522","661333","0.0-13.0-1.154","19","Low_HMMActual","","","","","","null","","","","Images/WhiteBeadChoice.png","","null"
"image-button-response","523","661835","0.0-13.0-2.154","19","Low_HMMActual","","","","","","null","","","","Images/WhiteBeadChoiceCorrect.png","","null"
"image-button-response","524","662307","0.0-13.0-0.155","19","Low_HMMActual","","","","","","470.7000000476837","","","","Images/NewTrialWC.png","","3"
"image-button-response","525","662611","0.0-13.0-1.155","19","Low_HMMActual","","","","","","null","","","","Images/WhiteBeadChoice.png","","null"
"image-button-response","526","663123","0.0-13.0-2.155","19","Low_HMMActual","","","","","","null","","","","Images/WhiteBeadChoiceWrong.png","","null"
"image-button-response","527","664449","0.0-13.0-0.156","19","Low_HMMActual","","","","","","1324.5","","","","Images/NewTrialBC.png","","1"
"image-button-response","528","664751","0.0-13.0-1.156","19","Low_HMMActual","","","","","","null","","","","Images/BlackBeadChoice.png","","null"
"image-button-response","529","665253","0.0-13.0-2.156","19","Low_HMMActual","","","","","","null","","","","Images/BlackBeadChoiceCorrect.png","","null"
"image-button-response","530","667294","0.0-13.0-0.157","19","Low_HMMActual","","","","","","2040.1999999284744","","","","Images/NewTrialBC.png","","0"
"image-button-response","531","667596","0.0-13.0-1.157","19","Low_HMMActual","","","","","","null","","","","Images/BlackBeadChoice.png","","null"
"image-button-response","532","668097","0.0-13.0-2.157","19","Low_HMMActual","","","","","","null","","","","Images/BlackBeadChoiceCorrect.png","","null"
"image-button-response","533","670608","0.0-13.0-0.158","19","Low_HMMActual","","","","","","2510.2000000476837","","","","Images/NewTrialBC.png","","0"
"image-button-response","534","670910","0.0-13.0-1.158","19","Low_HMMActual","","","","","","null","","","","Images/BlackBeadChoice.png","","null"
"image-button-response","535","671412","0.0-13.0-2.158","19","Low_HMMActual","","","","","","null","","","","Images/BlackBeadChoiceCorrect.png","","null"
"image-button-response","536","672510","0.0-13.0-0.159","19","Low_HMMActual","","","","","","1096.8999999761581","","","","Images/NewTrialBC.png","","0"
"image-button-response","537","672811","0.0-13.0-1.159","19","Low_HMMActual","","","","","","null","","","","Images/BlackBeadChoice.png","","null"
"image-button-response","538","673312","0.0-13.0-2.159","19","Low_HMMActual","","","","","","null","","","","Images/BlackBeadChoiceCorrect.png","","null"
"image-button-response","539","674054","0.0-13.0-0.160","19","Low_HMMActual","","","","","","740.6000000238419","","","","Images/NewTrialBC.png","","0"
"image-button-response","540","674355","0.0-13.0-1.160","19","Low_HMMActual","","","","","","null","","","","Images/BlackBeadChoice.png","","null"
"image-button-response","541","674856","0.0-13.0-2.160","19","Low_HMMActual","","","","","","null","","","","Images/BlackBeadChoiceCorrect.png","","null"
"image-button-response","542","675633","0.0-13.0-0.161","19","Low_HMMActual","","","","","","775.7999999523163","","","","Images/NewTrialBC.png","","1"
"image-button-response","543","675934","0.0-13.0-1.161","19","Low_HMMActual","","","","","","null","","","","Images/BlackBeadChoice.png","","null"
"image-button-response","544","676436","0.0-13.0-2.161","19","Low_HMMActual","","","","","","null","","","","Images/BlackBeadChoiceWrong.png","","null"
"image-button-response","545","677113","0.0-13.0-0.162","19","Low_HMMActual","","","","","","676.2000000476837","","","","Images/NewTrialWC.png","","3"
"image-button-response","546","677415","0.0-13.0-1.162","19","Low_HMMActual","","","","","","null","","","","Images/WhiteBeadChoice.png","","null"
"image-button-response","547","677916","0.0-13.0-2.162","19","Low_HMMActual","","","","","","null","","","","Images/WhiteBeadChoiceCorrect.png","","null"
"image-button-response","548","679526","0.0-13.0-0.163","19","Low_HMMActual","","","","","","1609","","","","Images/NewTrialWC.png","","2"
"image-button-response","549","679836","0.0-13.0-1.163","19","Low_HMMActual","","","","","","null","","","","Images/WhiteBeadChoice.png","","null"
"image-button-response","550","680337","0.0-13.0-2.163","19","Low_HMMActual","","","","","","null","","","","Images/WhiteBeadChoiceCorrect.png","","null"
"image-button-response","551","680874","0.0-13.0-0.164","19","Low_HMMActual","","","","","","535.7999999523163","","","","Images/NewTrialWC.png","","2"
"image-button-response","552","681182","0.0-13.0-1.164","19","Low_HMMActual","","","","","","null","","","","Images/WhiteBeadChoice.png","","null"
"image-button-response","553","681690","0.0-13.0-2.164","19","Low_HMMActual","","","","","","null","","","","Images/WhiteBeadChoiceCorrect.png","","null"
"image-button-response","554","682054","0.0-13.0-0.165","19","Low_HMMActual","","","","","","362.7000000476837","","","","Images/NewTrialWC.png","","2"
"image-button-response","555","682366","0.0-13.0-1.165","19","Low_HMMActual","","","","","","null","","","","Images/WhiteBeadChoice.png","","null"
"image-button-response","556","682876","0.0-13.0-2.165","19","Low_HMMActual","","","","","","null","","","","Images/WhiteBeadChoiceCorrect.png","","null"
"image-button-response","557","683152","0.0-13.0-0.166","19","Low_HMMActual","","","","","","275.39999997615814","","","","Images/NewTrialWC.png","","2"
"image-button-response","558","683464","0.0-13.0-1.166","19","Low_HMMActual","","","","","","null","","","","Images/WhiteBeadChoice.png","","null"
"image-button-response","559","683975","0.0-13.0-2.166","19","Low_HMMActual","","","","","","null","","","","Images/WhiteBeadChoiceCorrect.png","","null"
"image-button-response","560","685701","0.0-13.0-0.167","19","Low_HMMActual","","","","","","1725","","","","Images/NewTrialWC.png","","3"
"image-button-response","561","686016","0.0-13.0-1.167","19","Low_HMMActual","","","","","","null","","","","Images/WhiteBeadChoice.png","","null"
"image-button-response","562","686517","0.0-13.0-2.167","19","Low_HMMActual","","","","","","null","","","","Images/WhiteBeadChoiceCorrect.png","","null"
"image-button-response","563","686815","0.0-13.0-0.168","19","Low_HMMActual","","","","","","296.2999999523163","","","","Images/NewTrialWC.png","","3"
"image-button-response","564","687117","0.0-13.0-1.168","19","Low_HMMActual","","","","","","null","","","","Images/WhiteBeadChoice.png","","null"
"image-button-response","565","687618","0.0-13.0-2.168","19","Low_HMMActual","","","","","","null","","","","Images/WhiteBeadChoiceWrong.png","","null"
"image-button-response","566","688824","0.0-13.0-0.169","19","Low_HMMActual","","","","","","1205.1000000238419","","","","Images/NewTrialBC.png","","1"
"image-button-response","567","689131","0.0-13.0-1.169","19","Low_HMMActual","","","","","","null","","","","Images/BlackBeadChoice.png","","null"
"image-button-response","568","689632","0.0-13.0-2.169","19","Low_HMMActual","","","","","","null","","","","Images/BlackBeadChoiceWrong.png","","null"
"image-button-response","569","700859","0.0-13.0-0.170","19","Low_HMMActual","","","","","","11225.399999976158","","","","Images/NewTrialWC.png","","3"
"image-button-response","570","701169","0.0-13.0-1.170","19","Low_HMMActual","","","","","","null","","","","Images/WhiteBeadChoice.png","","null"
"image-button-response","571","701670","0.0-13.0-2.170","19","Low_HMMActual","","","","","","null","","","","Images/WhiteBeadChoiceCorrect.png","","null"
"image-button-response","572","701791","0.0-13.0-0.171","19","Low_HMMActual","","","","","","119.70000004768372","","","","Images/NewTrialWC.png","","2"
"image-button-response","573","702095","0.0-13.0-1.171","19","Low_HMMActual","","","","","","null","","","","Images/WhiteBeadChoice.png","","null"
"image-button-response","574","702604","0.0-13.0-2.171","19","Low_HMMActual","","","","","","null","","","","Images/WhiteBeadChoiceCorrect.png","","null"
"image-button-response","575","703815","0.0-13.0-0.172","19","Low_HMMActual","","","","","","1208.5","","","","Images/NewTrialWC.png","","2"
"image-button-response","576","704123","0.0-13.0-1.172","19","Low_HMMActual","","","","","","null","","","","Images/WhiteBeadChoice.png","","null"
"image-button-response","577","704636","0.0-13.0-2.172","19","Low_HMMActual","","","","","","null","","","","Images/WhiteBeadChoiceCorrect.png","","null"
"image-button-response","578","705144","0.0-13.0-0.173","19","Low_HMMActual","","","","","","506.2000000476837","","","","Images/NewTrialWC.png","","2"
"image-button-response","579","705456","0.0-13.0-1.173","19","Low_HMMActual","","","","","","null","","","","Images/WhiteBeadChoice.png","","null"
"image-button-response","580","705957","0.0-13.0-2.173","19","Low_HMMActual","","","","","","null","","","","Images/WhiteBeadChoiceCorrect.png","","null"
"image-button-response","581","706523","0.0-13.0-0.174","19","Low_HMMActual","","","","","","564.1000000238419","","","","Images/NewTrialWC.png","","2"
"image-button-response","582","706836","0.0-13.0-1.174","19","Low_HMMActual","","","","","","null","","","","Images/WhiteBeadChoice.png","","null"
"image-button-response","583","707344","0.0-13.0-2.174","19","Low_HMMActual","","","","","","null","","","","Images/WhiteBeadChoiceCorrect.png","","null"
"image-button-response","584","708092","0.0-13.0-0.175","19","Low_HMMActual","","","","","","747.4000000953674","","","","Images/NewTrialWC.png","","2"
"image-button-response","585","708394","0.0-13.0-1.175","19","Low_HMMActual","","","","","","null","","","","Images/WhiteBeadChoice.png","","null"
"image-button-response","586","708896","0.0-13.0-2.175","19","Low_HMMActual","","","","","","null","","","","Images/WhiteBeadChoiceWrong.png","","null"
"image-button-response","587","710323","0.0-13.0-0.176","19","Low_HMMActual","","","","","","1426.8000000715256","","","","Images/NewTrialBC.png","","1"
"image-button-response","588","710625","0.0-13.0-1.176","19","Low_HMMActual","","","","","","null","","","","Images/BlackBeadChoice.png","","null"
"image-button-response","589","711127","0.0-13.0-2.176","19","Low_HMMActual","","","","","","null","","","","Images/BlackBeadChoiceCorrect.png","","null"
"image-button-response","590","711360","0.0-13.0-0.177","19","Low_HMMActual","","","","","","232","","","","Images/NewTrialBC.png","","0"
"image-button-response","591","711662","0.0-13.0-1.177","19","Low_HMMActual","","","","","","null","","","","Images/BlackBeadChoice.png","","null"
"image-button-response","592","712175","0.0-13.0-2.177","19","Low_HMMActual","","","","","","462.60000002384186","","","","Images/BlackBeadChoiceCorrect.png","","0"
"image-button-response","593","713000","0.0-13.0-0.178","19","Low_HMMActual","","","","","","823.8000000715256","","","","Images/NewTrialBC.png","","0"
"image-button-response","594","713305","0.0-13.0-1.178","19","Low_HMMActual","","","","","","null","","","","Images/BlackBeadChoice.png","","null"
"image-button-response","595","713806","0.0-13.0-2.178","19","Low_HMMActual","","","","","","null","","","","Images/BlackBeadChoiceWrong.png","","null"
"image-button-response","596","715059","0.0-13.0-0.179","19","Low_HMMActual","","","","","","1252.6000000238419","","","","Images/NewTrialWC.png","","3"
"image-button-response","597","715361","0.0-13.0-1.179","19","Low_HMMActual","","","","","","null","","","","Images/WhiteBeadChoice.png","","null"
"image-button-response","598","715870","0.0-13.0-2.179","19","Low_HMMActual","","","","","","null","","","","Images/WhiteBeadChoiceWrong.png","","null"
"image-button-response","599","716806","0.0-13.0-0.180","19","Low_HMMActual","","","","","","936.1000000238419","","","","Images/NewTrialBC.png","","1"
"image-button-response","600","717108","0.0-13.0-1.180","19","Low_HMMActual","","","","","","null","","","","Images/BlackBeadChoice.png","","null"
"image-button-response","601","717619","0.0-13.0-2.180","19","Low_HMMActual","","","","","","null","","","","Images/BlackBeadChoiceCorrect.png","","null"
"image-button-response","602","722283","0.0-13.0-0.181","19","Low_HMMActual","","","","","","4663.899999976158","","","","Images/NewTrialBC.png","","0"
"image-button-response","603","722585","0.0-13.0-1.181","19","Low_HMMActual","","","","","","null","","","","Images/BlackBeadChoice.png","","null"
"image-button-response","604","723095","0.0-13.0-2.181","19","Low_HMMActual","","","","","","null","","","","Images/BlackBeadChoiceCorrect.png","","null"
"image-button-response","605","723187","0.0-13.0-0.182","19","Low_HMMActual","","","","","","89.89999997615814","","","","Images/NewTrialBC.png","","0"
"image-button-response","606","723488","0.0-13.0-1.182","19","Low_HMMActual","","","","","","null","","","","Images/BlackBeadChoice.png","","null"
"image-button-response","607","723990","0.0-13.0-2.182","19","Low_HMMActual","","","","","","null","","","","Images/BlackBeadChoiceCorrect.png","","null"
"image-button-response","608","724258","0.0-13.0-0.183","19","Low_HMMActual","","","","","","267.2000000476837","","","","Images/NewTrialBC.png","","0"
"image-button-response","609","724565","0.0-13.0-1.183","19","Low_HMMActual","","","","","","null","","","","Images/BlackBeadChoice.png","","null"
"image-button-response","610","725067","0.0-13.0-2.183","19","Low_HMMActual","","","","","","null","","","","Images/BlackBeadChoiceCorrect.png","","null"
"image-button-response","611","726881","0.0-13.0-0.184","19","Low_HMMActual","","","","","","1812.7000000476837","","","","Images/NewTrialBC.png","","0"
"image-button-response","612","727182","0.0-13.0-1.184","19","Low_HMMActual","","","","","","null","","","","Images/BlackBeadChoice.png","","null"
"image-button-response","613","727683","0.0-13.0-2.184","19","Low_HMMActual","","","","","","null","","","","Images/BlackBeadChoiceCorrect.png","","null"
"image-button-response","614","727953","0.0-13.0-0.185","19","Low_HMMActual","","","","","","268.2000000476837","","","","Images/NewTrialBC.png","","1"
"image-button-response","615","728255","0.0-13.0-1.185","19","Low_HMMActual","","","","","","null","","","","Images/BlackBeadChoice.png","","null"
"image-button-response","616","728756","0.0-13.0-2.185","19","Low_HMMActual","","","","","","496.2999999523163","","","","Images/BlackBeadChoiceCorrect.png","","1"
"image-button-response","617","729598","0.0-13.0-0.186","19","Low_HMMActual","","","","","","841","","","","Images/NewTrialBC.png","","1"
"image-button-response","618","729899","0.0-13.0-1.186","19","Low_HMMActual","","","","","","null","","","","Images/BlackBeadChoice.png","","null"
"image-button-response","619","730401","0.0-13.0-2.186","19","Low_HMMActual","","","","","","481.7000000476837","","","","Images/BlackBeadChoiceCorrect.png","","1"
"image-button-response","620","730926","0.0-13.0-0.187","19","Low_HMMActual","","","","","","524.1000000238419","","","","Images/NewTrialBC.png","","1"
"image-button-response","621","731228","0.0-13.0-1.187","19","Low_HMMActual","","","","","","null","","","","Images/BlackBeadChoice.png","","null"
"image-button-response","622","731729","0.0-13.0-2.187","19","Low_HMMActual","","","","","","null","","","","Images/BlackBeadChoiceWrong.png","","null"
"image-button-response","623","732428","0.0-13.0-0.188","19","Low_HMMActual","","","","","","698.3999999761581","","","","Images/NewTrialWC.png","","3"
"image-button-response","624","732743","0.0-13.0-1.188","19","Low_HMMActual","","","","","","null","","","","Images/WhiteBeadChoice.png","","null"
"image-button-response","625","733254","0.0-13.0-2.188","19","Low_HMMActual","","","","","","null","","","","Images/WhiteBeadChoiceCorrect.png","","null"
"image-button-response","626","733332","0.0-13.0-0.189","19","Low_HMMActual","","","","","","77.10000002384186","","","","Images/NewTrialWC.png","","3"
"image-button-response","627","733633","0.0-13.0-1.189","19","Low_HMMActual","","","","","","null","","","","Images/WhiteBeadChoice.png","","null"
"image-button-response","628","734149","0.0-13.0-2.189","19","Low_HMMActual","","","","","","null","","","","Images/WhiteBeadChoiceCorrect.png","","null"
"image-button-response","629","734778","0.0-13.0-0.190","19","Low_HMMActual","","","","","","627.6000000238419","","","","Images/NewTrialWC.png","","2"
"image-button-response","630","735090","0.0-13.0-1.190","19","Low_HMMActual","","","","","","null","","","","Images/WhiteBeadChoice.png","","null"
"image-button-response","631","735592","0.0-13.0-2.190","19","Low_HMMActual","","","","","","null","","","","Images/WhiteBeadChoiceCorrect.png","","null"
"image-button-response","632","735759","0.0-13.0-0.191","19","Low_HMMActual","","","","","","165.60000002384186","","","","Images/NewTrialWC.png","","2"
"image-button-response","633","736062","0.0-13.0-1.191","19","Low_HMMActual","","","","","","null","","","","Images/WhiteBeadChoice.png","","null"
"image-button-response","634","736570","0.0-13.0-2.191","19","Low_HMMActual","","","","","","null","","","","Images/WhiteBeadChoiceCorrect.png","","null"
"image-button-response","635","737193","0.0-13.0-0.192","19","Low_HMMActual","","","","","","622","","","","Images/NewTrialWC.png","","2"
"image-button-response","636","737495","0.0-13.0-1.192","19","Low_HMMActual","","","","","","null","","","","Images/WhiteBeadChoice.png","","null"
"image-button-response","637","737997","0.0-13.0-2.192","19","Low_HMMActual","","","","","","null","","","","Images/WhiteBeadChoiceCorrect.png","","null"
"image-button-response","638","738165","0.0-13.0-0.193","19","Low_HMMActual","","","","","","166.90000009536743","","","","Images/NewTrialWC.png","","2"
"image-button-response","639","738467","0.0-13.0-1.193","19","Low_HMMActual","","","","","","null","","","","Images/WhiteBeadChoice.png","","null"
"image-button-response","640","738972","0.0-13.0-2.193","19","Low_HMMActual","","","","","","null","","","","Images/WhiteBeadChoiceCorrect.png","","null"
"image-button-response","641","739049","0.0-13.0-0.194","19","Low_HMMActual","","","","","","74.79999995231628","","","","Images/NewTrialWC.png","","2"
"image-button-response","642","739351","0.0-13.0-1.194","19","Low_HMMActual","","","","","","null","","","","Images/WhiteBeadChoice.png","","null"
"image-button-response","643","739852","0.0-13.0-2.194","19","Low_HMMActual","","","","","","null","","","","Images/WhiteBeadChoiceCorrect.png","","null"
"image-button-response","644","740496","0.0-13.0-0.195","19","Low_HMMActual","","","","","","641.7000000476837","","","","Images/NewTrialWC.png","","2"
"image-button-response","645","740811","0.0-13.0-1.195","19","Low_HMMActual","","","","","","null","","","","Images/WhiteBeadChoice.png","","null"
"image-button-response","646","741321","0.0-13.0-2.195","19","Low_HMMActual","","","","","","null","","","","Images/WhiteBeadChoiceCorrect.png","","null"
"image-button-response","647","741719","0.0-13.0-0.196","19","Low_HMMActual","","","","","","396.7999999523163","","","","Images/NewTrialWC.png","","3"
"image-button-response","648","742022","0.0-13.0-1.196","19","Low_HMMActual","","","","","","null","","","","Images/WhiteBeadChoice.png","","null"
"image-button-response","649","742530","0.0-13.0-2.196","19","Low_HMMActual","","","","","","null","","","","Images/WhiteBeadChoiceCorrect.png","","null"
"image-button-response","650","742672","0.0-13.0-0.197","19","Low_HMMActual","","","","","","140.80000007152557","","","","Images/NewTrialWC.png","","3"
"image-button-response","651","742974","0.0-13.0-1.197","19","Low_HMMActual","","","","","","null","","","","Images/WhiteBeadChoice.png","","null"
"image-button-response","652","743476","0.0-13.0-2.197","19","Low_HMMActual","","","","","","null","","","","Images/WhiteBeadChoiceCorrect.png","","null"
"image-button-response","653","743674","0.0-13.0-0.198","19","Low_HMMActual","","","","","","197.5","","","","Images/NewTrialWC.png","","3"
"image-button-response","654","743976","0.0-13.0-1.198","19","Low_HMMActual","","","","","","null","","","","Images/WhiteBeadChoice.png","","null"
"image-button-response","655","744479","0.0-13.0-2.198","19","Low_HMMActual","","","","","","null","","","","Images/WhiteBeadChoiceWrong.png","","null"
"image-button-response","656","745467","0.0-13.0-0.199","19","Low_HMMActual","","","","","","986.8999999761581","","","","Images/NewTrialBC.png","","1"
"image-button-response","657","745781","0.0-13.0-1.199","19","Low_HMMActual","","","","","","null","","","","Images/BlackBeadChoice.png","","null"
"image-button-response","658","746283","0.0-13.0-2.199","19","Low_HMMActual","","","","","","null","","","","Images/BlackBeadChoiceWrong.png","","null"
"image-button-response","659","750050","0.0-13.0-0.200","19","Low_HMMActual","","","","","","3766.5","","","","Images/NewTrialWC.png","","3"
"image-button-response","660","750351","0.0-13.0-1.200","19","Low_HMMActual","","","","","","null","","","","Images/WhiteBeadChoice.png","","null"
"image-button-response","661","750858","0.0-13.0-2.200","19","Low_HMMActual","","","","","","null","","","","Images/WhiteBeadChoiceCorrect.png","","null"
"image-button-response","662","751163","0.0-13.0-0.201","19","Low_HMMActual","","","","","","304","","","","Images/NewTrialWC.png","","2"
"image-button-response","663","751465","0.0-13.0-1.201","19","Low_HMMActual","","","","","","null","","","","Images/WhiteBeadChoice.png","","null"
"image-button-response","664","751966","0.0-13.0-2.201","19","Low_HMMActual","","","","","","null","","","","Images/WhiteBeadChoiceWrong.png","","null"
"image-button-response","665","752882","0.0-13.0-0.202","19","Low_HMMActual","","","","","","914.7999999523163","","","","Images/NewTrialBC.png","","1"
