"trial_type","trial_index","time_elapsed","internal_node_id","Script_Picker","Block_Type","success","timeout","failed_images","failed_audio","failed_video","rt","url","responses","question_order","stimulus","key_press","response"
"pavlovia","0","21","0.0-0.0","17","Low_HMMActual","","","","","","","","","","","",""
"preload","1","22","0.0-1.0","17","Low_HMMActual","true","false","[]","[]","[]","","","","","","",""
"external-html","2","23794","0.0-2.0-0.0","17","Low_HMMActual","","","","","","23723.40000000596","consent.html","","","","",""
"survey-multi-choice","3","28064","0.0-2.0-1.0","17","Low_HMMActual","","","","","","4267.5","","{""Q0"":""Male"",""Q1"":""White""}","[0,1]","","",""
"survey-text","4","32240","0.0-2.0-2.0","17","Low_HMMActual","","","","","","4171","","{""Q0"":""21""}","","","",""
"survey-text","5","37581","0.0-2.0-3.0","17","Low_HMMActual","","","","","","5238.5","","{""Q0"":""5eebcc4620cb9a33cd0df72d""}","","","",""
"image-keyboard-response","6","79745","0.0-3.0-0.0","17","Low_HMMActual","","","","","","42055.5","","","","tutorial/tutorial1.png"," ",""
"image-keyboard-response","7","126299","0.0-3.0-0.1","17","Low_HMMActual","","","","","","46553.90000000596","","","","tutorial/tutorial2.png"," ",""
"image-keyboard-response","8","130825","0.0-3.0-0.2","17","Low_HMMActual","","","","","","4525","","","","tutorial/tutorial3.png"," ",""
"image-keyboard-response","9","133909","0.0-3.0-0.3","17","Low_HMMActual","","","","","","3083.2999999970198","","","","tutorial/tutorial4.png"," ",""
"image-keyboard-response","10","137951","0.0-3.0-0.4","17","Low_HMMActual","","","","","","4041.9000000059605","","","","tutorial/tutorial5.png"," ",""
"image-keyboard-response","11","186643","0.0-3.0-0.5","17","Low_HMMActual","","","","","","48691.30000001192","","","","tutorial/tutorial6.png"," ",""
"image-keyboard-response","12","198991","0.0-3.0-0.6","17","Low_HMMActual","","","","","","12347.10000000894","","","","tutorial/tutorial7.png"," ",""
"image-keyboard-response","13","242968","0.0-3.0-0.7","17","Low_HMMActual","","","","","","43976.5","","","","tutorial/tutorial8.png"," ",""
"image-keyboard-response","14","298461","0.0-3.0-0.8","17","Low_HMMActual","","","","","","55492.59999999404","","","","tutorial/tutorial9.png"," ",""
"image-keyboard-response","15","312333","0.0-3.0-0.9","17","Low_HMMActual","","","","","","13871.29999999702","","","","tutorial/tutorial10.png"," ",""
"image-keyboard-response","16","318980","0.0-3.0-0.10","17","Low_HMMActual","","","","","","6645.9000000059605","","","","tutorial/tutorial11.png"," ",""
"image-keyboard-response","17","388007","0.0-3.0-0.11","17","Low_HMMActual","","","","","","69026.59999999404","","","","tutorial/tutorial12.png"," ",""
"image-keyboard-response","18","398226","0.0-3.0-0.12","17","Low_HMMActual","","","","","","10218.29999999702","","","","tutorial/tutorial13.png"," ",""
"image-keyboard-response","19","406085","0.0-3.0-0.13","17","Low_HMMActual","","","","","","7858.0999999940395","","","","tutorial/tutorial14.png"," ",""
"image-keyboard-response","20","411905","0.0-3.0-0.14","17","Low_HMMActual","","","","","","5819.5999999940395","","","","tutorial/tutorial15.png"," ",""
"image-keyboard-response","21","419450","0.0-4.0","17","Low_HMMActual","","","","","","7544","","","","tutorial/tutorial16.png","arrowup",""
"image-keyboard-response","22","430427","0.0-5.0","17","Low_HMMActual","","","","","","9049.59999999404","","","","tutorial/tutorial17.png","arrowright",""
"image-keyboard-response","23","452718","0.0-6.0","17","Low_HMMActual","","","","","","20822.5","","","","tutorial/tutorial18.png","arrowleft",""
"image-keyboard-response","24","582824","0.0-7.0","17","Low_HMMActual","","","","","","128530.89999999106","","","","tutorial/tutorial19.png"," ",""
"html-keyboard-response","25","658168","0.0-8.0","18","Low_HMMActual","","","","","","75340.90000000596","","","","<div class=""container"" style=""height:800px;width:800px;display:flex;flex-direction:column;justify-content:center;align-items:center;text-align:center;font-weight:normal;font-family:Arial;font-size:20px""><p>Loading episode&hellip;</p><div>"," ",""
"image-button-response","26","683764","0.0-9.0-0.0","18","Low_HMMActual","","","","","","25593.59999999404","","","","Images/NoChoice.png","","0"
"image-button-response","27","684073","0.0-9.0-1.0","18","Low_HMMActual","","","","","","null","","","","Images/BlackBeadChoice.png","","null"
"image-button-response","28","684581","0.0-9.0-2.0","18","Low_HMMActual","","","","","","null","","","","Images/BlackBeadChoiceWrong.png","","null"
"image-button-response","29","689715","0.0-9.0-0.1","18","Low_HMMActual","","","","","","5126.70000000298","","","","Images/NewTrialWC.png","","0"
"image-button-response","30","690016","0.0-9.0-1.1","18","Low_HMMActual","","","","","","null","","","","Images/BlackBeadChoice.png","","null"
"image-button-response","31","690518","0.0-9.0-2.1","18","Low_HMMActual","","","","","","null","","","","Images/BlackBeadChoiceWrong.png","","null"
"image-button-response","32","693257","0.0-9.0-0.2","18","Low_HMMActual","","","","","","2737.300000011921","","","","Images/NewTrialWC.png","","2"
"image-button-response","33","693559","0.0-9.0-1.2","18","Low_HMMActual","","","","","","null","","","","Images/WhiteBeadChoice.png","","null"
"image-button-response","34","694060","0.0-9.0-2.2","18","Low_HMMActual","","","","","","null","","","","Images/WhiteBeadChoiceCorrect.png","","null"
"image-button-response","35","694763","0.0-9.0-0.3","18","Low_HMMActual","","","","","","701.4000000059605","","","","Images/NewTrialWC.png","","2"
"image-button-response","36","695065","0.0-9.0-1.3","18","Low_HMMActual","","","","","","null","","","","Images/WhiteBeadChoice.png","","null"
"image-button-response","37","695567","0.0-9.0-2.3","18","Low_HMMActual","","","","","","null","","","","Images/WhiteBeadChoiceWrong.png","","null"
"image-button-response","38","699569","0.0-9.0-0.4","18","Low_HMMActual","","","","","","4001.1000000089407","","","","Images/NewTrialBC.png","","0"
"image-button-response","39","699879","0.0-9.0-1.4","18","Low_HMMActual","","","","","","null","","","","Images/BlackBeadChoice.png","","null"
"image-button-response","40","700388","0.0-9.0-2.4","18","Low_HMMActual","","","","","","null","","","","Images/BlackBeadChoiceWrong.png","","null"
"image-button-response","41","702989","0.0-9.0-0.5","18","Low_HMMActual","","","","","","2599.800000011921","","","","Images/NewTrialWC.png","","2"
"image-button-response","42","703297","0.0-9.0-1.5","18","Low_HMMActual","","","","","","null","","","","Images/WhiteBeadChoice.png","","null"
"image-button-response","43","703807","0.0-9.0-2.5","18","Low_HMMActual","","","","","","null","","","","Images/WhiteBeadChoiceCorrect.png","","null"
"image-button-response","44","704330","0.0-9.0-0.6","18","Low_HMMActual","","","","","","521.5999999940395","","","","Images/NewTrialWC.png","","2"
"image-button-response","45","704641","0.0-9.0-1.6","18","Low_HMMActual","","","","","","null","","","","Images/WhiteBeadChoice.png","","null"
"image-button-response","46","705150","0.0-9.0-2.6","18","Low_HMMActual","","","","","","null","","","","Images/WhiteBeadChoiceWrong.png","","null"
"image-button-response","47","707806","0.0-9.0-0.7","18","Low_HMMActual","","","","","","2654.5","","","","Images/NewTrialBC.png","","1"
"image-button-response","48","708113","0.0-9.0-1.7","18","Low_HMMActual","","","","","","null","","","","Images/BlackBeadChoice.png","","null"
"image-button-response","49","708627","0.0-9.0-2.7","18","Low_HMMActual","","","","","","null","","","","Images/BlackBeadChoiceWrong.png","","null"
"image-button-response","50","711700","0.0-9.0-0.8","18","Low_HMMActual","","","","","","3071.5","","","","Images/NewTrialWC.png","","2"
"image-button-response","51","712013","0.0-9.0-1.8","18","Low_HMMActual","","","","","","null","","","","Images/WhiteBeadChoice.png","","null"
"image-button-response","52","712520","0.0-9.0-2.8","18","Low_HMMActual","","","","","","null","","","","Images/WhiteBeadChoiceCorrect.png","","null"
"image-button-response","53","713171","0.0-9.0-0.9","18","Low_HMMActual","","","","","","648.5999999940395","","","","Images/NewTrialWC.png","","2"
"image-button-response","54","713484","0.0-9.0-1.9","18","Low_HMMActual","","","","","","null","","","","Images/WhiteBeadChoice.png","","null"
"image-button-response","55","713992","0.0-9.0-2.9","18","Low_HMMActual","","","","","","null","","","","Images/WhiteBeadChoiceWrong.png","","null"
"html-keyboard-response","56","717712","0.0-10.0","18","Low_HMMActual","","","","","","3719.4000000059605","","","",""," ",""
"image-keyboard-response","57","721319","0.0-11.0","18","Low_HMMActual","","","","","","3606.3999999910593","","","","tutorial/tutorial20.png"," ",""
"html-keyboard-response","58","737265","0.0-12.0","19","Low_HMMActual","","","","","","15942.89999999106","","","","<div class=""container"" style=""height:800px;width:800px;display:flex;flex-direction:column;justify-content:center;align-items:center;text-align:center;font-weight:normal;font-family:Arial;font-size:20px""><p>Loading episode&hellip;</p><div>"," ",""
"image-button-response","59","742281","0.0-13.0-0.0","19","Low_HMMActual","","","","","","5014.70000000298","","","","Images/NoChoice.png","","1"
"image-button-response","60","742583","0.0-13.0-1.0","19","Low_HMMActual","","","","","","null","","","","Images/BlackBeadChoice.png","","null"
"image-button-response","61","743085","0.0-13.0-2.0","19","Low_HMMActual","","","","","","null","","","","Images/BlackBeadChoiceWrong.png","","null"
"image-button-response","62","744107","0.0-13.0-0.1","19","Low_HMMActual","","","","","","1021.2000000029802","","","","Images/NewTrialWC.png","","2"
"image-button-response","63","744417","0.0-13.0-1.1","19","Low_HMMActual","","","","","","null","","","","Images/WhiteBeadChoice.png","","null"
"image-button-response","64","744930","0.0-13.0-2.1","19","Low_HMMActual","","","","","","null","","","","Images/WhiteBeadChoiceCorrect.png","","null"
"image-button-response","65","745477","0.0-13.0-0.2","19","Low_HMMActual","","","","","","538.7999999970198","","","","Images/NewTrialWC.png","","2"
"image-button-response","66","745778","0.0-13.0-1.2","19","Low_HMMActual","","","","","","null","","","","Images/WhiteBeadChoice.png","","null"
"image-button-response","67","746289","0.0-13.0-2.2","19","Low_HMMActual","","","","","","null","","","","Images/WhiteBeadChoiceCorrect.png","","null"
"image-button-response","68","746835","0.0-13.0-0.3","19","Low_HMMActual","","","","","","545.0999999940395","","","","Images/NewTrialWC.png","","2"
"image-button-response","69","747141","0.0-13.0-1.3","19","Low_HMMActual","","","","","","null","","","","Images/WhiteBeadChoice.png","","null"
"image-button-response","70","747651","0.0-13.0-2.3","19","Low_HMMActual","","","","","","null","","","","Images/WhiteBeadChoiceCorrect.png","","null"
"image-button-response","71","748298","0.0-13.0-0.4","19","Low_HMMActual","","","","","","645.6000000089407","","","","Images/NewTrialWC.png","","2"
"image-button-response","72","748610","0.0-13.0-1.4","19","Low_HMMActual","","","","","","null","","","","Images/WhiteBeadChoice.png","","null"
"image-button-response","73","749121","0.0-13.0-2.4","19","Low_HMMActual","","","","","","null","","","","Images/WhiteBeadChoiceCorrect.png","","null"
"image-button-response","74","749967","0.0-13.0-0.5","19","Low_HMMActual","","","","","","845","","","","Images/NewTrialWC.png","","3"
"image-button-response","75","750271","0.0-13.0-1.5","19","Low_HMMActual","","","","","","null","","","","Images/WhiteBeadChoice.png","","null"
"image-button-response","76","750772","0.0-13.0-2.5","19","Low_HMMActual","","","","","","null","","","","Images/WhiteBeadChoiceWrong.png","","null"
"image-button-response","77","755572","0.0-13.0-0.6","19","Low_HMMActual","","","","","","4798.9000000059605","","","","Images/NewTrialBC.png","","0"
"image-button-response","78","755874","0.0-13.0-1.6","19","Low_HMMActual","","","","","","null","","","","Images/BlackBeadChoice.png","","null"
"image-button-response","79","756381","0.0-13.0-2.6","19","Low_HMMActual","","","","","","null","","","","Images/BlackBeadChoiceCorrect.png","","null"
"image-button-response","80","756912","0.0-13.0-0.7","19","Low_HMMActual","","","","","","530","","","","Images/NewTrialBC.png","","0"
"image-button-response","81","757217","0.0-13.0-1.7","19","Low_HMMActual","","","","","","null","","","","Images/BlackBeadChoice.png","","null"
"image-button-response","82","757730","0.0-13.0-2.7","19","Low_HMMActual","","","","","","null","","","","Images/BlackBeadChoiceCorrect.png","","null"
"image-button-response","83","758129","0.0-13.0-0.8","19","Low_HMMActual","","","","","","391.5","","","","Images/NewTrialBC.png","","0"
"image-button-response","84","758441","0.0-13.0-1.8","19","Low_HMMActual","","","","","","null","","","","Images/BlackBeadChoice.png","","null"
"image-button-response","85","758951","0.0-13.0-2.8","19","Low_HMMActual","","","","","","null","","","","Images/BlackBeadChoiceCorrect.png","","null"
"image-button-response","86","760046","0.0-13.0-0.9","19","Low_HMMActual","","","","","","1093.800000011921","","","","Images/NewTrialBC.png","","0"
"image-button-response","87","760348","0.0-13.0-1.9","19","Low_HMMActual","","","","","","null","","","","Images/BlackBeadChoice.png","","null"
"image-button-response","88","760856","0.0-13.0-2.9","19","Low_HMMActual","","","","","","null","","","","Images/BlackBeadChoiceCorrect.png","","null"
"image-button-response","89","762433","0.0-13.0-0.10","19","Low_HMMActual","","","","","","1575.5","","","","Images/NewTrialBC.png","","1"
"image-button-response","90","762736","0.0-13.0-1.10","19","Low_HMMActual","","","","","","null","","","","Images/BlackBeadChoice.png","","null"
"image-button-response","91","763239","0.0-13.0-2.10","19","Low_HMMActual","","","","","","null","","","","Images/BlackBeadChoiceWrong.png","","null"
"image-button-response","92","768616","0.0-13.0-0.11","19","Low_HMMActual","","","","","","5376.300000011921","","","","Images/NewTrialWC.png","","0"
"image-button-response","93","768919","0.0-13.0-1.11","19","Low_HMMActual","","","","","","null","","","","Images/BlackBeadChoice.png","","null"
"image-button-response","94","769420","0.0-13.0-2.11","19","Low_HMMActual","","","","","","null","","","","Images/BlackBeadChoiceCorrect.png","","null"
"image-button-response","95","770118","0.0-13.0-0.12","19","Low_HMMActual","","","","","","696.7000000029802","","","","Images/NewTrialBC.png","","0"
"image-button-response","96","770421","0.0-13.0-1.12","19","Low_HMMActual","","","","","","null","","","","Images/BlackBeadChoice.png","","null"
"image-button-response","97","770922","0.0-13.0-2.12","19","Low_HMMActual","","","","","","null","","","","Images/BlackBeadChoiceWrong.png","","null"
"image-button-response","98","774409","0.0-13.0-0.13","19","Low_HMMActual","","","","","","3485.2000000029802","","","","Images/NewTrialWC.png","","3"
"image-button-response","99","774711","0.0-13.0-1.13","19","Low_HMMActual","","","","","","null","","","","Images/WhiteBeadChoice.png","","null"
"image-button-response","100","775213","0.0-13.0-2.13","19","Low_HMMActual","","","","","","null","","","","Images/WhiteBeadChoiceCorrect.png","","null"
"image-button-response","101","775641","0.0-13.0-0.14","19","Low_HMMActual","","","","","","426.70000000298023","","","","Images/NewTrialWC.png","","2"
"image-button-response","102","775942","0.0-13.0-1.14","19","Low_HMMActual","","","","","","null","","","","Images/WhiteBeadChoice.png","","null"
"image-button-response","103","776446","0.0-13.0-2.14","19","Low_HMMActual","","","","","","null","","","","Images/WhiteBeadChoiceCorrect.png","","null"
"image-button-response","104","776808","0.0-13.0-0.15","19","Low_HMMActual","","","","","","360.6000000089407","","","","Images/NewTrialWC.png","","2"
"image-button-response","105","777111","0.0-13.0-1.15","19","Low_HMMActual","","","","","","null","","","","Images/WhiteBeadChoice.png","","null"
"image-button-response","106","777622","0.0-13.0-2.15","19","Low_HMMActual","","","","","","null","","","","Images/WhiteBeadChoiceCorrect.png","","null"
"image-button-response","107","778113","0.0-13.0-0.16","19","Low_HMMActual","","","","","","489.30000001192093","","","","Images/NewTrialWC.png","","2"
"image-button-response","108","778427","0.0-13.0-1.16","19","Low_HMMActual","","","","","","null","","","","Images/WhiteBeadChoice.png","","null"
"image-button-response","109","778929","0.0-13.0-2.16","19","Low_HMMActual","","","","","","null","","","","Images/WhiteBeadChoiceWrong.png","","null"
"image-button-response","110","783149","0.0-13.0-0.17","19","Low_HMMActual","","","","","","4219","","","","Images/NewTrialBC.png","","3"
"image-button-response","111","783456","0.0-13.0-1.17","19","Low_HMMActual","","","","","","null","","","","Images/WhiteBeadChoice.png","","null"
"image-button-response","112","783958","0.0-13.0-2.17","19","Low_HMMActual","","","","","","null","","","","Images/WhiteBeadChoiceWrong.png","","null"
"image-button-response","113","784740","0.0-13.0-0.18","19","Low_HMMActual","","","","","","780.7000000029802","","","","Images/NewTrialBC.png","","0"
"image-button-response","114","785052","0.0-13.0-1.18","19","Low_HMMActual","","","","","","null","","","","Images/BlackBeadChoice.png","","null"
"image-button-response","115","785562","0.0-13.0-2.18","19","Low_HMMActual","","","","","","null","","","","Images/BlackBeadChoiceCorrect.png","","null"
"image-button-response","116","785902","0.0-13.0-0.19","19","Low_HMMActual","","","","","","338.20000000298023","","","","Images/NewTrialBC.png","","0"
"image-button-response","117","786218","0.0-13.0-1.19","19","Low_HMMActual","","","","","","null","","","","Images/BlackBeadChoice.png","","null"
"image-button-response","118","786727","0.0-13.0-2.19","19","Low_HMMActual","","","","","","null","","","","Images/BlackBeadChoiceCorrect.png","","null"
"image-button-response","119","786875","0.0-13.0-0.20","19","Low_HMMActual","","","","","","146.30000001192093","","","","Images/NewTrialBC.png","","0"
"image-button-response","120","787179","0.0-13.0-1.20","19","Low_HMMActual","","","","","","null","","","","Images/BlackBeadChoice.png","","null"
"image-button-response","121","787690","0.0-13.0-2.20","19","Low_HMMActual","","","","","","null","","","","Images/BlackBeadChoiceCorrect.png","","null"
"image-button-response","122","789338","0.0-13.0-0.21","19","Low_HMMActual","","","","","","1645.9000000059605","","","","Images/NewTrialBC.png","","1"
"image-button-response","123","789639","0.0-13.0-1.21","19","Low_HMMActual","","","","","","null","","","","Images/BlackBeadChoice.png","","null"
"image-button-response","124","790151","0.0-13.0-2.21","19","Low_HMMActual","","","","","","null","","","","Images/BlackBeadChoiceWrong.png","","null"
"image-button-response","125","794020","0.0-13.0-0.22","19","Low_HMMActual","","","","","","3867.7000000029802","","","","Images/NewTrialWC.png","","3"
"image-button-response","126","794322","0.0-13.0-1.22","19","Low_HMMActual","","","","","","null","","","","Images/WhiteBeadChoice.png","","null"
"image-button-response","127","794823","0.0-13.0-2.22","19","Low_HMMActual","","","","","","null","","","","Images/WhiteBeadChoiceWrong.png","","null"
"image-button-response","128","796060","0.0-13.0-0.23","19","Low_HMMActual","","","","","","1235.8999999910593","","","","Images/NewTrialBC.png","","0"
"image-button-response","129","796361","0.0-13.0-1.23","19","Low_HMMActual","","","","","","null","","","","Images/BlackBeadChoice.png","","null"
"image-button-response","130","796868","0.0-13.0-2.23","19","Low_HMMActual","","","","","","null","","","","Images/BlackBeadChoiceWrong.png","","null"
"image-button-response","131","798033","0.0-13.0-0.24","19","Low_HMMActual","","","","","","1163.4000000059605","","","","Images/NewTrialWC.png","","2"
"image-button-response","132","798335","0.0-13.0-1.24","19","Low_HMMActual","","","","","","null","","","","Images/WhiteBeadChoice.png","","null"
"image-button-response","133","798836","0.0-13.0-2.24","19","Low_HMMActual","","","","","","null","","","","Images/WhiteBeadChoiceWrong.png","","null"
"image-button-response","134","800897","0.0-13.0-0.25","19","Low_HMMActual","","","","","","2059.2999999970198","","","","Images/NewTrialBC.png","","1"
"image-button-response","135","801202","0.0-13.0-1.25","19","Low_HMMActual","","","","","","null","","","","Images/BlackBeadChoice.png","","null"
"image-button-response","136","801714","0.0-13.0-2.25","19","Low_HMMActual","","","","","","null","","","","Images/BlackBeadChoiceWrong.png","","null"
"image-button-response","137","802867","0.0-13.0-0.26","19","Low_HMMActual","","","","","","1151.5","","","","Images/NewTrialWC.png","","3"
"image-button-response","138","803173","0.0-13.0-1.26","19","Low_HMMActual","","","","","","null","","","","Images/WhiteBeadChoice.png","","null"
"image-button-response","139","803687","0.0-13.0-2.26","19","Low_HMMActual","","","","","","null","","","","Images/WhiteBeadChoiceWrong.png","","null"
"image-button-response","140","805734","0.0-13.0-0.27","19","Low_HMMActual","","","","","","2045.7999999970198","","","","Images/NewTrialBC.png","","0"
"image-button-response","141","806042","0.0-13.0-1.27","19","Low_HMMActual","","","","","","null","","","","Images/BlackBeadChoice.png","","null"
"image-button-response","142","806554","0.0-13.0-2.27","19","Low_HMMActual","","","","","","null","","","","Images/BlackBeadChoiceCorrect.png","","null"
"image-button-response","143","806874","0.0-13.0-0.28","19","Low_HMMActual","","","","","","318","","","","Images/NewTrialBC.png","","0"
"image-button-response","144","807188","0.0-13.0-1.28","19","Low_HMMActual","","","","","","null","","","","Images/BlackBeadChoice.png","","null"
"image-button-response","145","807690","0.0-13.0-2.28","19","Low_HMMActual","","","","","","null","","","","Images/BlackBeadChoiceWrong.png","","null"
"image-button-response","146","810565","0.0-13.0-0.29","19","Low_HMMActual","","","","","","2874.2000000029802","","","","Images/NewTrialWC.png","","1"
"image-button-response","147","810879","0.0-13.0-1.29","19","Low_HMMActual","","","","","","null","","","","Images/BlackBeadChoice.png","","null"
"image-button-response","148","811381","0.0-13.0-2.29","19","Low_HMMActual","","","","","","null","","","","Images/BlackBeadChoiceCorrect.png","","null"
"image-button-response","149","812121","0.0-13.0-0.30","19","Low_HMMActual","","","","","","738.7000000029802","","","","Images/NewTrialBC.png","","0"
"image-button-response","150","812425","0.0-13.0-1.30","19","Low_HMMActual","","","","","","null","","","","Images/BlackBeadChoice.png","","null"
"image-button-response","151","812936","0.0-13.0-2.30","19","Low_HMMActual","","","","","","null","","","","Images/BlackBeadChoiceWrong.png","","null"
"image-button-response","152","817712","0.0-13.0-0.31","19","Low_HMMActual","","","","","","4774.29999999702","","","","Images/NewTrialWC.png","","1"
"image-button-response","153","818016","0.0-13.0-1.31","19","Low_HMMActual","","","","","","null","","","","Images/BlackBeadChoice.png","","null"
"image-button-response","154","818518","0.0-13.0-2.31","19","Low_HMMActual","","","","","","null","","","","Images/BlackBeadChoiceWrong.png","","null"
"image-button-response","155","819148","0.0-13.0-0.32","19","Low_HMMActual","","","","","","628.2999999970198","","","","Images/NewTrialWC.png","","2"
"image-button-response","156","819461","0.0-13.0-1.32","19","Low_HMMActual","","","","","","null","","","","Images/WhiteBeadChoice.png","","null"
"image-button-response","157","819972","0.0-13.0-2.32","19","Low_HMMActual","","","","","","466.80000001192093","","","","Images/WhiteBeadChoiceCorrect.png","","2"
"image-button-response","158","821092","0.0-13.0-0.33","19","Low_HMMActual","","","","","","1118.2000000029802","","","","Images/NewTrialWC.png","","2"
"image-button-response","159","821396","0.0-13.0-1.33","19","Low_HMMActual","","","","","","null","","","","Images/WhiteBeadChoice.png","","null"
"image-button-response","160","821911","0.0-13.0-2.33","19","Low_HMMActual","","","","","","null","","","","Images/WhiteBeadChoiceCorrect.png","","null"
"image-button-response","161","822438","0.0-13.0-0.34","19","Low_HMMActual","","","","","","525.5","","","","Images/NewTrialWC.png","","2"
"image-button-response","162","822744","0.0-13.0-1.34","19","Low_HMMActual","","","","","","null","","","","Images/WhiteBeadChoice.png","","null"
"image-button-response","163","823246","0.0-13.0-2.34","19","Low_HMMActual","","","","","","null","","","","Images/WhiteBeadChoiceWrong.png","","null"
"image-button-response","164","825904","0.0-13.0-0.35","19","Low_HMMActual","","","","","","2657.1000000089407","","","","Images/NewTrialBC.png","","3"
"image-button-response","165","826206","0.0-13.0-1.35","19","Low_HMMActual","","","","","","null","","","","Images/WhiteBeadChoice.png","","null"
"image-button-response","166","826713","0.0-13.0-2.35","19","Low_HMMActual","","","","","","null","","","","Images/WhiteBeadChoiceCorrect.png","","null"
"image-button-response","167","827100","0.0-13.0-0.36","19","Low_HMMActual","","","","","","385.8999999910593","","","","Images/NewTrialWC.png","","2"
"image-button-response","168","827412","0.0-13.0-1.36","19","Low_HMMActual","","","","","","null","","","","Images/WhiteBeadChoice.png","","null"
"image-button-response","169","827924","0.0-13.0-2.36","19","Low_HMMActual","","","","","","null","","","","Images/WhiteBeadChoiceWrong.png","","null"
"image-button-response","170","829333","0.0-13.0-0.37","19","Low_HMMActual","","","","","","1407.300000011921","","","","Images/NewTrialBC.png","","3"
"image-button-response","171","829634","0.0-13.0-1.37","19","Low_HMMActual","","","","","","null","","","","Images/WhiteBeadChoice.png","","null"
"image-button-response","172","830135","0.0-13.0-2.37","19","Low_HMMActual","","","","","","null","","","","Images/WhiteBeadChoiceWrong.png","","null"
"image-button-response","173","831178","0.0-13.0-0.38","19","Low_HMMActual","","","","","","1041.0999999940395","","","","Images/NewTrialBC.png","","0"
"image-button-response","174","831490","0.0-13.0-1.38","19","Low_HMMActual","","","","","","null","","","","Images/BlackBeadChoice.png","","null"
"image-button-response","175","832000","0.0-13.0-2.38","19","Low_HMMActual","","","","","","null","","","","Images/BlackBeadChoiceCorrect.png","","null"
"image-button-response","176","832551","0.0-13.0-0.39","19","Low_HMMActual","","","","","","549.1000000089407","","","","Images/NewTrialBC.png","","0"
"image-button-response","177","832867","0.0-13.0-1.39","19","Low_HMMActual","","","","","","null","","","","Images/BlackBeadChoice.png","","null"
"image-button-response","178","833377","0.0-13.0-2.39","19","Low_HMMActual","","","","","","null","","","","Images/BlackBeadChoiceWrong.png","","null"
"image-button-response","179","835972","0.0-13.0-0.40","19","Low_HMMActual","","","","","","2593","","","","Images/NewTrialWC.png","","1"
"image-button-response","180","836284","0.0-13.0-1.40","19","Low_HMMActual","","","","","","null","","","","Images/BlackBeadChoice.png","","null"
"image-button-response","181","836797","0.0-13.0-2.40","19","Low_HMMActual","","","","","","null","","","","Images/BlackBeadChoiceWrong.png","","null"
"image-button-response","182","837508","0.0-13.0-0.41","19","Low_HMMActual","","","","","","709.2000000029802","","","","Images/NewTrialWC.png","","2"
"image-button-response","183","837824","0.0-13.0-1.41","19","Low_HMMActual","","","","","","null","","","","Images/WhiteBeadChoice.png","","null"
"image-button-response","184","838334","0.0-13.0-2.41","19","Low_HMMActual","","","","","","null","","","","Images/WhiteBeadChoiceCorrect.png","","null"
"image-button-response","185","838521","0.0-13.0-0.42","19","Low_HMMActual","","","","","","185.5","","","","Images/NewTrialWC.png","","2"
"image-button-response","186","838829","0.0-13.0-1.42","19","Low_HMMActual","","","","","","null","","","","Images/WhiteBeadChoice.png","","null"
"image-button-response","187","839336","0.0-13.0-2.42","19","Low_HMMActual","","","","","","null","","","","Images/WhiteBeadChoiceWrong.png","","null"
"image-button-response","188","840814","0.0-13.0-0.43","19","Low_HMMActual","","","","","","1476.5","","","","Images/NewTrialBC.png","","1"
"image-button-response","189","841123","0.0-13.0-1.43","19","Low_HMMActual","","","","","","null","","","","Images/BlackBeadChoice.png","","null"
"image-button-response","190","841637","0.0-13.0-2.43","19","Low_HMMActual","","","","","","null","","","","Images/BlackBeadChoiceWrong.png","","null"
"image-button-response","191","844537","0.0-13.0-0.44","19","Low_HMMActual","","","","","","2897.7000000029802","","","","Images/NewTrialWC.png","","3"
"image-button-response","192","844847","0.0-13.0-1.44","19","Low_HMMActual","","","","","","null","","","","Images/WhiteBeadChoice.png","","null"
"image-button-response","193","845356","0.0-13.0-2.44","19","Low_HMMActual","","","","","","null","","","","Images/WhiteBeadChoiceWrong.png","","null"
"image-button-response","194","846433","0.0-13.0-0.45","19","Low_HMMActual","","","","","","1076.2000000029802","","","","Images/NewTrialBC.png","","0"
"image-button-response","195","846737","0.0-13.0-1.45","19","Low_HMMActual","","","","","","null","","","","Images/BlackBeadChoice.png","","null"
"image-button-response","196","847246","0.0-13.0-2.45","19","Low_HMMActual","","","","","","null","","","","Images/BlackBeadChoiceCorrect.png","","null"
"image-button-response","197","847597","0.0-13.0-0.46","19","Low_HMMActual","","","","","","349.29999999701977","","","","Images/NewTrialBC.png","","0"
"image-button-response","198","847911","0.0-13.0-1.46","19","Low_HMMActual","","","","","","null","","","","Images/BlackBeadChoice.png","","null"
"image-button-response","199","848422","0.0-13.0-2.46","19","Low_HMMActual","","","","","","null","","","","Images/BlackBeadChoiceWrong.png","","null"
"image-button-response","200","849705","0.0-13.0-0.47","19","Low_HMMActual","","","","","","1282.0999999940395","","","","Images/NewTrialWC.png","","2"
"image-button-response","201","850007","0.0-13.0-1.47","19","Low_HMMActual","","","","","","null","","","","Images/WhiteBeadChoice.png","","null"
"image-button-response","202","850508","0.0-13.0-2.47","19","Low_HMMActual","","","","","","null","","","","Images/WhiteBeadChoiceCorrect.png","","null"
"image-button-response","203","850865","0.0-13.0-0.48","19","Low_HMMActual","","","","","","355.29999999701977","","","","Images/NewTrialWC.png","","2"
"image-button-response","204","851169","0.0-13.0-1.48","19","Low_HMMActual","","","","","","null","","","","Images/WhiteBeadChoice.png","","null"
"image-button-response","205","851680","0.0-13.0-2.48","19","Low_HMMActual","","","","","","null","","","","Images/WhiteBeadChoiceCorrect.png","","null"
"image-button-response","206","852494","0.0-13.0-0.49","19","Low_HMMActual","","","","","","813","","","","Images/NewTrialWC.png","","2"
"image-button-response","207","852806","0.0-13.0-1.49","19","Low_HMMActual","","","","","","null","","","","Images/WhiteBeadChoice.png","","null"
"image-button-response","208","853322","0.0-13.0-2.49","19","Low_HMMActual","","","","","","null","","","","Images/WhiteBeadChoiceCorrect.png","","null"
"image-button-response","209","854209","0.0-13.0-0.50","19","Low_HMMActual","","","","","","886.1000000089407","","","","Images/NewTrialWC.png","","3"
"image-button-response","210","854511","0.0-13.0-1.50","19","Low_HMMActual","","","","","","null","","","","Images/WhiteBeadChoice.png","","null"
"image-button-response","211","855012","0.0-13.0-2.50","19","Low_HMMActual","","","","","","null","","","","Images/WhiteBeadChoiceWrong.png","","null"
"image-button-response","212","856725","0.0-13.0-0.51","19","Low_HMMActual","","","","","","1712","","","","Images/NewTrialBC.png","","0"
"image-button-response","213","857037","0.0-13.0-1.51","19","Low_HMMActual","","","","","","null","","","","Images/BlackBeadChoice.png","","null"
"image-button-response","214","857548","0.0-13.0-2.51","19","Low_HMMActual","","","","","","null","","","","Images/BlackBeadChoiceCorrect.png","","null"
"image-button-response","215","858002","0.0-13.0-0.52","19","Low_HMMActual","","","","","","452.79999999701977","","","","Images/NewTrialBC.png","","0"
"image-button-response","216","858308","0.0-13.0-1.52","19","Low_HMMActual","","","","","","null","","","","Images/BlackBeadChoice.png","","null"
"image-button-response","217","858821","0.0-13.0-2.52","19","Low_HMMActual","","","","","","null","","","","Images/BlackBeadChoiceCorrect.png","","null"
"image-button-response","218","859585","0.0-13.0-0.53","19","Low_HMMActual","","","","","","755.9000000059605","","","","Images/NewTrialBC.png","","0"
"image-button-response","219","859887","0.0-13.0-1.53","19","Low_HMMActual","","","","","","null","","","","Images/BlackBeadChoice.png","","null"
"image-button-response","220","860389","0.0-13.0-2.53","19","Low_HMMActual","","","","","","null","","","","Images/BlackBeadChoiceWrong.png","","null"
"image-button-response","221","864266","0.0-13.0-0.54","19","Low_HMMActual","","","","","","3875.7000000029802","","","","Images/NewTrialWC.png","","1"
"image-button-response","222","864569","0.0-13.0-1.54","19","Low_HMMActual","","","","","","null","","","","Images/BlackBeadChoice.png","","null"
"image-button-response","223","865070","0.0-13.0-2.54","19","Low_HMMActual","","","","","","null","","","","Images/BlackBeadChoiceCorrect.png","","null"
"image-button-response","224","865579","0.0-13.0-0.55","19","Low_HMMActual","","","","","","507.5","","","","Images/NewTrialBC.png","","0"
"image-button-response","225","865881","0.0-13.0-1.55","19","Low_HMMActual","","","","","","null","","","","Images/BlackBeadChoice.png","","null"
"image-button-response","226","866383","0.0-13.0-2.55","19","Low_HMMActual","","","","","","null","","","","Images/BlackBeadChoiceCorrect.png","","null"
"image-button-response","227","867002","0.0-13.0-0.56","19","Low_HMMActual","","","","","","617.9000000059605","","","","Images/NewTrialBC.png","","0"
"image-button-response","228","867304","0.0-13.0-1.56","19","Low_HMMActual","","","","","","null","","","","Images/BlackBeadChoice.png","","null"
"image-button-response","229","867805","0.0-13.0-2.56","19","Low_HMMActual","","","","","","null","","","","Images/BlackBeadChoiceCorrect.png","","null"
"image-button-response","230","868981","0.0-13.0-0.57","19","Low_HMMActual","","","","","","1174.0999999940395","","","","Images/NewTrialBC.png","","0"
"image-button-response","231","869284","0.0-13.0-1.57","19","Low_HMMActual","","","","","","null","","","","Images/BlackBeadChoice.png","","null"
"image-button-response","232","869786","0.0-13.0-2.57","19","Low_HMMActual","","","","","","null","","","","Images/BlackBeadChoiceCorrect.png","","null"
"image-button-response","233","871308","0.0-13.0-0.58","19","Low_HMMActual","","","","","","1520.699999988079","","","","Images/NewTrialBC.png","","3"
"image-button-response","234","871610","0.0-13.0-1.58","19","Low_HMMActual","","","","","","null","","","","Images/WhiteBeadChoice.png","","null"
"image-button-response","235","872111","0.0-13.0-2.58","19","Low_HMMActual","","","","","","null","","","","Images/WhiteBeadChoiceWrong.png","","null"
"image-button-response","236","873177","0.0-13.0-0.59","19","Low_HMMActual","","","","","","1064.4000000059605","","","","Images/NewTrialBC.png","","3"
"image-button-response","237","873479","0.0-13.0-1.59","19","Low_HMMActual","","","","","","null","","","","Images/WhiteBeadChoice.png","","null"
"image-button-response","238","873981","0.0-13.0-2.59","19","Low_HMMActual","","","","","","null","","","","Images/WhiteBeadChoiceCorrect.png","","null"
"image-button-response","239","874711","0.0-13.0-0.60","19","Low_HMMActual","","","","","","728.7000000029802","","","","Images/NewTrialWC.png","","2"
"image-button-response","240","875013","0.0-13.0-1.60","19","Low_HMMActual","","","","","","null","","","","Images/WhiteBeadChoice.png","","null"
"image-button-response","241","875523","0.0-13.0-2.60","19","Low_HMMActual","","","","","","null","","","","Images/WhiteBeadChoiceCorrect.png","","null"
"image-button-response","242","876086","0.0-13.0-0.61","19","Low_HMMActual","","","","","","562","","","","Images/NewTrialWC.png","","2"
"image-button-response","243","876407","0.0-13.0-1.61","19","Low_HMMActual","","","","","","null","","","","Images/WhiteBeadChoice.png","","null"
"image-button-response","244","876915","0.0-13.0-2.61","19","Low_HMMActual","","","","","","null","","","","Images/WhiteBeadChoiceCorrect.png","","null"
"image-button-response","245","877446","0.0-13.0-0.62","19","Low_HMMActual","","","","","","530","","","","Images/NewTrialWC.png","","2"
"image-button-response","246","877751","0.0-13.0-1.62","19","Low_HMMActual","","","","","","null","","","","Images/WhiteBeadChoice.png","","null"
"image-button-response","247","878253","0.0-13.0-2.62","19","Low_HMMActual","","","","","","null","","","","Images/WhiteBeadChoiceWrong.png","","null"
"image-button-response","248","878986","0.0-13.0-0.63","19","Low_HMMActual","","","","","","732.0999999940395","","","","Images/NewTrialBC.png","","1"
"image-button-response","249","879300","0.0-13.0-1.63","19","Low_HMMActual","","","","","","null","","","","Images/BlackBeadChoice.png","","null"
"image-button-response","250","879810","0.0-13.0-2.63","19","Low_HMMActual","","","","","","null","","","","Images/BlackBeadChoiceCorrect.png","","null"
"image-button-response","251","880180","0.0-13.0-0.64","19","Low_HMMActual","","","","","","368.59999999403954","","","","Images/NewTrialBC.png","","0"
"image-button-response","252","880490","0.0-13.0-1.64","19","Low_HMMActual","","","","","","null","","","","Images/BlackBeadChoice.png","","null"
"image-button-response","253","881004","0.0-13.0-2.64","19","Low_HMMActual","","","","","","null","","","","Images/BlackBeadChoiceWrong.png","","null"
"image-button-response","254","882293","0.0-13.0-0.65","19","Low_HMMActual","","","","","","1288.1000000089407","","","","Images/NewTrialWC.png","","3"
"image-button-response","255","882603","0.0-13.0-1.65","19","Low_HMMActual","","","","","","null","","","","Images/WhiteBeadChoice.png","","null"
"image-button-response","256","883105","0.0-13.0-2.65","19","Low_HMMActual","","","","","","null","","","","Images/WhiteBeadChoiceWrong.png","","null"
"image-button-response","257","883554","0.0-13.0-0.66","19","Low_HMMActual","","","","","","447.79999999701977","","","","Images/NewTrialBC.png","","1"
"image-button-response","258","883859","0.0-13.0-1.66","19","Low_HMMActual","","","","","","null","","","","Images/BlackBeadChoice.png","","null"
"image-button-response","259","884363","0.0-13.0-2.66","19","Low_HMMActual","","","","","","null","","","","Images/BlackBeadChoiceCorrect.png","","null"
"image-button-response","260","884709","0.0-13.0-0.67","19","Low_HMMActual","","","","","","344.20000000298023","","","","Images/NewTrialBC.png","","0"
"image-button-response","261","885024","0.0-13.0-1.67","19","Low_HMMActual","","","","","","null","","","","Images/BlackBeadChoice.png","","null"
"image-button-response","262","885534","0.0-13.0-2.67","19","Low_HMMActual","","","","","","null","","","","Images/BlackBeadChoiceCorrect.png","","null"
"image-button-response","263","886353","0.0-13.0-0.68","19","Low_HMMActual","","","","","","816.7999999970198","","","","Images/NewTrialBC.png","","0"
"image-button-response","264","886664","0.0-13.0-1.68","19","Low_HMMActual","","","","","","null","","","","Images/BlackBeadChoice.png","","null"
"image-button-response","265","887175","0.0-13.0-2.68","19","Low_HMMActual","","","","","","null","","","","Images/BlackBeadChoiceWrong.png","","null"
"image-button-response","266","889236","0.0-13.0-0.69","19","Low_HMMActual","","","","","","2060.2000000029802","","","","Images/NewTrialWC.png","","3"
"image-button-response","267","889537","0.0-13.0-1.69","19","Low_HMMActual","","","","","","null","","","","Images/WhiteBeadChoice.png","","null"
"image-button-response","268","890038","0.0-13.0-2.69","19","Low_HMMActual","","","","","","null","","","","Images/WhiteBeadChoiceWrong.png","","null"
"image-button-response","269","890848","0.0-13.0-0.70","19","Low_HMMActual","","","","","","809","","","","Images/NewTrialBC.png","","0"
"image-button-response","270","891164","0.0-13.0-1.70","19","Low_HMMActual","","","","","","null","","","","Images/BlackBeadChoice.png","","null"
"image-button-response","271","891665","0.0-13.0-2.70","19","Low_HMMActual","","","","","","null","","","","Images/BlackBeadChoiceWrong.png","","null"
"image-button-response","272","892976","0.0-13.0-0.71","19","Low_HMMActual","","","","","","1310.0999999940395","","","","Images/NewTrialWC.png","","1"
"image-button-response","273","893278","0.0-13.0-1.71","19","Low_HMMActual","","","","","","null","","","","Images/BlackBeadChoice.png","","null"
"image-button-response","274","893779","0.0-13.0-2.71","19","Low_HMMActual","","","","","","null","","","","Images/BlackBeadChoiceCorrect.png","","null"
"image-button-response","275","894235","0.0-13.0-0.72","19","Low_HMMActual","","","","","","454.5","","","","Images/NewTrialBC.png","","0"
"image-button-response","276","894547","0.0-13.0-1.72","19","Low_HMMActual","","","","","","null","","","","Images/BlackBeadChoice.png","","null"
"image-button-response","277","895071","0.0-13.0-2.72","19","Low_HMMActual","","","","","","null","","","","Images/BlackBeadChoiceCorrect.png","","null"
"image-button-response","278","895461","0.0-13.0-0.73","19","Low_HMMActual","","","","","","388.80000001192093","","","","Images/NewTrialBC.png","","0"
"image-button-response","279","895769","0.0-13.0-1.73","19","Low_HMMActual","","","","","","null","","","","Images/BlackBeadChoice.png","","null"
"image-button-response","280","896281","0.0-13.0-2.73","19","Low_HMMActual","","","","","","null","","","","Images/BlackBeadChoiceCorrect.png","","null"
"image-button-response","281","897003","0.0-13.0-0.74","19","Low_HMMActual","","","","","","721","","","","Images/NewTrialBC.png","","0"
"image-button-response","282","897315","0.0-13.0-1.74","19","Low_HMMActual","","","","","","null","","","","Images/BlackBeadChoice.png","","null"
"image-button-response","283","897825","0.0-13.0-2.74","19","Low_HMMActual","","","","","","null","","","","Images/BlackBeadChoiceCorrect.png","","null"
"image-button-response","284","898261","0.0-13.0-0.75","19","Low_HMMActual","","","","","","434.29999999701977","","","","Images/NewTrialBC.png","","0"
"image-button-response","285","898570","0.0-13.0-1.75","19","Low_HMMActual","","","","","","null","","","","Images/BlackBeadChoice.png","","null"
"image-button-response","286","899078","0.0-13.0-2.75","19","Low_HMMActual","","","","","","null","","","","Images/BlackBeadChoiceCorrect.png","","null"
"image-button-response","287","899527","0.0-13.0-0.76","19","Low_HMMActual","","","","","","447.20000000298023","","","","Images/NewTrialBC.png","","0"
"image-button-response","288","899836","0.0-13.0-1.76","19","Low_HMMActual","","","","","","null","","","","Images/BlackBeadChoice.png","","null"
"image-button-response","289","900345","0.0-13.0-2.76","19","Low_HMMActual","","","","","","null","","","","Images/BlackBeadChoiceCorrect.png","","null"
"image-button-response","290","901433","0.0-13.0-0.77","19","Low_HMMActual","","","","","","1086","","","","Images/NewTrialBC.png","","1"
"image-button-response","291","901740","0.0-13.0-1.77","19","Low_HMMActual","","","","","","null","","","","Images/BlackBeadChoice.png","","null"
"image-button-response","292","902251","0.0-13.0-2.77","19","Low_HMMActual","","","","","","null","","","","Images/BlackBeadChoiceWrong.png","","null"
"image-button-response","293","904228","0.0-13.0-0.78","19","Low_HMMActual","","","","","","1974.0999999940395","","","","Images/NewTrialWC.png","","3"
"image-button-response","294","904540","0.0-13.0-1.78","19","Low_HMMActual","","","","","","null","","","","Images/WhiteBeadChoice.png","","null"
"image-button-response","295","905054","0.0-13.0-2.78","19","Low_HMMActual","","","","","","null","","","","Images/WhiteBeadChoiceWrong.png","","null"
"image-button-response","296","906676","0.0-13.0-0.79","19","Low_HMMActual","","","","","","1621","","","","Images/NewTrialBC.png","","0"
"image-button-response","297","906987","0.0-13.0-1.79","19","Low_HMMActual","","","","","","null","","","","Images/BlackBeadChoice.png","","null"
"image-button-response","298","907488","0.0-13.0-2.79","19","Low_HMMActual","","","","","","null","","","","Images/BlackBeadChoiceCorrect.png","","null"
"image-button-response","299","908095","0.0-13.0-0.80","19","Low_HMMActual","","","","","","605","","","","Images/NewTrialBC.png","","0"
"image-button-response","300","908409","0.0-13.0-1.80","19","Low_HMMActual","","","","","","null","","","","Images/BlackBeadChoice.png","","null"
"image-button-response","301","908918","0.0-13.0-2.80","19","Low_HMMActual","","","","","","null","","","","Images/BlackBeadChoiceWrong.png","","null"
"image-button-response","302","910517","0.0-13.0-0.81","19","Low_HMMActual","","","","","","1598.1000000089407","","","","Images/NewTrialWC.png","","1"
"image-button-response","303","910818","0.0-13.0-1.81","19","Low_HMMActual","","","","","","null","","","","Images/BlackBeadChoice.png","","null"
"image-button-response","304","911320","0.0-13.0-2.81","19","Low_HMMActual","","","","","","null","","","","Images/BlackBeadChoiceWrong.png","","null"
"image-button-response","305","911748","0.0-13.0-0.82","19","Low_HMMActual","","","","","","426.59999999403954","","","","Images/NewTrialWC.png","","3"
"image-button-response","306","912062","0.0-13.0-1.82","19","Low_HMMActual","","","","","","null","","","","Images/WhiteBeadChoice.png","","null"
"image-button-response","307","912573","0.0-13.0-2.82","19","Low_HMMActual","","","","","","null","","","","Images/WhiteBeadChoiceWrong.png","","null"
"image-button-response","308","913552","0.0-13.0-0.83","19","Low_HMMActual","","","","","","977.8000000119209","","","","Images/NewTrialBC.png","","1"
"image-button-response","309","913859","0.0-13.0-1.83","19","Low_HMMActual","","","","","","null","","","","Images/BlackBeadChoice.png","","null"
"image-button-response","310","914368","0.0-13.0-2.83","19","Low_HMMActual","","","","","","null","","","","Images/BlackBeadChoiceCorrect.png","","null"
"image-button-response","311","914618","0.0-13.0-0.84","19","Low_HMMActual","","","","","","249","","","","Images/NewTrialBC.png","","0"
"image-button-response","312","914927","0.0-13.0-1.84","19","Low_HMMActual","","","","","","null","","","","Images/BlackBeadChoice.png","","null"
"image-button-response","313","915439","0.0-13.0-2.84","19","Low_HMMActual","","","","","","null","","","","Images/BlackBeadChoiceCorrect.png","","null"
"image-button-response","314","916112","0.0-13.0-0.85","19","Low_HMMActual","","","","","","671.7000000029802","","","","Images/NewTrialBC.png","","0"
"image-button-response","315","916428","0.0-13.0-1.85","19","Low_HMMActual","","","","","","null","","","","Images/BlackBeadChoice.png","","null"
"image-button-response","316","916938","0.0-13.0-2.85","19","Low_HMMActual","","","","","","null","","","","Images/BlackBeadChoiceCorrect.png","","null"
"image-button-response","317","917393","0.0-13.0-0.86","19","Low_HMMActual","","","","","","453.80000001192093","","","","Images/NewTrialBC.png","","0"
"image-button-response","318","917696","0.0-13.0-1.86","19","Low_HMMActual","","","","","","null","","","","Images/BlackBeadChoice.png","","null"
"image-button-response","319","918198","0.0-13.0-2.86","19","Low_HMMActual","","","","","","null","","","","Images/BlackBeadChoiceWrong.png","","null"
"image-button-response","320","919448","0.0-13.0-0.87","19","Low_HMMActual","","","","","","1248.800000011921","","","","Images/NewTrialWC.png","","3"
"image-button-response","321","919755","0.0-13.0-1.87","19","Low_HMMActual","","","","","","null","","","","Images/WhiteBeadChoice.png","","null"
"image-button-response","322","920256","0.0-13.0-2.87","19","Low_HMMActual","","","","","","null","","","","Images/WhiteBeadChoiceCorrect.png","","null"
"image-button-response","323","920377","0.0-13.0-0.88","19","Low_HMMActual","","","","","","119.3999999910593","","","","Images/NewTrialWC.png","","2"
"image-button-response","324","920683","0.0-13.0-1.88","19","Low_HMMActual","","","","","","null","","","","Images/WhiteBeadChoice.png","","null"
"image-button-response","325","921190","0.0-13.0-2.88","19","Low_HMMActual","","","","","","null","","","","Images/WhiteBeadChoiceCorrect.png","","null"
"image-button-response","326","921368","0.0-13.0-0.89","19","Low_HMMActual","","","","","","176.6000000089407","","","","Images/NewTrialWC.png","","2"
"image-button-response","327","921672","0.0-13.0-1.89","19","Low_HMMActual","","","","","","null","","","","Images/WhiteBeadChoice.png","","null"
"image-button-response","328","922184","0.0-13.0-2.89","19","Low_HMMActual","","","","","","null","","","","Images/WhiteBeadChoiceWrong.png","","null"
"image-button-response","329","923077","0.0-13.0-0.90","19","Low_HMMActual","","","","","","892","","","","Images/NewTrialBC.png","","1"
"image-button-response","330","923391","0.0-13.0-1.90","19","Low_HMMActual","","","","","","null","","","","Images/BlackBeadChoice.png","","null"
"image-button-response","331","923901","0.0-13.0-2.90","19","Low_HMMActual","","","","","","null","","","","Images/BlackBeadChoiceCorrect.png","","null"
"image-button-response","332","924941","0.0-13.0-0.91","19","Low_HMMActual","","","","","","1037.7999999970198","","","","Images/NewTrialBC.png","","0"
"image-button-response","333","925243","0.0-13.0-1.91","19","Low_HMMActual","","","","","","null","","","","Images/BlackBeadChoice.png","","null"
"image-button-response","334","925755","0.0-13.0-2.91","19","Low_HMMActual","","","","","","null","","","","Images/BlackBeadChoiceCorrect.png","","null"
"image-button-response","335","926341","0.0-13.0-0.92","19","Low_HMMActual","","","","","","583.9000000059605","","","","Images/NewTrialBC.png","","0"
"image-button-response","336","926651","0.0-13.0-1.92","19","Low_HMMActual","","","","","","null","","","","Images/BlackBeadChoice.png","","null"
"image-button-response","337","927159","0.0-13.0-2.92","19","Low_HMMActual","","","","","","null","","","","Images/BlackBeadChoiceWrong.png","","null"
"image-button-response","338","927952","0.0-13.0-0.93","19","Low_HMMActual","","","","","","792","","","","Images/NewTrialWC.png","","3"
"image-button-response","339","928253","0.0-13.0-1.93","19","Low_HMMActual","","","","","","null","","","","Images/WhiteBeadChoice.png","","null"
"image-button-response","340","928766","0.0-13.0-2.93","19","Low_HMMActual","","","","","","null","","","","Images/WhiteBeadChoiceCorrect.png","","null"
"image-button-response","341","929007","0.0-13.0-0.94","19","Low_HMMActual","","","","","","239.70000000298023","","","","Images/NewTrialWC.png","","2"
"image-button-response","342","929323","0.0-13.0-1.94","19","Low_HMMActual","","","","","","null","","","","Images/WhiteBeadChoice.png","","null"
"image-button-response","343","929824","0.0-13.0-2.94","19","Low_HMMActual","","","","","","null","","","","Images/WhiteBeadChoiceWrong.png","","null"
"image-button-response","344","930379","0.0-13.0-0.95","19","Low_HMMActual","","","","","","552.5","","","","Images/NewTrialBC.png","","1"
"image-button-response","345","930696","0.0-13.0-1.95","19","Low_HMMActual","","","","","","null","","","","Images/BlackBeadChoice.png","","null"
"image-button-response","346","931206","0.0-13.0-2.95","19","Low_HMMActual","","","","","","null","","","","Images/BlackBeadChoiceCorrect.png","","null"
"image-button-response","347","931775","0.0-13.0-0.96","19","Low_HMMActual","","","","","","567.2000000029802","","","","Images/NewTrialBC.png","","0"
"image-button-response","348","932089","0.0-13.0-1.96","19","Low_HMMActual","","","","","","null","","","","Images/BlackBeadChoice.png","","null"
"image-button-response","349","932599","0.0-13.0-2.96","19","Low_HMMActual","","","","","","null","","","","Images/BlackBeadChoiceCorrect.png","","null"
"image-button-response","350","932899","0.0-13.0-0.97","19","Low_HMMActual","","","","","","299","","","","Images/NewTrialBC.png","","0"
"image-button-response","351","933202","0.0-13.0-1.97","19","Low_HMMActual","","","","","","null","","","","Images/BlackBeadChoice.png","","null"
"image-button-response","352","933714","0.0-13.0-2.97","19","Low_HMMActual","","","","","","null","","","","Images/BlackBeadChoiceCorrect.png","","null"
"image-button-response","353","934089","0.0-13.0-0.98","19","Low_HMMActual","","","","","","373.5","","","","Images/NewTrialBC.png","","0"
"image-button-response","354","934397","0.0-13.0-1.98","19","Low_HMMActual","","","","","","null","","","","Images/BlackBeadChoice.png","","null"
"image-button-response","355","934912","0.0-13.0-2.98","19","Low_HMMActual","","","","","","null","","","","Images/BlackBeadChoiceWrong.png","","null"
"image-button-response","356","935456","0.0-13.0-0.99","19","Low_HMMActual","","","","","","542.2000000029802","","","","Images/NewTrialWC.png","","3"
"image-button-response","357","935773","0.0-13.0-1.99","19","Low_HMMActual","","","","","","null","","","","Images/WhiteBeadChoice.png","","null"
"image-button-response","358","936280","0.0-13.0-2.99","19","Low_HMMActual","","","","","","null","","","","Images/WhiteBeadChoiceWrong.png","","null"
"image-button-response","359","938449","0.0-13.0-0.100","19","Low_HMMActual","","","","","","2167.5","","","","Images/NewTrialBC.png","","0"
"image-button-response","360","938751","0.0-13.0-1.100","19","Low_HMMActual","","","","","","null","","","","Images/BlackBeadChoice.png","","null"
"image-button-response","361","939254","0.0-13.0-2.100","19","Low_HMMActual","","","","","","null","","","","Images/BlackBeadChoiceWrong.png","","null"
"image-button-response","362","940066","0.0-13.0-0.101","19","Low_HMMActual","","","","","","809.6000000089407","","","","Images/NewTrialWC.png","","3"
"image-button-response","363","940380","0.0-13.0-1.101","19","Low_HMMActual","","","","","","null","","","","Images/WhiteBeadChoice.png","","null"
"image-button-response","364","940882","0.0-13.0-2.101","19","Low_HMMActual","","","","","","null","","","","Images/WhiteBeadChoiceCorrect.png","","null"
"image-button-response","365","941181","0.0-13.0-0.102","19","Low_HMMActual","","","","","","297","","","","Images/NewTrialWC.png","","2"
"image-button-response","366","941484","0.0-13.0-1.102","19","Low_HMMActual","","","","","","null","","","","Images/WhiteBeadChoice.png","","null"
"image-button-response","367","941997","0.0-13.0-2.102","19","Low_HMMActual","","","","","","null","","","","Images/WhiteBeadChoiceCorrect.png","","null"
"image-button-response","368","942561","0.0-13.0-0.103","19","Low_HMMActual","","","","","","562.2999999970198","","","","Images/NewTrialWC.png","","2"
"image-button-response","369","942865","0.0-13.0-1.103","19","Low_HMMActual","","","","","","null","","","","Images/WhiteBeadChoice.png","","null"
"image-button-response","370","943368","0.0-13.0-2.103","19","Low_HMMActual","","","","","","null","","","","Images/WhiteBeadChoiceWrong.png","","null"
"image-button-response","371","945557","0.0-13.0-0.104","19","Low_HMMActual","","","","","","2187.2999999970198","","","","Images/NewTrialBC.png","","3"
"image-button-response","372","945859","0.0-13.0-1.104","19","Low_HMMActual","","","","","","null","","","","Images/WhiteBeadChoice.png","","null"
"image-button-response","373","946360","0.0-13.0-2.104","19","Low_HMMActual","","","","","","null","","","","Images/WhiteBeadChoiceCorrect.png","","null"
"image-button-response","374","947370","0.0-13.0-0.105","19","Low_HMMActual","","","","","","1007.7000000029802","","","","Images/NewTrialWC.png","","2"
"image-button-response","375","947672","0.0-13.0-1.105","19","Low_HMMActual","","","","","","null","","","","Images/WhiteBeadChoice.png","","null"
"image-button-response","376","948185","0.0-13.0-2.105","19","Low_HMMActual","","","","","","null","","","","Images/WhiteBeadChoiceCorrect.png","","null"
"image-button-response","377","948871","0.0-13.0-0.106","19","Low_HMMActual","","","","","","684.4000000059605","","","","Images/NewTrialWC.png","","2"
"image-button-response","378","949179","0.0-13.0-1.106","19","Low_HMMActual","","","","","","null","","","","Images/WhiteBeadChoice.png","","null"
"image-button-response","379","949693","0.0-13.0-2.106","19","Low_HMMActual","","","","","","null","","","","Images/WhiteBeadChoiceCorrect.png","","null"
"image-button-response","380","950255","0.0-13.0-0.107","19","Low_HMMActual","","","","","","560.9000000059605","","","","Images/NewTrialWC.png","","2"
"image-button-response","381","950558","0.0-13.0-1.107","19","Low_HMMActual","","","","","","null","","","","Images/WhiteBeadChoice.png","","null"
"image-button-response","382","951070","0.0-13.0-2.107","19","Low_HMMActual","","","","","","null","","","","Images/WhiteBeadChoiceCorrect.png","","null"
"image-button-response","383","952623","0.0-13.0-0.108","19","Low_HMMActual","","","","","","1551.7999999970198","","","","Images/NewTrialWC.png","","3"
"image-button-response","384","952935","0.0-13.0-1.108","19","Low_HMMActual","","","","","","null","","","","Images/WhiteBeadChoice.png","","null"
"image-button-response","385","953451","0.0-13.0-2.108","19","Low_HMMActual","","","","","","null","","","","Images/WhiteBeadChoiceCorrect.png","","null"
"image-button-response","386","954246","0.0-13.0-0.109","19","Low_HMMActual","","","","","","793.5","","","","Images/NewTrialWC.png","","3"
"image-button-response","387","954551","0.0-13.0-1.109","19","Low_HMMActual","","","","","","null","","","","Images/WhiteBeadChoice.png","","null"
"image-button-response","388","955060","0.0-13.0-2.109","19","Low_HMMActual","","","","","","null","","","","Images/WhiteBeadChoiceCorrect.png","","null"
"image-button-response","389","956001","0.0-13.0-0.110","19","Low_HMMActual","","","","","","939.2999999970198","","","","Images/NewTrialWC.png","","3"
"image-button-response","390","956314","0.0-13.0-1.110","19","Low_HMMActual","","","","","","null","","","","Images/WhiteBeadChoice.png","","null"
"image-button-response","391","956823","0.0-13.0-2.110","19","Low_HMMActual","","","","","","null","","","","Images/WhiteBeadChoiceWrong.png","","null"
"image-button-response","392","958403","0.0-13.0-0.111","19","Low_HMMActual","","","","","","1578.7000000029802","","","","Images/NewTrialBC.png","","0"
"image-button-response","393","958705","0.0-13.0-1.111","19","Low_HMMActual","","","","","","null","","","","Images/BlackBeadChoice.png","","null"
"image-button-response","394","959215","0.0-13.0-2.111","19","Low_HMMActual","","","","","","null","","","","Images/BlackBeadChoiceCorrect.png","","null"
"image-button-response","395","963637","0.0-13.0-0.112","19","Low_HMMActual","","","","","","4420.0999999940395","","","","Images/NewTrialBC.png","","0"
"image-button-response","396","963951","0.0-13.0-1.112","19","Low_HMMActual","","","","","","null","","","","Images/BlackBeadChoice.png","","null"
"image-button-response","397","964453","0.0-13.0-2.112","19","Low_HMMActual","","","","","","null","","","","Images/BlackBeadChoiceWrong.png","","null"
"image-button-response","398","965518","0.0-13.0-0.113","19","Low_HMMActual","","","","","","1064.2000000029802","","","","Images/NewTrialWC.png","","3"
"image-button-response","399","965819","0.0-13.0-1.113","19","Low_HMMActual","","","","","","null","","","","Images/WhiteBeadChoice.png","","null"
"image-button-response","400","966321","0.0-13.0-2.113","19","Low_HMMActual","","","","","","null","","","","Images/WhiteBeadChoiceCorrect.png","","null"
"image-button-response","401","966717","0.0-13.0-0.114","19","Low_HMMActual","","","","","","394.29999999701977","","","","Images/NewTrialWC.png","","2"
"image-button-response","402","967019","0.0-13.0-1.114","19","Low_HMMActual","","","","","","null","","","","Images/WhiteBeadChoice.png","","null"
"image-button-response","403","967532","0.0-13.0-2.114","19","Low_HMMActual","","","","","","null","","","","Images/WhiteBeadChoiceCorrect.png","","null"
"image-button-response","404","967680","0.0-13.0-0.115","19","Low_HMMActual","","","","","","146.09999999403954","","","","Images/NewTrialWC.png","","2"
"image-button-response","405","967996","0.0-13.0-1.115","19","Low_HMMActual","","","","","","null","","","","Images/WhiteBeadChoice.png","","null"
"image-button-response","406","968497","0.0-13.0-2.115","19","Low_HMMActual","","","","","","null","","","","Images/WhiteBeadChoiceCorrect.png","","null"
"image-button-response","407","969581","0.0-13.0-0.116","19","Low_HMMActual","","","","","","1083","","","","Images/NewTrialWC.png","","2"
"image-button-response","408","969898","0.0-13.0-1.116","19","Low_HMMActual","","","","","","null","","","","Images/WhiteBeadChoice.png","","null"
"image-button-response","409","970399","0.0-13.0-2.116","19","Low_HMMActual","","","","","","null","","","","Images/WhiteBeadChoiceWrong.png","","null"
"image-button-response","410","970917","0.0-13.0-0.117","19","Low_HMMActual","","","","","","516.7000000029802","","","","Images/NewTrialBC.png","","1"
"image-button-response","411","971230","0.0-13.0-1.117","19","Low_HMMActual","","","","","","null","","","","Images/BlackBeadChoice.png","","null"
"image-button-response","412","971741","0.0-13.0-2.117","19","Low_HMMActual","","","","","","null","","","","Images/BlackBeadChoiceCorrect.png","","null"
"image-button-response","413","972087","0.0-13.0-0.118","19","Low_HMMActual","","","","","","343.69999998807907","","","","Images/NewTrialBC.png","","0"
"image-button-response","414","972389","0.0-13.0-1.118","19","Low_HMMActual","","","","","","null","","","","Images/BlackBeadChoice.png","","null"
"image-button-response","415","972891","0.0-13.0-2.118","19","Low_HMMActual","","","","","","null","","","","Images/BlackBeadChoiceCorrect.png","","null"
"image-button-response","416","973259","0.0-13.0-0.119","19","Low_HMMActual","","","","","","366.30000001192093","","","","Images/NewTrialBC.png","","0"
"image-button-response","417","973569","0.0-13.0-1.119","19","Low_HMMActual","","","","","","null","","","","Images/BlackBeadChoice.png","","null"
"image-button-response","418","974092","0.0-13.0-2.119","19","Low_HMMActual","","","","","","null","","","","Images/BlackBeadChoiceCorrect.png","","null"
"image-button-response","419","976253","0.0-13.0-0.120","19","Low_HMMActual","","","","","","2159.2000000029802","","","","Images/NewTrialBC.png","","0"
"image-button-response","420","976555","0.0-13.0-1.120","19","Low_HMMActual","","","","","","null","","","","Images/BlackBeadChoice.png","","null"
"image-button-response","421","977057","0.0-13.0-2.120","19","Low_HMMActual","","","","","","null","","","","Images/BlackBeadChoiceWrong.png","","null"
"image-button-response","422","978014","0.0-13.0-0.121","19","Low_HMMActual","","","","","","955.7000000029802","","","","Images/NewTrialWC.png","","3"
"image-button-response","423","978327","0.0-13.0-1.121","19","Low_HMMActual","","","","","","null","","","","Images/WhiteBeadChoice.png","","null"
"image-button-response","424","978829","0.0-13.0-2.121","19","Low_HMMActual","","","","","","null","","","","Images/WhiteBeadChoiceCorrect.png","","null"
"image-button-response","425","979175","0.0-13.0-0.122","19","Low_HMMActual","","","","","","339","","","","Images/NewTrialWC.png","","2"
"image-button-response","426","979484","0.0-13.0-1.122","19","Low_HMMActual","","","","","","null","","","","Images/WhiteBeadChoice.png","","null"
"image-button-response","427","979997","0.0-13.0-2.122","19","Low_HMMActual","","","","","","null","","","","Images/WhiteBeadChoiceCorrect.png","","null"
"image-button-response","428","980587","0.0-13.0-0.123","19","Low_HMMActual","","","","","","588.8999999910593","","","","Images/NewTrialWC.png","","2"
"image-button-response","429","980895","0.0-13.0-1.123","19","Low_HMMActual","","","","","","null","","","","Images/WhiteBeadChoice.png","","null"
"image-button-response","430","981396","0.0-13.0-2.123","19","Low_HMMActual","","","","","","null","","","","Images/WhiteBeadChoiceWrong.png","","null"
"image-button-response","431","981975","0.0-13.0-0.124","19","Low_HMMActual","","","","","","577","","","","Images/NewTrialBC.png","","1"
"image-button-response","432","982277","0.0-13.0-1.124","19","Low_HMMActual","","","","","","null","","","","Images/BlackBeadChoice.png","","null"
"image-button-response","433","982789","0.0-13.0-2.124","19","Low_HMMActual","","","","","","null","","","","Images/BlackBeadChoiceCorrect.png","","null"
"image-button-response","434","983541","0.0-13.0-0.125","19","Low_HMMActual","","","","","","749.9000000059605","","","","Images/NewTrialBC.png","","0"
"image-button-response","435","983843","0.0-13.0-1.125","19","Low_HMMActual","","","","","","null","","","","Images/BlackBeadChoice.png","","null"
"image-button-response","436","984345","0.0-13.0-2.125","19","Low_HMMActual","","","","","","null","","","","Images/BlackBeadChoiceWrong.png","","null"
"image-button-response","437","984836","0.0-13.0-0.126","19","Low_HMMActual","","","","","","490.20000000298023","","","","Images/NewTrialWC.png","","3"
"image-button-response","438","985138","0.0-13.0-1.126","19","Low_HMMActual","","","","","","null","","","","Images/WhiteBeadChoice.png","","null"
"image-button-response","439","985639","0.0-13.0-2.126","19","Low_HMMActual","","","","","","null","","","","Images/WhiteBeadChoiceWrong.png","","null"
"image-button-response","440","986836","0.0-13.0-0.127","19","Low_HMMActual","","","","","","1194.699999988079","","","","Images/NewTrialBC.png","","0"
"image-button-response","441","987147","0.0-13.0-1.127","19","Low_HMMActual","","","","","","null","","","","Images/BlackBeadChoice.png","","null"
"image-button-response","442","987659","0.0-13.0-2.127","19","Low_HMMActual","","","","","","null","","","","Images/BlackBeadChoiceCorrect.png","","null"
"image-button-response","443","988020","0.0-13.0-0.128","19","Low_HMMActual","","","","","","353.1000000089407","","","","Images/NewTrialBC.png","","0"
"image-button-response","444","988322","0.0-13.0-1.128","19","Low_HMMActual","","","","","","null","","","","Images/BlackBeadChoice.png","","null"
"image-button-response","445","988835","0.0-13.0-2.128","19","Low_HMMActual","","","","","","null","","","","Images/BlackBeadChoiceCorrect.png","","null"
"image-button-response","446","990284","0.0-13.0-0.129","19","Low_HMMActual","","","","","","1447.3999999910593","","","","Images/NewTrialBC.png","","0"
"image-button-response","447","990597","0.0-13.0-1.129","19","Low_HMMActual","","","","","","null","","","","Images/BlackBeadChoice.png","","null"
"image-button-response","448","991107","0.0-13.0-2.129","19","Low_HMMActual","","","","","","null","","","","Images/BlackBeadChoiceCorrect.png","","null"
"image-button-response","449","992368","0.0-13.0-0.130","19","Low_HMMActual","","","","","","1259.7999999970198","","","","Images/NewTrialBC.png","","0"
"image-button-response","450","992669","0.0-13.0-1.130","19","Low_HMMActual","","","","","","null","","","","Images/BlackBeadChoice.png","","null"
"image-button-response","451","993170","0.0-13.0-2.130","19","Low_HMMActual","","","","","","null","","","","Images/BlackBeadChoiceCorrect.png","","null"
"image-button-response","452","993839","0.0-13.0-0.131","19","Low_HMMActual","","","","","","667","","","","Images/NewTrialBC.png","","0"
"image-button-response","453","994154","0.0-13.0-1.131","19","Low_HMMActual","","","","","","null","","","","Images/BlackBeadChoice.png","","null"
"image-button-response","454","994656","0.0-13.0-2.131","19","Low_HMMActual","","","","","","null","","","","Images/BlackBeadChoiceCorrect.png","","null"
"image-button-response","455","995303","0.0-13.0-0.132","19","Low_HMMActual","","","","","","646","","","","Images/NewTrialBC.png","","0"
"image-button-response","456","995612","0.0-13.0-1.132","19","Low_HMMActual","","","","","","null","","","","Images/BlackBeadChoice.png","","null"
"image-button-response","457","996122","0.0-13.0-2.132","19","Low_HMMActual","","","","","","null","","","","Images/BlackBeadChoiceCorrect.png","","null"
"image-button-response","458","998171","0.0-13.0-0.133","19","Low_HMMActual","","","","","","2047.5","","","","Images/NewTrialBC.png","","3"
"image-button-response","459","998472","0.0-13.0-1.133","19","Low_HMMActual","","","","","","null","","","","Images/WhiteBeadChoice.png","","null"
"image-button-response","460","998973","0.0-13.0-2.133","19","Low_HMMActual","","","","","","null","","","","Images/WhiteBeadChoiceWrong.png","","null"
"image-button-response","461","999762","0.0-13.0-0.134","19","Low_HMMActual","","","","","","787.8999999910593","","","","Images/NewTrialBC.png","","3"
"image-button-response","462","1000068","0.0-13.0-1.134","19","Low_HMMActual","","","","","","null","","","","Images/WhiteBeadChoice.png","","null"
"image-button-response","463","1000569","0.0-13.0-2.134","19","Low_HMMActual","","","","","","null","","","","Images/WhiteBeadChoiceWrong.png","","null"
"image-button-response","464","1001442","0.0-13.0-0.135","19","Low_HMMActual","","","","","","871.6000000089407","","","","Images/NewTrialBC.png","","1"
"image-button-response","465","1001743","0.0-13.0-1.135","19","Low_HMMActual","","","","","","null","","","","Images/BlackBeadChoice.png","","null"
"image-button-response","466","1002245","0.0-13.0-2.135","19","Low_HMMActual","","","","","","null","","","","Images/BlackBeadChoiceWrong.png","","null"
"image-button-response","467","1002562","0.0-13.0-0.136","19","Low_HMMActual","","","","","","315.79999999701977","","","","Images/NewTrialWC.png","","3"
"image-button-response","468","1002864","0.0-13.0-1.136","19","Low_HMMActual","","","","","","null","","","","Images/WhiteBeadChoice.png","","null"
"image-button-response","469","1003366","0.0-13.0-2.136","19","Low_HMMActual","","","","","","null","","","","Images/WhiteBeadChoiceCorrect.png","","null"
"image-button-response","470","1004532","0.0-13.0-0.137","19","Low_HMMActual","","","","","","1165","","","","Images/NewTrialWC.png","","2"
"image-button-response","471","1004844","0.0-13.0-1.137","19","Low_HMMActual","","","","","","null","","","","Images/WhiteBeadChoice.png","","null"
"image-button-response","472","1005350","0.0-13.0-2.137","19","Low_HMMActual","","","","","","null","","","","Images/WhiteBeadChoiceCorrect.png","","null"
"image-button-response","473","1005823","0.0-13.0-0.138","19","Low_HMMActual","","","","","","470.5","","","","Images/NewTrialWC.png","","2"
"image-button-response","474","1006136","0.0-13.0-1.138","19","Low_HMMActual","","","","","","null","","","","Images/WhiteBeadChoice.png","","null"
"image-button-response","475","1006651","0.0-13.0-2.138","19","Low_HMMActual","","","","","","null","","","","Images/WhiteBeadChoiceCorrect.png","","null"
"image-button-response","476","1007010","0.0-13.0-0.139","19","Low_HMMActual","","","","","","357.79999999701977","","","","Images/NewTrialWC.png","","2"
"image-button-response","477","1007316","0.0-13.0-1.139","19","Low_HMMActual","","","","","","null","","","","Images/WhiteBeadChoice.png","","null"
"image-button-response","478","1007829","0.0-13.0-2.139","19","Low_HMMActual","","","","","","null","","","","Images/WhiteBeadChoiceCorrect.png","","null"
"image-button-response","479","1008603","0.0-13.0-0.140","19","Low_HMMActual","","","","","","766.0999999940395","","","","Images/NewTrialWC.png","","3"
"image-button-response","480","1008904","0.0-13.0-1.140","19","Low_HMMActual","","","","","","null","","","","Images/WhiteBeadChoice.png","","null"
"image-button-response","481","1009406","0.0-13.0-2.140","19","Low_HMMActual","","","","","","null","","","","Images/WhiteBeadChoiceCorrect.png","","null"
"image-button-response","482","1009756","0.0-13.0-0.141","19","Low_HMMActual","","","","","","348.5","","","","Images/NewTrialWC.png","","3"
"image-button-response","483","1010073","0.0-13.0-1.141","19","Low_HMMActual","","","","","","null","","","","Images/WhiteBeadChoice.png","","null"
"image-button-response","484","1010586","0.0-13.0-2.141","19","Low_HMMActual","","","","","","null","","","","Images/WhiteBeadChoiceCorrect.png","","null"
"image-button-response","485","1012205","0.0-13.0-0.142","19","Low_HMMActual","","","","","","1617.2999999970198","","","","Images/NewTrialWC.png","","1"
"image-button-response","486","1012513","0.0-13.0-1.142","19","Low_HMMActual","","","","","","null","","","","Images/BlackBeadChoice.png","","null"
"image-button-response","487","1013024","0.0-13.0-2.142","19","Low_HMMActual","","","","","","null","","","","Images/BlackBeadChoiceCorrect.png","","null"
"image-button-response","488","1013830","0.0-13.0-0.143","19","Low_HMMActual","","","","","","805.0999999940395","","","","Images/NewTrialBC.png","","0"
"image-button-response","489","1014142","0.0-13.0-1.143","19","Low_HMMActual","","","","","","null","","","","Images/BlackBeadChoice.png","","null"
"image-button-response","490","1014655","0.0-13.0-2.143","19","Low_HMMActual","","","","","","null","","","","Images/BlackBeadChoiceWrong.png","","null"
"image-button-response","491","1015883","0.0-13.0-0.144","19","Low_HMMActual","","","","","","1227","","","","Images/NewTrialWC.png","","3"
"image-button-response","492","1016191","0.0-13.0-1.144","19","Low_HMMActual","","","","","","null","","","","Images/WhiteBeadChoice.png","","null"
"image-button-response","493","1016701","0.0-13.0-2.144","19","Low_HMMActual","","","","","","null","","","","Images/WhiteBeadChoiceCorrect.png","","null"
"image-button-response","494","1017217","0.0-13.0-0.145","19","Low_HMMActual","","","","","","514.7000000029802","","","","Images/NewTrialWC.png","","2"
"image-button-response","495","1017522","0.0-13.0-1.145","19","Low_HMMActual","","","","","","null","","","","Images/WhiteBeadChoice.png","","null"
"image-button-response","496","1018030","0.0-13.0-2.145","19","Low_HMMActual","","","","","","null","","","","Images/WhiteBeadChoiceCorrect.png","","null"
"image-button-response","497","1018667","0.0-13.0-0.146","19","Low_HMMActual","","","","","","635.2999999970198","","","","Images/NewTrialWC.png","","2"
"image-button-response","498","1018987","0.0-13.0-1.146","19","Low_HMMActual","","","","","","null","","","","Images/WhiteBeadChoice.png","","null"
"image-button-response","499","1019500","0.0-13.0-2.146","19","Low_HMMActual","","","","","","null","","","","Images/WhiteBeadChoiceWrong.png","","null"
"image-button-response","500","1026697","0.0-13.0-0.147","19","Low_HMMActual","","","","","","7195.70000000298","","","","Images/NewTrialBC.png","","1"
"image-button-response","501","1026999","0.0-13.0-1.147","19","Low_HMMActual","","","","","","null","","","","Images/BlackBeadChoice.png","","null"
"image-button-response","502","1027501","0.0-13.0-2.147","19","Low_HMMActual","","","","","","null","","","","Images/BlackBeadChoiceWrong.png","","null"
"image-button-response","503","1028186","0.0-13.0-0.148","19","Low_HMMActual","","","","","","682.2999999970198","","","","Images/NewTrialWC.png","","3"
"image-button-response","504","1028500","0.0-13.0-1.148","19","Low_HMMActual","","","","","","null","","","","Images/WhiteBeadChoice.png","","null"
"image-button-response","505","1029001","0.0-13.0-2.148","19","Low_HMMActual","","","","","","null","","","","Images/WhiteBeadChoiceCorrect.png","","null"
"image-button-response","506","1029484","0.0-13.0-0.149","19","Low_HMMActual","","","","","","481.40000000596046","","","","Images/NewTrialWC.png","","2"
"image-button-response","507","1029797","0.0-13.0-1.149","19","Low_HMMActual","","","","","","null","","","","Images/WhiteBeadChoice.png","","null"
"image-button-response","508","1030307","0.0-13.0-2.149","19","Low_HMMActual","","","","","","null","","","","Images/WhiteBeadChoiceWrong.png","","null"
"image-button-response","509","1031041","0.0-13.0-0.150","19","Low_HMMActual","","","","","","732.7000000029802","","","","Images/NewTrialBC.png","","1"
"image-button-response","510","1031354","0.0-13.0-1.150","19","Low_HMMActual","","","","","","null","","","","Images/BlackBeadChoice.png","","null"
"image-button-response","511","1031856","0.0-13.0-2.150","19","Low_HMMActual","","","","","","null","","","","Images/BlackBeadChoiceWrong.png","","null"
"image-button-response","512","1032293","0.0-13.0-0.151","19","Low_HMMActual","","","","","","435.3999999910593","","","","Images/NewTrialWC.png","","2"
"image-button-response","513","1032599","0.0-13.0-1.151","19","Low_HMMActual","","","","","","null","","","","Images/WhiteBeadChoice.png","","null"
"image-button-response","514","1033111","0.0-13.0-2.151","19","Low_HMMActual","","","","","","null","","","","Images/WhiteBeadChoiceCorrect.png","","null"
"image-button-response","515","1033585","0.0-13.0-0.152","19","Low_HMMActual","","","","","","472.40000000596046","","","","Images/NewTrialWC.png","","2"
"image-button-response","516","1033889","0.0-13.0-1.152","19","Low_HMMActual","","","","","","null","","","","Images/WhiteBeadChoice.png","","null"
"image-button-response","517","1034400","0.0-13.0-2.152","19","Low_HMMActual","","","","","","null","","","","Images/WhiteBeadChoiceCorrect.png","","null"
"image-button-response","518","1035011","0.0-13.0-0.153","19","Low_HMMActual","","","","","","609","","","","Images/NewTrialWC.png","","2"
"image-button-response","519","1035328","0.0-13.0-1.153","19","Low_HMMActual","","","","","","null","","","","Images/WhiteBeadChoice.png","","null"
"image-button-response","520","1035841","0.0-13.0-2.153","19","Low_HMMActual","","","","","","null","","","","Images/WhiteBeadChoiceCorrect.png","","null"
"image-button-response","521","1036590","0.0-13.0-0.154","19","Low_HMMActual","","","","","","747.5999999940395","","","","Images/NewTrialWC.png","","2"
"image-button-response","522","1036907","0.0-13.0-1.154","19","Low_HMMActual","","","","","","null","","","","Images/WhiteBeadChoice.png","","null"
"image-button-response","523","1037414","0.0-13.0-2.154","19","Low_HMMActual","","","","","","null","","","","Images/WhiteBeadChoiceCorrect.png","","null"
"image-button-response","524","1038748","0.0-13.0-0.155","19","Low_HMMActual","","","","","","1332","","","","Images/NewTrialWC.png","","2"
"image-button-response","525","1039064","0.0-13.0-1.155","19","Low_HMMActual","","","","","","null","","","","Images/WhiteBeadChoice.png","","null"
"image-button-response","526","1039565","0.0-13.0-2.155","19","Low_HMMActual","","","","","","null","","","","Images/WhiteBeadChoiceWrong.png","","null"
"image-button-response","527","1040095","0.0-13.0-0.156","19","Low_HMMActual","","","","","","527.9000000059605","","","","Images/NewTrialBC.png","","1"
"image-button-response","528","1040396","0.0-13.0-1.156","19","Low_HMMActual","","","","","","null","","","","Images/BlackBeadChoice.png","","null"
"image-button-response","529","1040898","0.0-13.0-2.156","19","Low_HMMActual","","","","","","null","","","","Images/BlackBeadChoiceCorrect.png","","null"
"image-button-response","530","1041048","0.0-13.0-0.157","19","Low_HMMActual","","","","","","148.5","","","","Images/NewTrialBC.png","","0"
"image-button-response","531","1041360","0.0-13.0-1.157","19","Low_HMMActual","","","","","","null","","","","Images/BlackBeadChoice.png","","null"
"image-button-response","532","1041873","0.0-13.0-2.157","19","Low_HMMActual","","","","","","null","","","","Images/BlackBeadChoiceCorrect.png","","null"
"image-button-response","533","1042747","0.0-13.0-0.158","19","Low_HMMActual","","","","","","866.6000000089407","","","","Images/NewTrialBC.png","","0"
"image-button-response","534","1043049","0.0-13.0-1.158","19","Low_HMMActual","","","","","","null","","","","Images/BlackBeadChoice.png","","null"
"image-button-response","535","1043558","0.0-13.0-2.158","19","Low_HMMActual","","","","","","null","","","","Images/BlackBeadChoiceCorrect.png","","null"
"image-button-response","536","1044946","0.0-13.0-0.159","19","Low_HMMActual","","","","","","1386.2000000029802","","","","Images/NewTrialBC.png","","0"
"image-button-response","537","1045257","0.0-13.0-1.159","19","Low_HMMActual","","","","","","null","","","","Images/BlackBeadChoice.png","","null"
"image-button-response","538","1045765","0.0-13.0-2.159","19","Low_HMMActual","","","","","","null","","","","Images/BlackBeadChoiceCorrect.png","","null"
"image-button-response","539","1056427","0.0-13.0-0.160","19","Low_HMMActual","","","","","","10659.20000000298","","","","Images/NewTrialBC.png","","0"
"image-button-response","540","1056742","0.0-13.0-1.160","19","Low_HMMActual","","","","","","null","","","","Images/BlackBeadChoice.png","","null"
"image-button-response","541","1057253","0.0-13.0-2.160","19","Low_HMMActual","","","","","","null","","","","Images/BlackBeadChoiceCorrect.png","","null"
"image-button-response","542","1057595","0.0-13.0-0.161","19","Low_HMMActual","","","","","","340.70000000298023","","","","Images/NewTrialBC.png","","0"
"image-button-response","543","1057918","0.0-13.0-1.161","19","Low_HMMActual","","","","","","null","","","","Images/BlackBeadChoice.png","","null"
"image-button-response","544","1058420","0.0-13.0-2.161","19","Low_HMMActual","","","","","","null","","","","Images/BlackBeadChoiceWrong.png","","null"
"image-button-response","545","1059056","0.0-13.0-0.162","19","Low_HMMActual","","","","","","634.8999999910593","","","","Images/NewTrialWC.png","","3"
"image-button-response","546","1059370","0.0-13.0-1.162","19","Low_HMMActual","","","","","","null","","","","Images/WhiteBeadChoice.png","","null"
"image-button-response","547","1059871","0.0-13.0-2.162","19","Low_HMMActual","","","","","","null","","","","Images/WhiteBeadChoiceCorrect.png","","null"
"image-button-response","548","1060191","0.0-13.0-0.163","19","Low_HMMActual","","","","","","317.70000000298023","","","","Images/NewTrialWC.png","","2"
"image-button-response","549","1060499","0.0-13.0-1.163","19","Low_HMMActual","","","","","","null","","","","Images/WhiteBeadChoice.png","","null"
"image-button-response","550","1061010","0.0-13.0-2.163","19","Low_HMMActual","","","","","","null","","","","Images/WhiteBeadChoiceCorrect.png","","null"
"image-button-response","551","1067157","0.0-13.0-0.164","19","Low_HMMActual","","","","","","6145.70000000298","","","","Images/NewTrialWC.png","","2"
"image-button-response","552","1067470","0.0-13.0-1.164","19","Low_HMMActual","","","","","","null","","","","Images/WhiteBeadChoice.png","","null"
"image-button-response","553","1067979","0.0-13.0-2.164","19","Low_HMMActual","","","","","","null","","","","Images/WhiteBeadChoiceCorrect.png","","null"
"image-button-response","554","1070416","0.0-13.0-0.165","19","Low_HMMActual","","","","","","2435.7000000029802","","","","Images/NewTrialWC.png","","2"
"image-button-response","555","1070726","0.0-13.0-1.165","19","Low_HMMActual","","","","","","null","","","","Images/WhiteBeadChoice.png","","null"
"image-button-response","556","1071236","0.0-13.0-2.165","19","Low_HMMActual","","","","","","null","","","","Images/WhiteBeadChoiceCorrect.png","","null"
"image-button-response","557","1072121","0.0-13.0-0.166","19","Low_HMMActual","","","","","","883.2999999970198","","","","Images/NewTrialWC.png","","2"
"image-button-response","558","1072430","0.0-13.0-1.166","19","Low_HMMActual","","","","","","null","","","","Images/WhiteBeadChoice.png","","null"
"image-button-response","559","1072941","0.0-13.0-2.166","19","Low_HMMActual","","","","","","null","","","","Images/WhiteBeadChoiceCorrect.png","","null"
"image-button-response","560","1073868","0.0-13.0-0.167","19","Low_HMMActual","","","","","","925.1000000089407","","","","Images/NewTrialWC.png","","1"
"image-button-response","561","1074171","0.0-13.0-1.167","19","Low_HMMActual","","","","","","null","","","","Images/BlackBeadChoice.png","","null"
"image-button-response","562","1074683","0.0-13.0-2.167","19","Low_HMMActual","","","","","","null","","","","Images/BlackBeadChoiceWrong.png","","null"
"image-button-response","563","1075533","0.0-13.0-0.168","19","Low_HMMActual","","","","","","848.8000000119209","","","","Images/NewTrialWC.png","","1"
"image-button-response","564","1075845","0.0-13.0-1.168","19","Low_HMMActual","","","","","","null","","","","Images/BlackBeadChoice.png","","null"
"image-button-response","565","1076356","0.0-13.0-2.168","19","Low_HMMActual","","","","","","null","","","","Images/BlackBeadChoiceCorrect.png","","null"
"image-button-response","566","1077112","0.0-13.0-0.169","19","Low_HMMActual","","","","","","753.7000000029802","","","","Images/NewTrialBC.png","","0"
"image-button-response","567","1077414","0.0-13.0-1.169","19","Low_HMMActual","","","","","","null","","","","Images/BlackBeadChoice.png","","null"
"image-button-response","568","1077925","0.0-13.0-2.169","19","Low_HMMActual","","","","","","null","","","","Images/BlackBeadChoiceWrong.png","","null"
"image-button-response","569","1078548","0.0-13.0-0.170","19","Low_HMMActual","","","","","","620.7999999970198","","","","Images/NewTrialWC.png","","2"
"image-button-response","570","1078850","0.0-13.0-1.170","19","Low_HMMActual","","","","","","null","","","","Images/WhiteBeadChoice.png","","null"
"image-button-response","571","1079352","0.0-13.0-2.170","19","Low_HMMActual","","","","","","null","","","","Images/WhiteBeadChoiceCorrect.png","","null"
"image-button-response","572","1079792","0.0-13.0-0.171","19","Low_HMMActual","","","","","","438.70000000298023","","","","Images/NewTrialWC.png","","2"
"image-button-response","573","1080101","0.0-13.0-1.171","19","Low_HMMActual","","","","","","null","","","","Images/WhiteBeadChoice.png","","null"
"image-button-response","574","1080612","0.0-13.0-2.171","19","Low_HMMActual","","","","","","null","","","","Images/WhiteBeadChoiceCorrect.png","","null"
"image-button-response","575","1081717","0.0-13.0-0.172","19","Low_HMMActual","","","","","","1103.0999999940395","","","","Images/NewTrialWC.png","","2"
"image-button-response","576","1082028","0.0-13.0-1.172","19","Low_HMMActual","","","","","","null","","","","Images/WhiteBeadChoice.png","","null"
"image-button-response","577","1082542","0.0-13.0-2.172","19","Low_HMMActual","","","","","","null","","","","Images/WhiteBeadChoiceCorrect.png","","null"
"image-button-response","578","1083556","0.0-13.0-0.173","19","Low_HMMActual","","","","","","1012.7000000029802","","","","Images/NewTrialWC.png","","2"
"image-button-response","579","1083871","0.0-13.0-1.173","19","Low_HMMActual","","","","","","null","","","","Images/WhiteBeadChoice.png","","null"
"image-button-response","580","1084382","0.0-13.0-2.173","19","Low_HMMActual","","","","","","null","","","","Images/WhiteBeadChoiceCorrect.png","","null"
"image-button-response","581","1085095","0.0-13.0-0.174","19","Low_HMMActual","","","","","","711","","","","Images/NewTrialWC.png","","2"
"image-button-response","582","1085405","0.0-13.0-1.174","19","Low_HMMActual","","","","","","null","","","","Images/WhiteBeadChoice.png","","null"
"image-button-response","583","1085914","0.0-13.0-2.174","19","Low_HMMActual","","","","","","null","","","","Images/WhiteBeadChoiceCorrect.png","","null"
"image-button-response","584","1086636","0.0-13.0-0.175","19","Low_HMMActual","","","","","","720.1000000089407","","","","Images/NewTrialWC.png","","2"
"image-button-response","585","1086938","0.0-13.0-1.175","19","Low_HMMActual","","","","","","null","","","","Images/WhiteBeadChoice.png","","null"
"image-button-response","586","1087440","0.0-13.0-2.175","19","Low_HMMActual","","","","","","null","","","","Images/WhiteBeadChoiceWrong.png","","null"
"image-button-response","587","1089283","0.0-13.0-0.176","19","Low_HMMActual","","","","","","1841.5999999940395","","","","Images/NewTrialBC.png","","1"
"image-button-response","588","1089586","0.0-13.0-1.176","19","Low_HMMActual","","","","","","null","","","","Images/BlackBeadChoice.png","","null"
"image-button-response","589","1090088","0.0-13.0-2.176","19","Low_HMMActual","","","","","","null","","","","Images/BlackBeadChoiceCorrect.png","","null"
"image-button-response","590","1090573","0.0-13.0-0.177","19","Low_HMMActual","","","","","","483.79999999701977","","","","Images/NewTrialBC.png","","0"
"image-button-response","591","1090885","0.0-13.0-1.177","19","Low_HMMActual","","","","","","null","","","","Images/BlackBeadChoice.png","","null"
"image-button-response","592","1091396","0.0-13.0-2.177","19","Low_HMMActual","","","","","","null","","","","Images/BlackBeadChoiceCorrect.png","","null"
"image-button-response","593","1092105","0.0-13.0-0.178","19","Low_HMMActual","","","","","","707.3999999910593","","","","Images/NewTrialBC.png","","0"
"image-button-response","594","1092415","0.0-13.0-1.178","19","Low_HMMActual","","","","","","null","","","","Images/BlackBeadChoice.png","","null"
"image-button-response","595","1092924","0.0-13.0-2.178","19","Low_HMMActual","","","","","","null","","","","Images/BlackBeadChoiceWrong.png","","null"
"image-button-response","596","1094687","0.0-13.0-0.179","19","Low_HMMActual","","","","","","1761.2999999970198","","","","Images/NewTrialWC.png","","3"
"image-button-response","597","1094990","0.0-13.0-1.179","19","Low_HMMActual","","","","","","null","","","","Images/WhiteBeadChoice.png","","null"
"image-button-response","598","1095493","0.0-13.0-2.179","19","Low_HMMActual","","","","","","null","","","","Images/WhiteBeadChoiceWrong.png","","null"
"image-button-response","599","1095655","0.0-13.0-0.180","19","Low_HMMActual","","","","","","161.20000000298023","","","","Images/NewTrialBC.png","","0"
"image-button-response","600","1095965","0.0-13.0-1.180","19","Low_HMMActual","","","","","","null","","","","Images/BlackBeadChoice.png","","null"
"image-button-response","601","1096474","0.0-13.0-2.180","19","Low_HMMActual","","","","","","null","","","","Images/BlackBeadChoiceCorrect.png","","null"
"image-button-response","602","1096872","0.0-13.0-0.181","19","Low_HMMActual","","","","","","396.20000000298023","","","","Images/NewTrialBC.png","","0"
"image-button-response","603","1097186","0.0-13.0-1.181","19","Low_HMMActual","","","","","","null","","","","Images/BlackBeadChoice.png","","null"
"image-button-response","604","1097697","0.0-13.0-2.181","19","Low_HMMActual","","","","","","null","","","","Images/BlackBeadChoiceCorrect.png","","null"
"image-button-response","605","1099731","0.0-13.0-0.182","19","Low_HMMActual","","","","","","2032.3999999910593","","","","Images/NewTrialBC.png","","0"
"image-button-response","606","1100034","0.0-13.0-1.182","19","Low_HMMActual","","","","","","null","","","","Images/BlackBeadChoice.png","","null"
"image-button-response","607","1100551","0.0-13.0-2.182","19","Low_HMMActual","","","","","","null","","","","Images/BlackBeadChoiceCorrect.png","","null"
"image-button-response","608","1101525","0.0-13.0-0.183","19","Low_HMMActual","","","","","","972.3999999910593","","","","Images/NewTrialBC.png","","0"
"image-button-response","609","1101836","0.0-13.0-1.183","19","Low_HMMActual","","","","","","null","","","","Images/BlackBeadChoice.png","","null"
"image-button-response","610","1102346","0.0-13.0-2.183","19","Low_HMMActual","","","","","","null","","","","Images/BlackBeadChoiceCorrect.png","","null"
"image-button-response","611","1149079","0.0-13.0-0.184","19","Low_HMMActual","","","","","","46731.39999999106","","","","Images/NewTrialBC.png","","0"
"image-button-response","612","1149385","0.0-13.0-1.184","19","Low_HMMActual","","","","","","null","","","","Images/BlackBeadChoice.png","","null"
"image-button-response","613","1149896","0.0-13.0-2.184","19","Low_HMMActual","","","","","","null","","","","Images/BlackBeadChoiceCorrect.png","","null"
"image-button-response","614","1150642","0.0-13.0-0.185","19","Low_HMMActual","","","","","","744.4000000059605","","","","Images/NewTrialBC.png","","0"
"image-button-response","615","1150948","0.0-13.0-1.185","19","Low_HMMActual","","","","","","null","","","","Images/BlackBeadChoice.png","","null"
"image-button-response","616","1151463","0.0-13.0-2.185","19","Low_HMMActual","","","","","","null","","","","Images/BlackBeadChoiceCorrect.png","","null"
"image-button-response","617","1151956","0.0-13.0-0.186","19","Low_HMMActual","","","","","","492","","","","Images/NewTrialBC.png","","0"
"image-button-response","618","1152267","0.0-13.0-1.186","19","Low_HMMActual","","","","","","null","","","","Images/BlackBeadChoice.png","","null"
"image-button-response","619","1152775","0.0-13.0-2.186","19","Low_HMMActual","","","","","","null","","","","Images/BlackBeadChoiceCorrect.png","","null"
"image-button-response","620","1153101","0.0-13.0-0.187","19","Low_HMMActual","","","","","","319.40000000596046","","","","Images/NewTrialBC.png","","0"
"image-button-response","621","1153411","0.0-13.0-1.187","19","Low_HMMActual","","","","","","null","","","","Images/BlackBeadChoice.png","","null"
"image-button-response","622","1153921","0.0-13.0-2.187","19","Low_HMMActual","","","","","","null","","","","Images/BlackBeadChoiceWrong.png","","null"
"image-button-response","623","1154859","0.0-13.0-0.188","19","Low_HMMActual","","","","","","936.2000000029802","","","","Images/NewTrialWC.png","","3"
"image-button-response","624","1155176","0.0-13.0-1.188","19","Low_HMMActual","","","","","","null","","","","Images/WhiteBeadChoice.png","","null"
"image-button-response","625","1155684","0.0-13.0-2.188","19","Low_HMMActual","","","","","","null","","","","Images/WhiteBeadChoiceCorrect.png","","null"
"image-button-response","626","1156570","0.0-13.0-0.189","19","Low_HMMActual","","","","","","884.7999999970198","","","","Images/NewTrialWC.png","","2"
"image-button-response","627","1156873","0.0-13.0-1.189","19","Low_HMMActual","","","","","","null","","","","Images/WhiteBeadChoice.png","","null"
"image-button-response","628","1157383","0.0-13.0-2.189","19","Low_HMMActual","","","","","","null","","","","Images/WhiteBeadChoiceCorrect.png","","null"
"image-button-response","629","1160476","0.0-13.0-0.190","19","Low_HMMActual","","","","","","3090.7000000029802","","","","Images/NewTrialWC.png","","2"
"image-button-response","630","1160793","0.0-13.0-1.190","19","Low_HMMActual","","","","","","null","","","","Images/WhiteBeadChoice.png","","null"
"image-button-response","631","1161304","0.0-13.0-2.190","19","Low_HMMActual","","","","","","null","","","","Images/WhiteBeadChoiceCorrect.png","","null"
"image-button-response","632","1171751","0.0-13.0-0.191","19","Low_HMMActual","","","","","","10444.29999999702","","","","Images/NewTrialWC.png","","2"
"image-button-response","633","1172053","0.0-13.0-1.191","19","Low_HMMActual","","","","","","null","","","","Images/WhiteBeadChoice.png","","null"
"image-button-response","634","1172554","0.0-13.0-2.191","19","Low_HMMActual","","","","","","null","","","","Images/WhiteBeadChoiceCorrect.png","","null"
"image-button-response","635","1173019","0.0-13.0-0.192","19","Low_HMMActual","","","","","","462.5","","","","Images/NewTrialWC.png","","2"
"image-button-response","636","1173320","0.0-13.0-1.192","19","Low_HMMActual","","","","","","null","","","","Images/WhiteBeadChoice.png","","null"
"image-button-response","637","1173830","0.0-13.0-2.192","19","Low_HMMActual","","","","","","null","","","","Images/WhiteBeadChoiceCorrect.png","","null"
"image-button-response","638","1174191","0.0-13.0-0.193","19","Low_HMMActual","","","","","","359.59999999403954","","","","Images/NewTrialWC.png","","2"
"image-button-response","639","1174494","0.0-13.0-1.193","19","Low_HMMActual","","","","","","null","","","","Images/WhiteBeadChoice.png","","null"
"image-button-response","640","1175001","0.0-13.0-2.193","19","Low_HMMActual","","","","","","null","","","","Images/WhiteBeadChoiceCorrect.png","","null"
"image-button-response","641","1175395","0.0-13.0-0.194","19","Low_HMMActual","","","","","","391.79999999701977","","","","Images/NewTrialWC.png","","2"
"image-button-response","642","1175700","0.0-13.0-1.194","19","Low_HMMActual","","","","","","null","","","","Images/WhiteBeadChoice.png","","null"
"image-button-response","643","1176210","0.0-13.0-2.194","19","Low_HMMActual","","","","","","null","","","","Images/WhiteBeadChoiceCorrect.png","","null"
"image-button-response","644","1177013","0.0-13.0-0.195","19","Low_HMMActual","","","","","","801.3999999910593","","","","Images/NewTrialWC.png","","2"
"image-button-response","645","1177323","0.0-13.0-1.195","19","Low_HMMActual","","","","","","null","","","","Images/WhiteBeadChoice.png","","null"
"image-button-response","646","1177833","0.0-13.0-2.195","19","Low_HMMActual","","","","","","null","","","","Images/WhiteBeadChoiceCorrect.png","","null"
"image-button-response","647","1178775","0.0-13.0-0.196","19","Low_HMMActual","","","","","","939.7999999970198","","","","Images/NewTrialWC.png","","1"
"image-button-response","648","1179090","0.0-13.0-1.196","19","Low_HMMActual","","","","","","null","","","","Images/BlackBeadChoice.png","","null"
"image-button-response","649","1179605","0.0-13.0-2.196","19","Low_HMMActual","","","","","","null","","","","Images/BlackBeadChoiceWrong.png","","null"
"image-button-response","650","1179932","0.0-13.0-0.197","19","Low_HMMActual","","","","","","326","","","","Images/NewTrialWC.png","","1"
"image-button-response","651","1180238","0.0-13.0-1.197","19","Low_HMMActual","","","","","","null","","","","Images/BlackBeadChoice.png","","null"
"image-button-response","652","1180749","0.0-13.0-2.197","19","Low_HMMActual","","","","","","null","","","","Images/BlackBeadChoiceWrong.png","","null"
"image-button-response","653","1181714","0.0-13.0-0.198","19","Low_HMMActual","","","","","","962.8000000119209","","","","Images/NewTrialWC.png","","3"
"image-button-response","654","1182015","0.0-13.0-1.198","19","Low_HMMActual","","","","","","null","","","","Images/WhiteBeadChoice.png","","null"
"image-button-response","655","1182517","0.0-13.0-2.198","19","Low_HMMActual","","","","","","null","","","","Images/WhiteBeadChoiceWrong.png","","null"
"image-button-response","656","1183035","0.0-13.0-0.199","19","Low_HMMActual","","","","","","516.3999999910593","","","","Images/NewTrialBC.png","","1"
"image-button-response","657","1183351","0.0-13.0-1.199","19","Low_HMMActual","","","","","","null","","","","Images/BlackBeadChoice.png","","null"
"image-button-response","658","1183861","0.0-13.0-2.199","19","Low_HMMActual","","","","","","null","","","","Images/BlackBeadChoiceWrong.png","","null"
"image-button-response","659","1184830","0.0-13.0-0.200","19","Low_HMMActual","","","","","","967.2000000029802","","","","Images/NewTrialWC.png","","2"
"image-button-response","660","1185147","0.0-13.0-1.200","19","Low_HMMActual","","","","","","null","","","","Images/WhiteBeadChoice.png","","null"
"image-button-response","661","1185658","0.0-13.0-2.200","19","Low_HMMActual","","","","","","null","","","","Images/WhiteBeadChoiceCorrect.png","","null"
"image-button-response","662","1186105","0.0-13.0-0.201","19","Low_HMMActual","","","","","","446.5","","","","Images/NewTrialWC.png","","2"
"image-button-response","663","1186408","0.0-13.0-1.201","19","Low_HMMActual","","","","","","null","","","","Images/WhiteBeadChoice.png","","null"
"image-button-response","664","1186911","0.0-13.0-2.201","19","Low_HMMActual","","","","","","null","","","","Images/WhiteBeadChoiceWrong.png","","null"
"image-button-response","665","1189546","0.0-13.0-0.202","19","Low_HMMActual","","","","","","2632.8999999910593","","","","Images/NewTrialBC.png","","1"
