"trial_type","trial_index","time_elapsed","internal_node_id","Script_Picker","Block_Type","success","timeout","failed_images","failed_audio","failed_video","rt","url","responses","question_order","stimulus","key_press","response"
"pavlovia","0","34","0.0-0.0","17","Low_HMMActual","","","","","","","","","","","",""
"preload","1","36","0.0-1.0","17","Low_HMMActual","true","false","[]","[]","[]","","","","","","",""
"external-html","2","647409","0.0-2.0-0.0","17","Low_HMMActual","","","","","","647324.5","consent.html","","","","",""
"survey-multi-choice","3","795799","0.0-2.0-1.0","17","Low_HMMActual","","","","","","148389.5","","{""Q0"":""Male"",""Q1"":""Hispanic or Latino""}","[0,1]","","",""
"survey-text","4","799414","0.0-2.0-2.0","17","Low_HMMActual","","","","","","3612.399999976158","","{""Q0"":""22""}","","","",""
"survey-text","5","805173","0.0-2.0-3.0","17","Low_HMMActual","","","","","","5648.699999988079","","{""Q0"":""5c102d91e32f860001651a93""}","","","",""
"image-keyboard-response","6","830706","0.0-3.0-0.0","17","Low_HMMActual","","","","","","25418.19999998808","","","","tutorial/tutorial1.png"," ",""
"image-keyboard-response","7","837469","0.0-3.0-0.1","17","Low_HMMActual","","","","","","6760.800000011921","","","","tutorial/tutorial2.png"," ",""
"image-keyboard-response","8","841069","0.0-3.0-0.2","17","Low_HMMActual","","","","","","3594.5","","","","tutorial/tutorial3.png"," ",""
"image-keyboard-response","9","842098","0.0-3.0-0.3","17","Low_HMMActual","","","","","","1027","","","","tutorial/tutorial4.png"," ",""
"image-keyboard-response","10","844046","0.0-3.0-0.4","17","Low_HMMActual","","","","","","1946.800000011921","","","","tutorial/tutorial5.png"," ",""
"image-keyboard-response","11","859674","0.0-3.0-0.5","17","Low_HMMActual","","","","","","15626.100000023842","","","","tutorial/tutorial6.png"," ",""
"image-keyboard-response","12","865321","0.0-3.0-0.6","17","Low_HMMActual","","","","","","5645.599999964237","","","","tutorial/tutorial7.png"," ",""
"image-keyboard-response","13","896040","0.0-3.0-0.7","17","Low_HMMActual","","","","","","30717.600000023842","","","","tutorial/tutorial8.png"," ",""
"image-keyboard-response","14","903624","0.0-3.0-0.8","17","Low_HMMActual","","","","","","7580.899999976158","","","","tutorial/tutorial9.png"," ",""
"image-keyboard-response","15","915347","0.0-3.0-0.9","17","Low_HMMActual","","","","","","11722.199999988079","","","","tutorial/tutorial10.png"," ",""
"image-keyboard-response","16","926272","0.0-3.0-0.10","17","Low_HMMActual","","","","","","10922.699999988079","","","","tutorial/tutorial11.png"," ",""
"image-keyboard-response","17","935863","0.0-3.0-0.11","17","Low_HMMActual","","","","","","9589.399999976158","","","","tutorial/tutorial12.png"," ",""
"image-keyboard-response","18","945031","0.0-3.0-0.12","17","Low_HMMActual","","","","","","9166.699999988079","","","","tutorial/tutorial13.png"," ",""
"image-keyboard-response","19","954263","0.0-3.0-0.13","17","Low_HMMActual","","","","","","9230.899999976158","","","","tutorial/tutorial14.png"," ",""
"image-keyboard-response","20","956304","0.0-3.0-0.14","17","Low_HMMActual","","","","","","2039.5999999642372","","","","tutorial/tutorial15.png"," ",""
"image-keyboard-response","21","962128","0.0-4.0","17","Low_HMMActual","","","","","","5822.800000011921","","","","tutorial/tutorial16.png","arrowup",""
"image-keyboard-response","22","970398","0.0-5.0","17","Low_HMMActual","","","","","","6802.899999976158","","","","tutorial/tutorial17.png","arrowright",""
"image-keyboard-response","23","975382","0.0-6.0","17","Low_HMMActual","","","","","","3779.2000000476837","","","","tutorial/tutorial18.png","arrowleft",""
"image-keyboard-response","24","985084","0.0-7.0","17","Low_HMMActual","","","","","","9026.100000023842","","","","tutorial/tutorial19.png"," ",""
"html-keyboard-response","25","994627","0.0-8.0","18","Low_HMMActual","","","","","","9535.099999964237","","","","<div class=""container"" style=""height:800px;width:800px;display:flex;flex-direction:column;justify-content:center;align-items:center;text-align:center;font-weight:normal;font-family:Arial;font-size:20px""><p>Loading episode&hellip;</p><div>"," ",""
"image-button-response","26","1006620","0.0-9.0-0.0","18","Low_HMMActual","","","","","","11989.199999988079","","","","Images/NoChoice.png","","1"
"image-button-response","27","1006923","0.0-9.0-1.0","18","Low_HMMActual","","","","","","null","","","","Images/BlackBeadChoice.png","","null"
"image-button-response","28","1007429","0.0-9.0-2.0","18","Low_HMMActual","","","","","","null","","","","Images/BlackBeadChoiceWrong.png","","null"
"image-button-response","29","1013037","0.0-9.0-0.1","18","Low_HMMActual","","","","","","5599","","","","Images/NewTrialWC.png","","2"
"image-button-response","30","1013339","0.0-9.0-1.1","18","Low_HMMActual","","","","","","null","","","","Images/WhiteBeadChoice.png","","null"
"image-button-response","31","1013846","0.0-9.0-2.1","18","Low_HMMActual","","","","","","null","","","","Images/WhiteBeadChoiceCorrect.png","","null"
"image-button-response","32","1018798","0.0-9.0-0.2","18","Low_HMMActual","","","","","","4949.100000023842","","","","Images/NewTrialWC.png","","2"
"image-button-response","33","1019105","0.0-9.0-1.2","18","Low_HMMActual","","","","","","null","","","","Images/WhiteBeadChoice.png","","null"
"image-button-response","34","1019609","0.0-9.0-2.2","18","Low_HMMActual","","","","","","null","","","","Images/WhiteBeadChoiceCorrect.png","","null"
"image-button-response","35","1021218","0.0-9.0-0.3","18","Low_HMMActual","","","","","","1606","","","","Images/NewTrialWC.png","","2"
"image-button-response","36","1021521","0.0-9.0-1.3","18","Low_HMMActual","","","","","","null","","","","Images/WhiteBeadChoice.png","","null"
"image-button-response","37","1022023","0.0-9.0-2.3","18","Low_HMMActual","","","","","","null","","","","Images/WhiteBeadChoiceWrong.png","","null"
"image-button-response","38","1023392","0.0-9.0-0.4","18","Low_HMMActual","","","","","","1367","","","","Images/NewTrialBC.png","","0"
"image-button-response","39","1023708","0.0-9.0-1.4","18","Low_HMMActual","","","","","","null","","","","Images/BlackBeadChoice.png","","null"
"image-button-response","40","1024214","0.0-9.0-2.4","18","Low_HMMActual","","","","","","null","","","","Images/BlackBeadChoiceWrong.png","","null"
"image-button-response","41","1030135","0.0-9.0-0.5","18","Low_HMMActual","","","","","","5918.200000047684","","","","Images/NewTrialWC.png","","3"
"image-button-response","42","1030440","0.0-9.0-1.5","18","Low_HMMActual","","","","","","null","","","","Images/WhiteBeadChoice.png","","null"
"image-button-response","43","1030950","0.0-9.0-2.5","18","Low_HMMActual","","","","","","null","","","","Images/WhiteBeadChoiceCorrect.png","","null"
"image-button-response","44","1031984","0.0-9.0-0.6","18","Low_HMMActual","","","","","","1027.6000000238419","","","","Images/NewTrialWC.png","","2"
"image-button-response","45","1032289","0.0-9.0-1.6","18","Low_HMMActual","","","","","","null","","","","Images/WhiteBeadChoice.png","","null"
"image-button-response","46","1032792","0.0-9.0-2.6","18","Low_HMMActual","","","","","","null","","","","Images/WhiteBeadChoiceWrong.png","","null"
"image-button-response","47","1034597","0.0-9.0-0.7","18","Low_HMMActual","","","","","","1803","","","","Images/NewTrialBC.png","","1"
"image-button-response","48","1034914","0.0-9.0-1.7","18","Low_HMMActual","","","","","","null","","","","Images/BlackBeadChoice.png","","null"
"image-button-response","49","1035430","0.0-9.0-2.7","18","Low_HMMActual","","","","","","null","","","","Images/BlackBeadChoiceWrong.png","","null"
"image-button-response","50","1037423","0.0-9.0-0.8","18","Low_HMMActual","","","","","","1990.199999988079","","","","Images/NewTrialWC.png","","3"
"image-button-response","51","1037731","0.0-9.0-1.8","18","Low_HMMActual","","","","","","null","","","","Images/WhiteBeadChoice.png","","null"
"image-button-response","52","1038235","0.0-9.0-2.8","18","Low_HMMActual","","","","","","null","","","","Images/WhiteBeadChoiceCorrect.png","","null"
"image-button-response","53","1038615","0.0-9.0-0.9","18","Low_HMMActual","","","","","","376.89999997615814","","","","Images/NewTrialWC.png","","2"
"image-button-response","54","1038925","0.0-9.0-1.9","18","Low_HMMActual","","","","","","null","","","","Images/WhiteBeadChoice.png","","null"
"image-button-response","55","1039439","0.0-9.0-2.9","18","Low_HMMActual","","","","","","null","","","","Images/WhiteBeadChoiceWrong.png","","null"
"html-keyboard-response","56","1042482","0.0-10.0","18","Low_HMMActual","","","","","","3040","","","",""," ",""
"image-keyboard-response","57","1045099","0.0-11.0","18","Low_HMMActual","","","","","","2614.899999976158","","","","tutorial/tutorial20.png"," ",""
"html-keyboard-response","58","1055854","0.0-12.0","19","Low_HMMActual","","","","","","10750.799999952316","","","","<div class=""container"" style=""height:800px;width:800px;display:flex;flex-direction:column;justify-content:center;align-items:center;text-align:center;font-weight:normal;font-family:Arial;font-size:20px""><p>Loading episode&hellip;</p><div>"," ",""
"image-button-response","59","1058564","0.0-13.0-0.0","19","Low_HMMActual","","","","","","2706.7999999523163","","","","Images/NoChoice.png","","1"
"image-button-response","60","1058876","0.0-13.0-1.0","19","Low_HMMActual","","","","","","null","","","","Images/BlackBeadChoice.png","","null"
"image-button-response","61","1059381","0.0-13.0-2.0","19","Low_HMMActual","","","","","","null","","","","Images/BlackBeadChoiceWrong.png","","null"
"image-button-response","62","1064121","0.0-13.0-0.1","19","Low_HMMActual","","","","","","4736.599999964237","","","","Images/NewTrialWC.png","","3"
"image-button-response","63","1064432","0.0-13.0-1.1","19","Low_HMMActual","","","","","","null","","","","Images/WhiteBeadChoice.png","","null"
"image-button-response","64","1064940","0.0-13.0-2.1","19","Low_HMMActual","","","","","","null","","","","Images/WhiteBeadChoiceCorrect.png","","null"
"image-button-response","65","1065730","0.0-13.0-0.2","19","Low_HMMActual","","","","","","787.3000000119209","","","","Images/NewTrialWC.png","","2"
"image-button-response","66","1066053","0.0-13.0-1.2","19","Low_HMMActual","","","","","","null","","","","Images/WhiteBeadChoice.png","","null"
"image-button-response","67","1066570","0.0-13.0-2.2","19","Low_HMMActual","","","","","","null","","","","Images/WhiteBeadChoiceCorrect.png","","null"
"image-button-response","68","1067123","0.0-13.0-0.3","19","Low_HMMActual","","","","","","550","","","","Images/NewTrialWC.png","","2"
"image-button-response","69","1067441","0.0-13.0-1.3","19","Low_HMMActual","","","","","","null","","","","Images/WhiteBeadChoice.png","","null"
"image-button-response","70","1067950","0.0-13.0-2.3","19","Low_HMMActual","","","","","","null","","","","Images/WhiteBeadChoiceCorrect.png","","null"
"image-button-response","71","1069018","0.0-13.0-0.4","19","Low_HMMActual","","","","","","1065.2999999523163","","","","Images/NewTrialWC.png","","2"
"image-button-response","72","1069331","0.0-13.0-1.4","19","Low_HMMActual","","","","","","null","","","","Images/WhiteBeadChoice.png","","null"
"image-button-response","73","1069848","0.0-13.0-2.4","19","Low_HMMActual","","","","","","null","","","","Images/WhiteBeadChoiceCorrect.png","","null"
"image-button-response","74","1070520","0.0-13.0-0.5","19","Low_HMMActual","","","","","","669.8000000119209","","","","Images/NewTrialWC.png","","2"
"image-button-response","75","1070837","0.0-13.0-1.5","19","Low_HMMActual","","","","","","null","","","","Images/WhiteBeadChoice.png","","null"
"image-button-response","76","1071342","0.0-13.0-2.5","19","Low_HMMActual","","","","","","null","","","","Images/WhiteBeadChoiceWrong.png","","null"
"image-button-response","77","1072674","0.0-13.0-0.6","19","Low_HMMActual","","","","","","1330","","","","Images/NewTrialBC.png","","1"
"image-button-response","78","1072995","0.0-13.0-1.6","19","Low_HMMActual","","","","","","null","","","","Images/BlackBeadChoice.png","","null"
"image-button-response","79","1073512","0.0-13.0-2.6","19","Low_HMMActual","","","","","","null","","","","Images/BlackBeadChoiceCorrect.png","","null"
"image-button-response","80","1074254","0.0-13.0-0.7","19","Low_HMMActual","","","","","","740.1000000238419","","","","Images/NewTrialBC.png","","0"
"image-button-response","81","1074566","0.0-13.0-1.7","19","Low_HMMActual","","","","","","null","","","","Images/BlackBeadChoice.png","","null"
"image-button-response","82","1075082","0.0-13.0-2.7","19","Low_HMMActual","","","","","","null","","","","Images/BlackBeadChoiceCorrect.png","","null"
"image-button-response","83","1075830","0.0-13.0-0.8","19","Low_HMMActual","","","","","","745.6999999880791","","","","Images/NewTrialBC.png","","0"
"image-button-response","84","1076139","0.0-13.0-1.8","19","Low_HMMActual","","","","","","null","","","","Images/BlackBeadChoice.png","","null"
"image-button-response","85","1076655","0.0-13.0-2.8","19","Low_HMMActual","","","","","","null","","","","Images/BlackBeadChoiceCorrect.png","","null"
"image-button-response","86","1077429","0.0-13.0-0.9","19","Low_HMMActual","","","","","","771.7000000476837","","","","Images/NewTrialBC.png","","0"
"image-button-response","87","1077732","0.0-13.0-1.9","19","Low_HMMActual","","","","","","null","","","","Images/BlackBeadChoice.png","","null"
"image-button-response","88","1078248","0.0-13.0-2.9","19","Low_HMMActual","","","","","","null","","","","Images/BlackBeadChoiceCorrect.png","","null"
"image-button-response","89","1079292","0.0-13.0-0.10","19","Low_HMMActual","","","","","","1041.9000000357628","","","","Images/NewTrialBC.png","","0"
"image-button-response","90","1079603","0.0-13.0-1.10","19","Low_HMMActual","","","","","","null","","","","Images/BlackBeadChoice.png","","null"
"image-button-response","91","1080109","0.0-13.0-2.10","19","Low_HMMActual","","","","","","null","","","","Images/BlackBeadChoiceWrong.png","","null"
"image-button-response","92","1081385","0.0-13.0-0.11","19","Low_HMMActual","","","","","","1273.7999999523163","","","","Images/NewTrialWC.png","","3"
"image-button-response","93","1081687","0.0-13.0-1.11","19","Low_HMMActual","","","","","","null","","","","Images/WhiteBeadChoice.png","","null"
"image-button-response","94","1082199","0.0-13.0-2.11","19","Low_HMMActual","","","","","","null","","","","Images/WhiteBeadChoiceWrong.png","","null"
"image-button-response","95","1083239","0.0-13.0-0.12","19","Low_HMMActual","","","","","","1037.699999988079","","","","Images/NewTrialBC.png","","1"
"image-button-response","96","1083542","0.0-13.0-1.12","19","Low_HMMActual","","","","","","null","","","","Images/BlackBeadChoice.png","","null"
"image-button-response","97","1084040","0.0-13.0-2.12","19","Low_HMMActual","","","","","","null","","","","Images/BlackBeadChoiceWrong.png","","null"
"image-button-response","98","1084881","0.0-13.0-0.13","19","Low_HMMActual","","","","","","838","","","","Images/NewTrialWC.png","","3"
"image-button-response","99","1085187","0.0-13.0-1.13","19","Low_HMMActual","","","","","","null","","","","Images/WhiteBeadChoice.png","","null"
"image-button-response","100","1085689","0.0-13.0-2.13","19","Low_HMMActual","","","","","","null","","","","Images/WhiteBeadChoiceCorrect.png","","null"
"image-button-response","101","1086059","0.0-13.0-0.14","19","Low_HMMActual","","","","","","367.19999998807907","","","","Images/NewTrialWC.png","","2"
"image-button-response","102","1086365","0.0-13.0-1.14","19","Low_HMMActual","","","","","","null","","","","Images/WhiteBeadChoice.png","","null"
"image-button-response","103","1086882","0.0-13.0-2.14","19","Low_HMMActual","","","","","","null","","","","Images/WhiteBeadChoiceCorrect.png","","null"
"image-button-response","104","1087318","0.0-13.0-0.15","19","Low_HMMActual","","","","","","433.39999997615814","","","","Images/NewTrialWC.png","","2"
"image-button-response","105","1087631","0.0-13.0-1.15","19","Low_HMMActual","","","","","","null","","","","Images/WhiteBeadChoice.png","","null"
"image-button-response","106","1088137","0.0-13.0-2.15","19","Low_HMMActual","","","","","","null","","","","Images/WhiteBeadChoiceCorrect.png","","null"
"image-button-response","107","1088909","0.0-13.0-0.16","19","Low_HMMActual","","","","","","769.3000000119209","","","","Images/NewTrialWC.png","","2"
"image-button-response","108","1089220","0.0-13.0-1.16","19","Low_HMMActual","","","","","","null","","","","Images/WhiteBeadChoice.png","","null"
"image-button-response","109","1089727","0.0-13.0-2.16","19","Low_HMMActual","","","","","","null","","","","Images/WhiteBeadChoiceWrong.png","","null"
"image-button-response","110","1091935","0.0-13.0-0.17","19","Low_HMMActual","","","","","","2206","","","","Images/NewTrialBC.png","","3"
"image-button-response","111","1092244","0.0-13.0-1.17","19","Low_HMMActual","","","","","","null","","","","Images/WhiteBeadChoice.png","","null"
"image-button-response","112","1092762","0.0-13.0-2.17","19","Low_HMMActual","","","","","","null","","","","Images/WhiteBeadChoiceWrong.png","","null"
"image-button-response","113","1093258","0.0-13.0-0.18","19","Low_HMMActual","","","","","","493.0999999642372","","","","Images/NewTrialBC.png","","0"
"image-button-response","114","1093574","0.0-13.0-1.18","19","Low_HMMActual","","","","","","null","","","","Images/BlackBeadChoice.png","","null"
"image-button-response","115","1094080","0.0-13.0-2.18","19","Low_HMMActual","","","","","","null","","","","Images/BlackBeadChoiceCorrect.png","","null"
"image-button-response","116","1094301","0.0-13.0-0.19","19","Low_HMMActual","","","","","","218.60000002384186","","","","Images/NewTrialBC.png","","0"
"image-button-response","117","1094612","0.0-13.0-1.19","19","Low_HMMActual","","","","","","null","","","","Images/BlackBeadChoice.png","","null"
"image-button-response","118","1095119","0.0-13.0-2.19","19","Low_HMMActual","","","","","","null","","","","Images/BlackBeadChoiceCorrect.png","","null"
"image-button-response","119","1095895","0.0-13.0-0.20","19","Low_HMMActual","","","","","","768.5999999642372","","","","Images/NewTrialBC.png","","0"
"image-button-response","120","1096206","0.0-13.0-1.20","19","Low_HMMActual","","","","","","null","","","","Images/BlackBeadChoice.png","","null"
"image-button-response","121","1096709","0.0-13.0-2.20","19","Low_HMMActual","","","","","","null","","","","Images/BlackBeadChoiceCorrect.png","","null"
"image-button-response","122","1097391","0.0-13.0-0.21","19","Low_HMMActual","","","","","","678.5999999642372","","","","Images/NewTrialBC.png","","0"
"image-button-response","123","1097699","0.0-13.0-1.21","19","Low_HMMActual","","","","","","null","","","","Images/BlackBeadChoice.png","","null"
"image-button-response","124","1098205","0.0-13.0-2.21","19","Low_HMMActual","","","","","","null","","","","Images/BlackBeadChoiceWrong.png","","null"
"image-button-response","125","1098797","0.0-13.0-0.22","19","Low_HMMActual","","","","","","590.5","","","","Images/NewTrialWC.png","","1"
"image-button-response","126","1099113","0.0-13.0-1.22","19","Low_HMMActual","","","","","","null","","","","Images/BlackBeadChoice.png","","null"
"image-button-response","127","1099628","0.0-13.0-2.22","19","Low_HMMActual","","","","","","null","","","","Images/BlackBeadChoiceCorrect.png","","null"
"image-button-response","128","1100297","0.0-13.0-0.23","19","Low_HMMActual","","","","","","666.5999999642372","","","","Images/NewTrialBC.png","","0"
"image-button-response","129","1100604","0.0-13.0-1.23","19","Low_HMMActual","","","","","","null","","","","Images/BlackBeadChoice.png","","null"
"image-button-response","130","1101106","0.0-13.0-2.23","19","Low_HMMActual","","","","","","null","","","","Images/BlackBeadChoiceWrong.png","","null"
"image-button-response","131","1103005","0.0-13.0-0.24","19","Low_HMMActual","","","","","","1896.199999988079","","","","Images/NewTrialWC.png","","1"
"image-button-response","132","1103318","0.0-13.0-1.24","19","Low_HMMActual","","","","","","null","","","","Images/BlackBeadChoice.png","","null"
"image-button-response","133","1103821","0.0-13.0-2.24","19","Low_HMMActual","","","","","","null","","","","Images/BlackBeadChoiceCorrect.png","","null"
"image-button-response","134","1104925","0.0-13.0-0.25","19","Low_HMMActual","","","","","","1100.9000000357628","","","","Images/NewTrialBC.png","","1"
"image-button-response","135","1105242","0.0-13.0-1.25","19","Low_HMMActual","","","","","","null","","","","Images/BlackBeadChoice.png","","null"
"image-button-response","136","1105746","0.0-13.0-2.25","19","Low_HMMActual","","","","","","null","","","","Images/BlackBeadChoiceWrong.png","","null"
"image-button-response","137","1107091","0.0-13.0-0.26","19","Low_HMMActual","","","","","","1343.0999999642372","","","","Images/NewTrialWC.png","","3"
"image-button-response","138","1107404","0.0-13.0-1.26","19","Low_HMMActual","","","","","","null","","","","Images/WhiteBeadChoice.png","","null"
"image-button-response","139","1107907","0.0-13.0-2.26","19","Low_HMMActual","","","","","","null","","","","Images/WhiteBeadChoiceWrong.png","","null"
"image-button-response","140","1110861","0.0-13.0-0.27","19","Low_HMMActual","","","","","","2951.2999999523163","","","","Images/NewTrialBC.png","","1"
"image-button-response","141","1111163","0.0-13.0-1.27","19","Low_HMMActual","","","","","","null","","","","Images/BlackBeadChoice.png","","null"
"image-button-response","142","1111672","0.0-13.0-2.27","19","Low_HMMActual","","","","","","null","","","","Images/BlackBeadChoiceCorrect.png","","null"
"image-button-response","143","1112011","0.0-13.0-0.28","19","Low_HMMActual","","","","","","335.9000000357628","","","","Images/NewTrialBC.png","","0"
"image-button-response","144","1112322","0.0-13.0-1.28","19","Low_HMMActual","","","","","","null","","","","Images/BlackBeadChoice.png","","null"
"image-button-response","145","1112828","0.0-13.0-2.28","19","Low_HMMActual","","","","","","null","","","","Images/BlackBeadChoiceWrong.png","","null"
"image-button-response","146","1114098","0.0-13.0-0.29","19","Low_HMMActual","","","","","","1267.2000000476837","","","","Images/NewTrialWC.png","","1"
"image-button-response","147","1114402","0.0-13.0-1.29","19","Low_HMMActual","","","","","","null","","","","Images/BlackBeadChoice.png","","null"
"image-button-response","148","1114905","0.0-13.0-2.29","19","Low_HMMActual","","","","","","null","","","","Images/BlackBeadChoiceCorrect.png","","null"
"image-button-response","149","1116241","0.0-13.0-0.30","19","Low_HMMActual","","","","","","1333.300000011921","","","","Images/NewTrialBC.png","","0"
"image-button-response","150","1116558","0.0-13.0-1.30","19","Low_HMMActual","","","","","","null","","","","Images/BlackBeadChoice.png","","null"
"image-button-response","151","1117063","0.0-13.0-2.30","19","Low_HMMActual","","","","","","null","","","","Images/BlackBeadChoiceWrong.png","","null"
"image-button-response","152","1117584","0.0-13.0-0.31","19","Low_HMMActual","","","","","","518.3000000119209","","","","Images/NewTrialWC.png","","1"
"image-button-response","153","1117888","0.0-13.0-1.31","19","Low_HMMActual","","","","","","null","","","","Images/BlackBeadChoice.png","","null"
"image-button-response","154","1118403","0.0-13.0-2.31","19","Low_HMMActual","","","","","","null","","","","Images/BlackBeadChoiceWrong.png","","null"
"image-button-response","155","1118529","0.0-13.0-0.32","19","Low_HMMActual","","","","","","122.89999997615814","","","","Images/NewTrialWC.png","","2"
"image-button-response","156","1118835","0.0-13.0-1.32","19","Low_HMMActual","","","","","","null","","","","Images/WhiteBeadChoice.png","","null"
"image-button-response","157","1119352","0.0-13.0-2.32","19","Low_HMMActual","","","","","","null","","","","Images/WhiteBeadChoiceCorrect.png","","null"
"image-button-response","158","1120092","0.0-13.0-0.33","19","Low_HMMActual","","","","","","736.7999999523163","","","","Images/NewTrialWC.png","","2"
"image-button-response","159","1120408","0.0-13.0-1.33","19","Low_HMMActual","","","","","","null","","","","Images/WhiteBeadChoice.png","","null"
"image-button-response","160","1120925","0.0-13.0-2.33","19","Low_HMMActual","","","","","","null","","","","Images/WhiteBeadChoiceCorrect.png","","null"
"image-button-response","161","1121586","0.0-13.0-0.34","19","Low_HMMActual","","","","","","658.0999999642372","","","","Images/NewTrialWC.png","","2"
"image-button-response","162","1121896","0.0-13.0-1.34","19","Low_HMMActual","","","","","","null","","","","Images/WhiteBeadChoice.png","","null"
"image-button-response","163","1122409","0.0-13.0-2.34","19","Low_HMMActual","","","","","","null","","","","Images/WhiteBeadChoiceWrong.png","","null"
"image-button-response","164","1123283","0.0-13.0-0.35","19","Low_HMMActual","","","","","","871.5","","","","Images/NewTrialBC.png","","3"
"image-button-response","165","1123587","0.0-13.0-1.35","19","Low_HMMActual","","","","","","null","","","","Images/WhiteBeadChoice.png","","null"
"image-button-response","166","1124096","0.0-13.0-2.35","19","Low_HMMActual","","","","","","null","","","","Images/WhiteBeadChoiceCorrect.png","","null"
"image-button-response","167","1124338","0.0-13.0-0.36","19","Low_HMMActual","","","","","","239","","","","Images/NewTrialWC.png","","2"
"image-button-response","168","1124653","0.0-13.0-1.36","19","Low_HMMActual","","","","","","null","","","","Images/WhiteBeadChoice.png","","null"
"image-button-response","169","1125170","0.0-13.0-2.36","19","Low_HMMActual","","","","","","null","","","","Images/WhiteBeadChoiceWrong.png","","null"
"image-button-response","170","1125652","0.0-13.0-0.37","19","Low_HMMActual","","","","","","479.39999997615814","","","","Images/NewTrialBC.png","","3"
"image-button-response","171","1125954","0.0-13.0-1.37","19","Low_HMMActual","","","","","","null","","","","Images/WhiteBeadChoice.png","","null"
"image-button-response","172","1126457","0.0-13.0-2.37","19","Low_HMMActual","","","","","","null","","","","Images/WhiteBeadChoiceWrong.png","","null"
"image-button-response","173","1127997","0.0-13.0-0.38","19","Low_HMMActual","","","","","","1537.4000000357628","","","","Images/NewTrialBC.png","","0"
"image-button-response","174","1128303","0.0-13.0-1.38","19","Low_HMMActual","","","","","","null","","","","Images/BlackBeadChoice.png","","null"
"image-button-response","175","1128810","0.0-13.0-2.38","19","Low_HMMActual","","","","","","null","","","","Images/BlackBeadChoiceCorrect.png","","null"
"image-button-response","176","1129254","0.0-13.0-0.39","19","Low_HMMActual","","","","","","441.0999999642372","","","","Images/NewTrialBC.png","","0"
"image-button-response","177","1129559","0.0-13.0-1.39","19","Low_HMMActual","","","","","","null","","","","Images/BlackBeadChoice.png","","null"
"image-button-response","178","1130066","0.0-13.0-2.39","19","Low_HMMActual","","","","","","null","","","","Images/BlackBeadChoiceWrong.png","","null"
"image-button-response","179","1130962","0.0-13.0-0.40","19","Low_HMMActual","","","","","","894.5","","","","Images/NewTrialWC.png","","1"
"image-button-response","180","1131280","0.0-13.0-1.40","19","Low_HMMActual","","","","","","null","","","","Images/BlackBeadChoice.png","","null"
"image-button-response","181","1131787","0.0-13.0-2.40","19","Low_HMMActual","","","","","","null","","","","Images/BlackBeadChoiceWrong.png","","null"
"image-button-response","182","1132464","0.0-13.0-0.41","19","Low_HMMActual","","","","","","673.5999999642372","","","","Images/NewTrialWC.png","","2"
"image-button-response","183","1132776","0.0-13.0-1.41","19","Low_HMMActual","","","","","","null","","","","Images/WhiteBeadChoice.png","","null"
"image-button-response","184","1133280","0.0-13.0-2.41","19","Low_HMMActual","","","","","","null","","","","Images/WhiteBeadChoiceCorrect.png","","null"
"image-button-response","185","1133808","0.0-13.0-0.42","19","Low_HMMActual","","","","","","524.9000000357628","","","","Images/NewTrialWC.png","","2"
"image-button-response","186","1134121","0.0-13.0-1.42","19","Low_HMMActual","","","","","","null","","","","Images/WhiteBeadChoice.png","","null"
"image-button-response","187","1134637","0.0-13.0-2.42","19","Low_HMMActual","","","","","","null","","","","Images/WhiteBeadChoiceWrong.png","","null"
"image-button-response","188","1135344","0.0-13.0-0.43","19","Low_HMMActual","","","","","","704.9000000357628","","","","Images/NewTrialBC.png","","3"
"image-button-response","189","1135646","0.0-13.0-1.43","19","Low_HMMActual","","","","","","null","","","","Images/WhiteBeadChoice.png","","null"
"image-button-response","190","1136148","0.0-13.0-2.43","19","Low_HMMActual","","","","","","null","","","","Images/WhiteBeadChoiceCorrect.png","","null"
"image-button-response","191","1136581","0.0-13.0-0.44","19","Low_HMMActual","","","","","","430.5","","","","Images/NewTrialWC.png","","2"
"image-button-response","192","1136893","0.0-13.0-1.44","19","Low_HMMActual","","","","","","null","","","","Images/WhiteBeadChoice.png","","null"
"image-button-response","193","1137403","0.0-13.0-2.44","19","Low_HMMActual","","","","","","null","","","","Images/WhiteBeadChoiceWrong.png","","null"
"image-button-response","194","1138316","0.0-13.0-0.45","19","Low_HMMActual","","","","","","910.1999999880791","","","","Images/NewTrialBC.png","","3"
"image-button-response","195","1138621","0.0-13.0-1.45","19","Low_HMMActual","","","","","","null","","","","Images/WhiteBeadChoice.png","","null"
"image-button-response","196","1139128","0.0-13.0-2.45","19","Low_HMMActual","","","","","","null","","","","Images/WhiteBeadChoiceWrong.png","","null"
"image-button-response","197","1140578","0.0-13.0-0.46","19","Low_HMMActual","","","","","","1447.300000011921","","","","Images/NewTrialBC.png","","0"
"image-button-response","198","1140885","0.0-13.0-1.46","19","Low_HMMActual","","","","","","null","","","","Images/BlackBeadChoice.png","","null"
"image-button-response","199","1141391","0.0-13.0-2.46","19","Low_HMMActual","","","","","","null","","","","Images/BlackBeadChoiceWrong.png","","null"
"image-button-response","200","1142056","0.0-13.0-0.47","19","Low_HMMActual","","","","","","662.6000000238419","","","","Images/NewTrialWC.png","","1"
"image-button-response","201","1142371","0.0-13.0-1.47","19","Low_HMMActual","","","","","","null","","","","Images/BlackBeadChoice.png","","null"
"image-button-response","202","1142886","0.0-13.0-2.47","19","Low_HMMActual","","","","","","null","","","","Images/BlackBeadChoiceWrong.png","","null"
"image-button-response","203","1143547","0.0-13.0-0.48","19","Low_HMMActual","","","","","","658.1999999880791","","","","Images/NewTrialWC.png","","2"
"image-button-response","204","1143853","0.0-13.0-1.48","19","Low_HMMActual","","","","","","null","","","","Images/WhiteBeadChoice.png","","null"
"image-button-response","205","1144372","0.0-13.0-2.48","19","Low_HMMActual","","","","","","null","","","","Images/WhiteBeadChoiceCorrect.png","","null"
"image-button-response","206","1144750","0.0-13.0-0.49","19","Low_HMMActual","","","","","","370.10000002384186","","","","Images/NewTrialWC.png","","2"
"image-button-response","207","1145061","0.0-13.0-1.49","19","Low_HMMActual","","","","","","null","","","","Images/WhiteBeadChoice.png","","null"
"image-button-response","208","1145565","0.0-13.0-2.49","19","Low_HMMActual","","","","","","null","","","","Images/WhiteBeadChoiceCorrect.png","","null"
"image-button-response","209","1146059","0.0-13.0-0.50","19","Low_HMMActual","","","","","","490.69999998807907","","","","Images/NewTrialWC.png","","2"
"image-button-response","210","1146367","0.0-13.0-1.50","19","Low_HMMActual","","","","","","null","","","","Images/WhiteBeadChoice.png","","null"
"image-button-response","211","1146873","0.0-13.0-2.50","19","Low_HMMActual","","","","","","null","","","","Images/WhiteBeadChoiceWrong.png","","null"
"image-button-response","212","1147769","0.0-13.0-0.51","19","Low_HMMActual","","","","","","894.5","","","","Images/NewTrialBC.png","","3"
"image-button-response","213","1148074","0.0-13.0-1.51","19","Low_HMMActual","","","","","","null","","","","Images/WhiteBeadChoice.png","","null"
"image-button-response","214","1148578","0.0-13.0-2.51","19","Low_HMMActual","","","","","","null","","","","Images/WhiteBeadChoiceWrong.png","","null"
"image-button-response","215","1149130","0.0-13.0-0.52","19","Low_HMMActual","","","","","","549.0999999642372","","","","Images/NewTrialBC.png","","0"
"image-button-response","216","1149440","0.0-13.0-1.52","19","Low_HMMActual","","","","","","null","","","","Images/BlackBeadChoice.png","","null"
"image-button-response","217","1149944","0.0-13.0-2.52","19","Low_HMMActual","","","","","","null","","","","Images/BlackBeadChoiceCorrect.png","","null"
"image-button-response","218","1150633","0.0-13.0-0.53","19","Low_HMMActual","","","","","","685.6000000238419","","","","Images/NewTrialBC.png","","0"
"image-button-response","219","1150940","0.0-13.0-1.53","19","Low_HMMActual","","","","","","null","","","","Images/BlackBeadChoice.png","","null"
"image-button-response","220","1151446","0.0-13.0-2.53","19","Low_HMMActual","","","","","","null","","","","Images/BlackBeadChoiceWrong.png","","null"
"image-button-response","221","1152485","0.0-13.0-0.54","19","Low_HMMActual","","","","","","1036.9000000357628","","","","Images/NewTrialWC.png","","1"
"image-button-response","222","1152806","0.0-13.0-1.54","19","Low_HMMActual","","","","","","null","","","","Images/BlackBeadChoice.png","","null"
"image-button-response","223","1153323","0.0-13.0-2.54","19","Low_HMMActual","","","","","","null","","","","Images/BlackBeadChoiceCorrect.png","","null"
"image-button-response","224","1153943","0.0-13.0-0.55","19","Low_HMMActual","","","","","","618.3000000119209","","","","Images/NewTrialBC.png","","0"
"image-button-response","225","1154255","0.0-13.0-1.55","19","Low_HMMActual","","","","","","null","","","","Images/BlackBeadChoice.png","","null"
"image-button-response","226","1154771","0.0-13.0-2.55","19","Low_HMMActual","","","","","","null","","","","Images/BlackBeadChoiceCorrect.png","","null"
"image-button-response","227","1155417","0.0-13.0-0.56","19","Low_HMMActual","","","","","","643.3000000119209","","","","Images/NewTrialBC.png","","0"
"image-button-response","228","1155741","0.0-13.0-1.56","19","Low_HMMActual","","","","","","null","","","","Images/BlackBeadChoice.png","","null"
"image-button-response","229","1156257","0.0-13.0-2.56","19","Low_HMMActual","","","","","","null","","","","Images/BlackBeadChoiceCorrect.png","","null"
"image-button-response","230","1156758","0.0-13.0-0.57","19","Low_HMMActual","","","","","","498.5","","","","Images/NewTrialBC.png","","0"
"image-button-response","231","1157065","0.0-13.0-1.57","19","Low_HMMActual","","","","","","null","","","","Images/BlackBeadChoice.png","","null"
"image-button-response","232","1157574","0.0-13.0-2.57","19","Low_HMMActual","","","","","","null","","","","Images/BlackBeadChoiceCorrect.png","","null"
"image-button-response","233","1158038","0.0-13.0-0.58","19","Low_HMMActual","","","","","","461.30000001192093","","","","Images/NewTrialBC.png","","0"
"image-button-response","234","1158343","0.0-13.0-1.58","19","Low_HMMActual","","","","","","null","","","","Images/BlackBeadChoice.png","","null"
"image-button-response","235","1158858","0.0-13.0-2.58","19","Low_HMMActual","","","","","","null","","","","Images/BlackBeadChoiceCorrect.png","","null"
"image-button-response","236","1159316","0.0-13.0-0.59","19","Low_HMMActual","","","","","","454.80000001192093","","","","Images/NewTrialBC.png","","0"
"image-button-response","237","1159629","0.0-13.0-1.59","19","Low_HMMActual","","","","","","null","","","","Images/BlackBeadChoice.png","","null"
"image-button-response","238","1160133","0.0-13.0-2.59","19","Low_HMMActual","","","","","","null","","","","Images/BlackBeadChoiceWrong.png","","null"
"image-button-response","239","1160588","0.0-13.0-0.60","19","Low_HMMActual","","","","","","453","","","","Images/NewTrialWC.png","","1"
"image-button-response","240","1160899","0.0-13.0-1.60","19","Low_HMMActual","","","","","","null","","","","Images/BlackBeadChoice.png","","null"
"image-button-response","241","1161408","0.0-13.0-2.60","19","Low_HMMActual","","","","","","null","","","","Images/BlackBeadChoiceWrong.png","","null"
"image-button-response","242","1161950","0.0-13.0-0.61","19","Low_HMMActual","","","","","","539.5","","","","Images/NewTrialWC.png","","2"
"image-button-response","243","1162256","0.0-13.0-1.61","19","Low_HMMActual","","","","","","null","","","","Images/WhiteBeadChoice.png","","null"
"image-button-response","244","1162764","0.0-13.0-2.61","19","Low_HMMActual","","","","","","null","","","","Images/WhiteBeadChoiceCorrect.png","","null"
"image-button-response","245","1163034","0.0-13.0-0.62","19","Low_HMMActual","","","","","","266.69999998807907","","","","Images/NewTrialWC.png","","2"
"image-button-response","246","1163339","0.0-13.0-1.62","19","Low_HMMActual","","","","","","null","","","","Images/WhiteBeadChoice.png","","null"
"image-button-response","247","1163848","0.0-13.0-2.62","19","Low_HMMActual","","","","","","null","","","","Images/WhiteBeadChoiceWrong.png","","null"
"image-button-response","248","1164354","0.0-13.0-0.63","19","Low_HMMActual","","","","","","498.19999998807907","","","","Images/NewTrialBC.png","","3"
"image-button-response","249","1164664","0.0-13.0-1.63","19","Low_HMMActual","","","","","","null","","","","Images/WhiteBeadChoice.png","","null"
"image-button-response","250","1165167","0.0-13.0-2.63","19","Low_HMMActual","","","","","","null","","","","Images/WhiteBeadChoiceWrong.png","","null"
"image-button-response","251","1165646","0.0-13.0-0.64","19","Low_HMMActual","","","","","","476.10000002384186","","","","Images/NewTrialBC.png","","0"
"image-button-response","252","1165957","0.0-13.0-1.64","19","Low_HMMActual","","","","","","null","","","","Images/BlackBeadChoice.png","","null"
"image-button-response","253","1166459","0.0-13.0-2.64","19","Low_HMMActual","","","","","","null","","","","Images/BlackBeadChoiceWrong.png","","null"
"image-button-response","254","1167156","0.0-13.0-0.65","19","Low_HMMActual","","","","","","694.3999999761581","","","","Images/NewTrialWC.png","","3"
"image-button-response","255","1167463","0.0-13.0-1.65","19","Low_HMMActual","","","","","","null","","","","Images/WhiteBeadChoice.png","","null"
"image-button-response","256","1167966","0.0-13.0-2.65","19","Low_HMMActual","","","","","","null","","","","Images/WhiteBeadChoiceWrong.png","","null"
"image-button-response","257","1169066","0.0-13.0-0.66","19","Low_HMMActual","","","","","","1091.8999999761581","","","","Images/NewTrialBC.png","","1"
"image-button-response","258","1169383","0.0-13.0-1.66","19","Low_HMMActual","","","","","","null","","","","Images/BlackBeadChoice.png","","null"
"image-button-response","259","1169887","0.0-13.0-2.66","19","Low_HMMActual","","","","","","null","","","","Images/BlackBeadChoiceCorrect.png","","null"
"image-button-response","260","1170075","0.0-13.0-0.67","19","Low_HMMActual","","","","","","185.4000000357628","","","","Images/NewTrialBC.png","","0"
"image-button-response","261","1170389","0.0-13.0-1.67","19","Low_HMMActual","","","","","","null","","","","Images/BlackBeadChoice.png","","null"
"image-button-response","262","1170906","0.0-13.0-2.67","19","Low_HMMActual","","","","","","null","","","","Images/BlackBeadChoiceCorrect.png","","null"
"image-button-response","263","1171420","0.0-13.0-0.68","19","Low_HMMActual","","","","","","510.7000000476837","","","","Images/NewTrialBC.png","","0"
"image-button-response","264","1171723","0.0-13.0-1.68","19","Low_HMMActual","","","","","","null","","","","Images/BlackBeadChoice.png","","null"
"image-button-response","265","1172240","0.0-13.0-2.68","19","Low_HMMActual","","","","","","null","","","","Images/BlackBeadChoiceWrong.png","","null"
"image-button-response","266","1172662","0.0-13.0-0.69","19","Low_HMMActual","","","","","","419","","","","Images/NewTrialWC.png","","1"
"image-button-response","267","1172973","0.0-13.0-1.69","19","Low_HMMActual","","","","","","null","","","","Images/BlackBeadChoice.png","","null"
"image-button-response","268","1173479","0.0-13.0-2.69","19","Low_HMMActual","","","","","","null","","","","Images/BlackBeadChoiceCorrect.png","","null"
"image-button-response","269","1173811","0.0-13.0-0.70","19","Low_HMMActual","","","","","","328.69999998807907","","","","Images/NewTrialBC.png","","0"
"image-button-response","270","1174120","0.0-13.0-1.70","19","Low_HMMActual","","","","","","null","","","","Images/BlackBeadChoice.png","","null"
"image-button-response","271","1174636","0.0-13.0-2.70","19","Low_HMMActual","","","","","","null","","","","Images/BlackBeadChoiceWrong.png","","null"
"image-button-response","272","1174924","0.0-13.0-0.71","19","Low_HMMActual","","","","","","285.10000002384186","","","","Images/NewTrialWC.png","","1"
"image-button-response","273","1175239","0.0-13.0-1.71","19","Low_HMMActual","","","","","","null","","","","Images/BlackBeadChoice.png","","null"
"image-button-response","274","1175743","0.0-13.0-2.71","19","Low_HMMActual","","","","","","null","","","","Images/BlackBeadChoiceCorrect.png","","null"
"image-button-response","275","1176235","0.0-13.0-0.72","19","Low_HMMActual","","","","","","489.80000001192093","","","","Images/NewTrialBC.png","","0"
"image-button-response","276","1176541","0.0-13.0-1.72","19","Low_HMMActual","","","","","","null","","","","Images/BlackBeadChoice.png","","null"
"image-button-response","277","1177058","0.0-13.0-2.72","19","Low_HMMActual","","","","","","null","","","","Images/BlackBeadChoiceCorrect.png","","null"
"image-button-response","278","1177431","0.0-13.0-0.73","19","Low_HMMActual","","","","","","370.19999998807907","","","","Images/NewTrialBC.png","","0"
"image-button-response","279","1177745","0.0-13.0-1.73","19","Low_HMMActual","","","","","","null","","","","Images/BlackBeadChoice.png","","null"
"image-button-response","280","1178261","0.0-13.0-2.73","19","Low_HMMActual","","","","","","null","","","","Images/BlackBeadChoiceCorrect.png","","null"
"image-button-response","281","1178704","0.0-13.0-0.74","19","Low_HMMActual","","","","","","437.5","","","","Images/NewTrialBC.png","","0"
"image-button-response","282","1179010","0.0-13.0-1.74","19","Low_HMMActual","","","","","","null","","","","Images/BlackBeadChoice.png","","null"
"image-button-response","283","1179522","0.0-13.0-2.74","19","Low_HMMActual","","","","","","null","","","","Images/BlackBeadChoiceCorrect.png","","null"
"image-button-response","284","1179893","0.0-13.0-0.75","19","Low_HMMActual","","","","","","367.9000000357628","","","","Images/NewTrialBC.png","","0"
"image-button-response","285","1180197","0.0-13.0-1.75","19","Low_HMMActual","","","","","","null","","","","Images/BlackBeadChoice.png","","null"
"image-button-response","286","1180713","0.0-13.0-2.75","19","Low_HMMActual","","","","","","null","","","","Images/BlackBeadChoiceCorrect.png","","null"
"image-button-response","287","1181231","0.0-13.0-0.76","19","Low_HMMActual","","","","","","514.6999999880791","","","","Images/NewTrialBC.png","","0"
"image-button-response","288","1181534","0.0-13.0-1.76","19","Low_HMMActual","","","","","","null","","","","Images/BlackBeadChoice.png","","null"
"image-button-response","289","1182051","0.0-13.0-2.76","19","Low_HMMActual","","","","","","null","","","","Images/BlackBeadChoiceCorrect.png","","null"
"image-button-response","290","1182465","0.0-13.0-0.77","19","Low_HMMActual","","","","","","411.4000000357628","","","","Images/NewTrialBC.png","","0"
"image-button-response","291","1182780","0.0-13.0-1.77","19","Low_HMMActual","","","","","","null","","","","Images/BlackBeadChoice.png","","null"
"image-button-response","292","1183282","0.0-13.0-2.77","19","Low_HMMActual","","","","","","null","","","","Images/BlackBeadChoiceWrong.png","","null"
"image-button-response","293","1183978","0.0-13.0-0.78","19","Low_HMMActual","","","","","","691.5","","","","Images/NewTrialWC.png","","1"
"image-button-response","294","1184290","0.0-13.0-1.78","19","Low_HMMActual","","","","","","null","","","","Images/BlackBeadChoice.png","","null"
"image-button-response","295","1184797","0.0-13.0-2.78","19","Low_HMMActual","","","","","","null","","","","Images/BlackBeadChoiceCorrect.png","","null"
"image-button-response","296","1185081","0.0-13.0-0.79","19","Low_HMMActual","","","","","","281.5999999642372","","","","Images/NewTrialBC.png","","0"
"image-button-response","297","1185406","0.0-13.0-1.79","19","Low_HMMActual","","","","","","null","","","","Images/BlackBeadChoice.png","","null"
"image-button-response","298","1185913","0.0-13.0-2.79","19","Low_HMMActual","","","","","","null","","","","Images/BlackBeadChoiceCorrect.png","","null"
"image-button-response","299","1186228","0.0-13.0-0.80","19","Low_HMMActual","","","","","","312.4000000357628","","","","Images/NewTrialBC.png","","0"
"image-button-response","300","1186539","0.0-13.0-1.80","19","Low_HMMActual","","","","","","null","","","","Images/BlackBeadChoice.png","","null"
"image-button-response","301","1187043","0.0-13.0-2.80","19","Low_HMMActual","","","","","","null","","","","Images/BlackBeadChoiceWrong.png","","null"
"image-button-response","302","1187584","0.0-13.0-0.81","19","Low_HMMActual","","","","","","538.3000000119209","","","","Images/NewTrialWC.png","","1"
"image-button-response","303","1187892","0.0-13.0-1.81","19","Low_HMMActual","","","","","","null","","","","Images/BlackBeadChoice.png","","null"
"image-button-response","304","1188395","0.0-13.0-2.81","19","Low_HMMActual","","","","","","null","","","","Images/BlackBeadChoiceWrong.png","","null"
"image-button-response","305","1188606","0.0-13.0-0.82","19","Low_HMMActual","","","","","","208.5","","","","Images/NewTrialWC.png","","2"
"image-button-response","306","1188918","0.0-13.0-1.82","19","Low_HMMActual","","","","","","null","","","","Images/WhiteBeadChoice.png","","null"
"image-button-response","307","1189431","0.0-13.0-2.82","19","Low_HMMActual","","","","","","null","","","","Images/WhiteBeadChoiceWrong.png","","null"
"image-button-response","308","1189795","0.0-13.0-0.83","19","Low_HMMActual","","","","","","360.5","","","","Images/NewTrialBC.png","","3"
"image-button-response","309","1190105","0.0-13.0-1.83","19","Low_HMMActual","","","","","","null","","","","Images/WhiteBeadChoice.png","","null"
"image-button-response","310","1190613","0.0-13.0-2.83","19","Low_HMMActual","","","","","","null","","","","Images/WhiteBeadChoiceWrong.png","","null"
"image-button-response","311","1190808","0.0-13.0-0.84","19","Low_HMMActual","","","","","","192.30000001192093","","","","Images/NewTrialBC.png","","0"
"image-button-response","312","1191113","0.0-13.0-1.84","19","Low_HMMActual","","","","","","null","","","","Images/BlackBeadChoice.png","","null"
"image-button-response","313","1191624","0.0-13.0-2.84","19","Low_HMMActual","","","","","","null","","","","Images/BlackBeadChoiceCorrect.png","","null"
"image-button-response","314","1191945","0.0-13.0-0.85","19","Low_HMMActual","","","","","","317.5","","","","Images/NewTrialBC.png","","0"
"image-button-response","315","1192258","0.0-13.0-1.85","19","Low_HMMActual","","","","","","null","","","","Images/BlackBeadChoice.png","","null"
"image-button-response","316","1192770","0.0-13.0-2.85","19","Low_HMMActual","","","","","","null","","","","Images/BlackBeadChoiceCorrect.png","","null"
"image-button-response","317","1193106","0.0-13.0-0.86","19","Low_HMMActual","","","","","","332.19999998807907","","","","Images/NewTrialBC.png","","0"
"image-button-response","318","1193409","0.0-13.0-1.86","19","Low_HMMActual","","","","","","null","","","","Images/BlackBeadChoice.png","","null"
"image-button-response","319","1193925","0.0-13.0-2.86","19","Low_HMMActual","","","","","","null","","","","Images/BlackBeadChoiceWrong.png","","null"
"image-button-response","320","1194946","0.0-13.0-0.87","19","Low_HMMActual","","","","","","1018.6000000238419","","","","Images/NewTrialWC.png","","1"
"image-button-response","321","1195261","0.0-13.0-1.87","19","Low_HMMActual","","","","","","null","","","","Images/BlackBeadChoice.png","","null"
"image-button-response","322","1195766","0.0-13.0-2.87","19","Low_HMMActual","","","","","","null","","","","Images/BlackBeadChoiceWrong.png","","null"
"image-button-response","323","1197634","0.0-13.0-0.88","19","Low_HMMActual","","","","","","1864.5","","","","Images/NewTrialWC.png","","3"
"image-button-response","324","1197949","0.0-13.0-1.88","19","Low_HMMActual","","","","","","null","","","","Images/WhiteBeadChoice.png","","null"
"image-button-response","325","1198463","0.0-13.0-2.88","19","Low_HMMActual","","","","","","null","","","","Images/WhiteBeadChoiceCorrect.png","","null"
"image-button-response","326","1198647","0.0-13.0-0.89","19","Low_HMMActual","","","","","","180.80000001192093","","","","Images/NewTrialWC.png","","2"
"image-button-response","327","1198959","0.0-13.0-1.89","19","Low_HMMActual","","","","","","null","","","","Images/WhiteBeadChoice.png","","null"
"image-button-response","328","1199465","0.0-13.0-2.89","19","Low_HMMActual","","","","","","null","","","","Images/WhiteBeadChoiceWrong.png","","null"
"image-button-response","329","1200074","0.0-13.0-0.90","19","Low_HMMActual","","","","","","607.3000000119209","","","","Images/NewTrialBC.png","","1"
"image-button-response","330","1200377","0.0-13.0-1.90","19","Low_HMMActual","","","","","","null","","","","Images/BlackBeadChoice.png","","null"
"image-button-response","331","1200881","0.0-13.0-2.90","19","Low_HMMActual","","","","","","null","","","","Images/BlackBeadChoiceCorrect.png","","null"
"image-button-response","332","1201955","0.0-13.0-0.91","19","Low_HMMActual","","","","","","1071.4000000357628","","","","Images/NewTrialBC.png","","0"
"image-button-response","333","1202270","0.0-13.0-1.91","19","Low_HMMActual","","","","","","null","","","","Images/BlackBeadChoice.png","","null"
"image-button-response","334","1202786","0.0-13.0-2.91","19","Low_HMMActual","","","","","","null","","","","Images/BlackBeadChoiceCorrect.png","","null"
"image-button-response","335","1203258","0.0-13.0-0.92","19","Low_HMMActual","","","","","","469","","","","Images/NewTrialBC.png","","0"
"image-button-response","336","1203560","0.0-13.0-1.92","19","Low_HMMActual","","","","","","null","","","","Images/BlackBeadChoice.png","","null"
"image-button-response","337","1204062","0.0-13.0-2.92","19","Low_HMMActual","","","","","","null","","","","Images/BlackBeadChoiceWrong.png","","null"
"image-button-response","338","1204945","0.0-13.0-0.93","19","Low_HMMActual","","","","","","875.3000000119209","","","","Images/NewTrialWC.png","","1"
"image-button-response","339","1205249","0.0-13.0-1.93","19","Low_HMMActual","","","","","","null","","","","Images/BlackBeadChoice.png","","null"
"image-button-response","340","1205755","0.0-13.0-2.93","19","Low_HMMActual","","","","","","null","","","","Images/BlackBeadChoiceWrong.png","","null"
"image-button-response","341","1206626","0.0-13.0-0.94","19","Low_HMMActual","","","","","","867.5","","","","Images/NewTrialWC.png","","3"
"image-button-response","342","1206939","0.0-13.0-1.94","19","Low_HMMActual","","","","","","null","","","","Images/WhiteBeadChoice.png","","null"
"image-button-response","343","1207442","0.0-13.0-2.94","19","Low_HMMActual","","","","","","null","","","","Images/WhiteBeadChoiceWrong.png","","null"
"image-button-response","344","1208764","0.0-13.0-0.95","19","Low_HMMActual","","","","","","1319","","","","Images/NewTrialBC.png","","3"
"image-button-response","345","1209074","0.0-13.0-1.95","19","Low_HMMActual","","","","","","null","","","","Images/WhiteBeadChoice.png","","null"
"image-button-response","346","1209589","0.0-13.0-2.95","19","Low_HMMActual","","","","","","null","","","","Images/WhiteBeadChoiceWrong.png","","null"
"image-button-response","347","1209893","0.0-13.0-0.96","19","Low_HMMActual","","","","","","300.69999998807907","","","","Images/NewTrialBC.png","","0"
"image-button-response","348","1210219","0.0-13.0-1.96","19","Low_HMMActual","","","","","","null","","","","Images/BlackBeadChoice.png","","null"
"image-button-response","349","1210731","0.0-13.0-2.96","19","Low_HMMActual","","","","","","null","","","","Images/BlackBeadChoiceCorrect.png","","null"
"image-button-response","350","1210949","0.0-13.0-0.97","19","Low_HMMActual","","","","","","214.9000000357628","","","","Images/NewTrialBC.png","","0"
"image-button-response","351","1211264","0.0-13.0-1.97","19","Low_HMMActual","","","","","","null","","","","Images/BlackBeadChoice.png","","null"
"image-button-response","352","1211773","0.0-13.0-2.97","19","Low_HMMActual","","","","","","null","","","","Images/BlackBeadChoiceCorrect.png","","null"
"image-button-response","353","1212043","0.0-13.0-0.98","19","Low_HMMActual","","","","","","266.69999998807907","","","","Images/NewTrialBC.png","","0"
"image-button-response","354","1212354","0.0-13.0-1.98","19","Low_HMMActual","","","","","","null","","","","Images/BlackBeadChoice.png","","null"
"image-button-response","355","1212877","0.0-13.0-2.98","19","Low_HMMActual","","","","","","null","","","","Images/BlackBeadChoiceWrong.png","","null"
"image-button-response","356","1213755","0.0-13.0-0.99","19","Low_HMMActual","","","","","","875.3999999761581","","","","Images/NewTrialWC.png","","1"
"image-button-response","357","1214066","0.0-13.0-1.99","19","Low_HMMActual","","","","","","null","","","","Images/BlackBeadChoice.png","","null"
"image-button-response","358","1214568","0.0-13.0-2.99","19","Low_HMMActual","","","","","","null","","","","Images/BlackBeadChoiceCorrect.png","","null"
"image-button-response","359","1216025","0.0-13.0-0.100","19","Low_HMMActual","","","","","","1453.8999999761581","","","","Images/NewTrialBC.png","","0"
"image-button-response","360","1216336","0.0-13.0-1.100","19","Low_HMMActual","","","","","","null","","","","Images/BlackBeadChoice.png","","null"
"image-button-response","361","1216851","0.0-13.0-2.100","19","Low_HMMActual","","","","","","null","","","","Images/BlackBeadChoiceWrong.png","","null"
"image-button-response","362","1217631","0.0-13.0-0.101","19","Low_HMMActual","","","","","","776.8999999761581","","","","Images/NewTrialWC.png","","3"
"image-button-response","363","1217947","0.0-13.0-1.101","19","Low_HMMActual","","","","","","null","","","","Images/WhiteBeadChoice.png","","null"
"image-button-response","364","1218450","0.0-13.0-2.101","19","Low_HMMActual","","","","","","null","","","","Images/WhiteBeadChoiceCorrect.png","","null"
"image-button-response","365","1218607","0.0-13.0-0.102","19","Low_HMMActual","","","","","","154.30000001192093","","","","Images/NewTrialWC.png","","2"
"image-button-response","366","1218915","0.0-13.0-1.102","19","Low_HMMActual","","","","","","null","","","","Images/WhiteBeadChoice.png","","null"
"image-button-response","367","1219424","0.0-13.0-2.102","19","Low_HMMActual","","","","","","null","","","","Images/WhiteBeadChoiceCorrect.png","","null"
"image-button-response","368","1220007","0.0-13.0-0.103","19","Low_HMMActual","","","","","","577.5999999642372","","","","Images/NewTrialWC.png","","2"
"image-button-response","369","1220324","0.0-13.0-1.103","19","Low_HMMActual","","","","","","null","","","","Images/WhiteBeadChoice.png","","null"
"image-button-response","370","1220832","0.0-13.0-2.103","19","Low_HMMActual","","","","","","null","","","","Images/WhiteBeadChoiceWrong.png","","null"
"image-button-response","371","1222129","0.0-13.0-0.104","19","Low_HMMActual","","","","","","1294.5","","","","Images/NewTrialBC.png","","3"
"image-button-response","372","1222448","0.0-13.0-1.104","19","Low_HMMActual","","","","","","null","","","","Images/WhiteBeadChoice.png","","null"
"image-button-response","373","1222955","0.0-13.0-2.104","19","Low_HMMActual","","","","","","null","","","","Images/WhiteBeadChoiceCorrect.png","","null"
"image-button-response","374","1223187","0.0-13.0-0.105","19","Low_HMMActual","","","","","","228.60000002384186","","","","Images/NewTrialWC.png","","2"
"image-button-response","375","1223506","0.0-13.0-1.105","19","Low_HMMActual","","","","","","null","","","","Images/WhiteBeadChoice.png","","null"
"image-button-response","376","1224015","0.0-13.0-2.105","19","Low_HMMActual","","","","","","null","","","","Images/WhiteBeadChoiceCorrect.png","","null"
"image-button-response","377","1224173","0.0-13.0-0.106","19","Low_HMMActual","","","","","","154.69999998807907","","","","Images/NewTrialWC.png","","2"
"image-button-response","378","1224478","0.0-13.0-1.106","19","Low_HMMActual","","","","","","null","","","","Images/WhiteBeadChoice.png","","null"
"image-button-response","379","1224992","0.0-13.0-2.106","19","Low_HMMActual","","","","","","null","","","","Images/WhiteBeadChoiceCorrect.png","","null"
"image-button-response","380","1225169","0.0-13.0-0.107","19","Low_HMMActual","","","","","","168","","","","Images/NewTrialWC.png","","2"
"image-button-response","381","1225473","0.0-13.0-1.107","19","Low_HMMActual","","","","","","null","","","","Images/WhiteBeadChoice.png","","null"
"image-button-response","382","1225990","0.0-13.0-2.107","19","Low_HMMActual","","","","","","null","","","","Images/WhiteBeadChoiceCorrect.png","","null"
"image-button-response","383","1226332","0.0-13.0-0.108","19","Low_HMMActual","","","","","","339.19999998807907","","","","Images/NewTrialWC.png","","2"
"image-button-response","384","1226645","0.0-13.0-1.108","19","Low_HMMActual","","","","","","null","","","","Images/WhiteBeadChoice.png","","null"
"image-button-response","385","1227162","0.0-13.0-2.108","19","Low_HMMActual","","","","","","null","","","","Images/WhiteBeadChoiceCorrect.png","","null"
"image-button-response","386","1227622","0.0-13.0-0.109","19","Low_HMMActual","","","","","","453.80000001192093","","","","Images/NewTrialWC.png","","2"
"image-button-response","387","1227932","0.0-13.0-1.109","19","Low_HMMActual","","","","","","null","","","","Images/WhiteBeadChoice.png","","null"
"image-button-response","388","1228447","0.0-13.0-2.109","19","Low_HMMActual","","","","","","null","","","","Images/WhiteBeadChoiceCorrect.png","","null"
"image-button-response","389","1228829","0.0-13.0-0.110","19","Low_HMMActual","","","","","","378.89999997615814","","","","Images/NewTrialWC.png","","2"
"image-button-response","390","1229132","0.0-13.0-1.110","19","Low_HMMActual","","","","","","null","","","","Images/WhiteBeadChoice.png","","null"
"image-button-response","391","1229638","0.0-13.0-2.110","19","Low_HMMActual","","","","","","null","","","","Images/WhiteBeadChoiceWrong.png","","null"
"image-button-response","392","1229876","0.0-13.0-0.111","19","Low_HMMActual","","","","","","234.80000001192093","","","","Images/NewTrialBC.png","","3"
"image-button-response","393","1230186","0.0-13.0-1.111","19","Low_HMMActual","","","","","","null","","","","Images/WhiteBeadChoice.png","","null"
"image-button-response","394","1230691","0.0-13.0-2.111","19","Low_HMMActual","","","","","","null","","","","Images/WhiteBeadChoiceWrong.png","","null"
"image-button-response","395","1231373","0.0-13.0-0.112","19","Low_HMMActual","","","","","","679.5999999642372","","","","Images/NewTrialBC.png","","1"
"image-button-response","396","1231684","0.0-13.0-1.112","19","Low_HMMActual","","","","","","null","","","","Images/BlackBeadChoice.png","","null"
"image-button-response","397","1232191","0.0-13.0-2.112","19","Low_HMMActual","","","","","","null","","","","Images/BlackBeadChoiceWrong.png","","null"
"image-button-response","398","1232783","0.0-13.0-0.113","19","Low_HMMActual","","","","","","589.1999999880791","","","","Images/NewTrialWC.png","","1"
"image-button-response","399","1233089","0.0-13.0-1.113","19","Low_HMMActual","","","","","","null","","","","Images/BlackBeadChoice.png","","null"
"image-button-response","400","1233599","0.0-13.0-2.113","19","Low_HMMActual","","","","","","null","","","","Images/BlackBeadChoiceWrong.png","","null"
"image-button-response","401","1233962","0.0-13.0-0.114","19","Low_HMMActual","","","","","","360.80000001192093","","","","Images/NewTrialWC.png","","2"
"image-button-response","402","1234266","0.0-13.0-1.114","19","Low_HMMActual","","","","","","null","","","","Images/WhiteBeadChoice.png","","null"
"image-button-response","403","1234782","0.0-13.0-2.114","19","Low_HMMActual","","","","","","513.3000000119209","","","","Images/WhiteBeadChoiceCorrect.png","","2"
"image-button-response","404","1235236","0.0-13.0-0.115","19","Low_HMMActual","","","","","","452","","","","Images/NewTrialWC.png","","2"
"image-button-response","405","1235552","0.0-13.0-1.115","19","Low_HMMActual","","","","","","null","","","","Images/WhiteBeadChoice.png","","null"
"image-button-response","406","1236058","0.0-13.0-2.115","19","Low_HMMActual","","","","","","null","","","","Images/WhiteBeadChoiceCorrect.png","","null"
"image-button-response","407","1236468","0.0-13.0-0.116","19","Low_HMMActual","","","","","","407.4000000357628","","","","Images/NewTrialWC.png","","2"
"image-button-response","408","1236779","0.0-13.0-1.116","19","Low_HMMActual","","","","","","null","","","","Images/WhiteBeadChoice.png","","null"
"image-button-response","409","1237302","0.0-13.0-2.116","19","Low_HMMActual","","","","","","null","","","","Images/WhiteBeadChoiceWrong.png","","null"
"image-button-response","410","1237972","0.0-13.0-0.117","19","Low_HMMActual","","","","","","662.3999999761581","","","","Images/NewTrialBC.png","","3"
"image-button-response","411","1238274","0.0-13.0-1.117","19","Low_HMMActual","","","","","","null","","","","Images/WhiteBeadChoice.png","","null"
"image-button-response","412","1238779","0.0-13.0-2.117","19","Low_HMMActual","","","","","","null","","","","Images/WhiteBeadChoiceWrong.png","","null"
"image-button-response","413","1240225","0.0-13.0-0.118","19","Low_HMMActual","","","","","","1442.300000011921","","","","Images/NewTrialBC.png","","1"
"image-button-response","414","1240536","0.0-13.0-1.118","19","Low_HMMActual","","","","","","null","","","","Images/BlackBeadChoice.png","","null"
"image-button-response","415","1241042","0.0-13.0-2.118","19","Low_HMMActual","","","","","","null","","","","Images/BlackBeadChoiceCorrect.png","","null"
"image-button-response","416","1241673","0.0-13.0-0.119","19","Low_HMMActual","","","","","","626.3000000119209","","","","Images/NewTrialBC.png","","0"
"image-button-response","417","1241981","0.0-13.0-1.119","19","Low_HMMActual","","","","","","null","","","","Images/BlackBeadChoice.png","","null"
"image-button-response","418","1242491","0.0-13.0-2.119","19","Low_HMMActual","","","","","","null","","","","Images/BlackBeadChoiceCorrect.png","","null"
"image-button-response","419","1242906","0.0-13.0-0.120","19","Low_HMMActual","","","","","","412.5","","","","Images/NewTrialBC.png","","0"
"image-button-response","420","1243214","0.0-13.0-1.120","19","Low_HMMActual","","","","","","null","","","","Images/BlackBeadChoice.png","","null"
"image-button-response","421","1243731","0.0-13.0-2.120","19","Low_HMMActual","","","","","","null","","","","Images/BlackBeadChoiceWrong.png","","null"
"image-button-response","422","1244433","0.0-13.0-0.121","19","Low_HMMActual","","","","","","699.5999999642372","","","","Images/NewTrialWC.png","","1"
"image-button-response","423","1244738","0.0-13.0-1.121","19","Low_HMMActual","","","","","","null","","","","Images/BlackBeadChoice.png","","null"
"image-button-response","424","1245255","0.0-13.0-2.121","19","Low_HMMActual","","","","","","null","","","","Images/BlackBeadChoiceWrong.png","","null"
"image-button-response","425","1246387","0.0-13.0-0.122","19","Low_HMMActual","","","","","","1129.8999999761581","","","","Images/NewTrialWC.png","","3"
"image-button-response","426","1246697","0.0-13.0-1.122","19","Low_HMMActual","","","","","","null","","","","Images/WhiteBeadChoice.png","","null"
"image-button-response","427","1247199","0.0-13.0-2.122","19","Low_HMMActual","","","","","","null","","","","Images/WhiteBeadChoiceCorrect.png","","null"
"image-button-response","428","1247525","0.0-13.0-0.123","19","Low_HMMActual","","","","","","322.9000000357628","","","","Images/NewTrialWC.png","","2"
"image-button-response","429","1247828","0.0-13.0-1.123","19","Low_HMMActual","","","","","","null","","","","Images/WhiteBeadChoice.png","","null"
"image-button-response","430","1248330","0.0-13.0-2.123","19","Low_HMMActual","","","","","","null","","","","Images/WhiteBeadChoiceWrong.png","","null"
"image-button-response","431","1248895","0.0-13.0-0.124","19","Low_HMMActual","","","","","","561.9000000357628","","","","Images/NewTrialBC.png","","3"
"image-button-response","432","1249204","0.0-13.0-1.124","19","Low_HMMActual","","","","","","null","","","","Images/WhiteBeadChoice.png","","null"
"image-button-response","433","1249708","0.0-13.0-2.124","19","Low_HMMActual","","","","","","null","","","","Images/WhiteBeadChoiceWrong.png","","null"
"image-button-response","434","1250149","0.0-13.0-0.125","19","Low_HMMActual","","","","","","438.19999998807907","","","","Images/NewTrialBC.png","","0"
"image-button-response","435","1250456","0.0-13.0-1.125","19","Low_HMMActual","","","","","","null","","","","Images/BlackBeadChoice.png","","null"
"image-button-response","436","1250970","0.0-13.0-2.125","19","Low_HMMActual","","","","","","null","","","","Images/BlackBeadChoiceWrong.png","","null"
"image-button-response","437","1251410","0.0-13.0-0.126","19","Low_HMMActual","","","","","","437.5","","","","Images/NewTrialWC.png","","1"
"image-button-response","438","1251722","0.0-13.0-1.126","19","Low_HMMActual","","","","","","null","","","","Images/BlackBeadChoice.png","","null"
"image-button-response","439","1252228","0.0-13.0-2.126","19","Low_HMMActual","","","","","","null","","","","Images/BlackBeadChoiceCorrect.png","","null"
"image-button-response","440","1252583","0.0-13.0-0.127","19","Low_HMMActual","","","","","","351.80000001192093","","","","Images/NewTrialBC.png","","0"
"image-button-response","441","1252901","0.0-13.0-1.127","19","Low_HMMActual","","","","","","null","","","","Images/BlackBeadChoice.png","","null"
"image-button-response","442","1253407","0.0-13.0-2.127","19","Low_HMMActual","","","","","","null","","","","Images/BlackBeadChoiceCorrect.png","","null"
"image-button-response","443","1253724","0.0-13.0-0.128","19","Low_HMMActual","","","","","","313.10000002384186","","","","Images/NewTrialBC.png","","0"
"image-button-response","444","1254032","0.0-13.0-1.128","19","Low_HMMActual","","","","","","null","","","","Images/BlackBeadChoice.png","","null"
"image-button-response","445","1254541","0.0-13.0-2.128","19","Low_HMMActual","","","","","","null","","","","Images/BlackBeadChoiceCorrect.png","","null"
"image-button-response","446","1254804","0.0-13.0-0.129","19","Low_HMMActual","","","","","","260.5","","","","Images/NewTrialBC.png","","0"
"image-button-response","447","1255126","0.0-13.0-1.129","19","Low_HMMActual","","","","","","null","","","","Images/BlackBeadChoice.png","","null"
"image-button-response","448","1255643","0.0-13.0-2.129","19","Low_HMMActual","","","","","","null","","","","Images/BlackBeadChoiceCorrect.png","","null"
"image-button-response","449","1256043","0.0-13.0-0.130","19","Low_HMMActual","","","","","","397.60000002384186","","","","Images/NewTrialBC.png","","0"
"image-button-response","450","1256361","0.0-13.0-1.130","19","Low_HMMActual","","","","","","null","","","","Images/BlackBeadChoice.png","","null"
"image-button-response","451","1256877","0.0-13.0-2.130","19","Low_HMMActual","","","","","","null","","","","Images/BlackBeadChoiceCorrect.png","","null"
"image-button-response","452","1257246","0.0-13.0-0.131","19","Low_HMMActual","","","","","","365.80000001192093","","","","Images/NewTrialBC.png","","0"
"image-button-response","453","1257563","0.0-13.0-1.131","19","Low_HMMActual","","","","","","null","","","","Images/BlackBeadChoice.png","","null"
"image-button-response","454","1258079","0.0-13.0-2.131","19","Low_HMMActual","","","","","","null","","","","Images/BlackBeadChoiceCorrect.png","","null"
"image-button-response","455","1258454","0.0-13.0-0.132","19","Low_HMMActual","","","","","","372","","","","Images/NewTrialBC.png","","0"
"image-button-response","456","1258769","0.0-13.0-1.132","19","Low_HMMActual","","","","","","null","","","","Images/BlackBeadChoice.png","","null"
"image-button-response","457","1259285","0.0-13.0-2.132","19","Low_HMMActual","","","","","","null","","","","Images/BlackBeadChoiceCorrect.png","","null"
"image-button-response","458","1259598","0.0-13.0-0.133","19","Low_HMMActual","","","","","","309.30000001192093","","","","Images/NewTrialBC.png","","0"
"image-button-response","459","1259912","0.0-13.0-1.133","19","Low_HMMActual","","","","","","null","","","","Images/BlackBeadChoice.png","","null"
"image-button-response","460","1260426","0.0-13.0-2.133","19","Low_HMMActual","","","","","","null","","","","Images/BlackBeadChoiceCorrect.png","","null"
"image-button-response","461","1260760","0.0-13.0-0.134","19","Low_HMMActual","","","","","","330.30000001192093","","","","Images/NewTrialBC.png","","0"
"image-button-response","462","1261065","0.0-13.0-1.134","19","Low_HMMActual","","","","","","null","","","","Images/BlackBeadChoice.png","","null"
"image-button-response","463","1261582","0.0-13.0-2.134","19","Low_HMMActual","","","","","","null","","","","Images/BlackBeadChoiceCorrect.png","","null"
"image-button-response","464","1261887","0.0-13.0-0.135","19","Low_HMMActual","","","","","","302.5999999642372","","","","Images/NewTrialBC.png","","0"
"image-button-response","465","1262192","0.0-13.0-1.135","19","Low_HMMActual","","","","","","null","","","","Images/BlackBeadChoice.png","","null"
"image-button-response","466","1262699","0.0-13.0-2.135","19","Low_HMMActual","","","","","","null","","","","Images/BlackBeadChoiceWrong.png","","null"
"image-button-response","467","1262998","0.0-13.0-0.136","19","Low_HMMActual","","","","","","297.10000002384186","","","","Images/NewTrialWC.png","","1"
"image-button-response","468","1263306","0.0-13.0-1.136","19","Low_HMMActual","","","","","","null","","","","Images/BlackBeadChoice.png","","null"
"image-button-response","469","1263811","0.0-13.0-2.136","19","Low_HMMActual","","","","","","null","","","","Images/BlackBeadChoiceWrong.png","","null"
"image-button-response","470","1264180","0.0-13.0-0.137","19","Low_HMMActual","","","","","","366.19999998807907","","","","Images/NewTrialWC.png","","2"
"image-button-response","471","1264485","0.0-13.0-1.137","19","Low_HMMActual","","","","","","null","","","","Images/WhiteBeadChoice.png","","null"
"image-button-response","472","1264990","0.0-13.0-2.137","19","Low_HMMActual","","","","","","null","","","","Images/WhiteBeadChoiceCorrect.png","","null"
"image-button-response","473","1265133","0.0-13.0-0.138","19","Low_HMMActual","","","","","","140","","","","Images/NewTrialWC.png","","2"
"image-button-response","474","1265447","0.0-13.0-1.138","19","Low_HMMActual","","","","","","null","","","","Images/WhiteBeadChoice.png","","null"
"image-button-response","475","1265965","0.0-13.0-2.138","19","Low_HMMActual","","","","","","null","","","","Images/WhiteBeadChoiceCorrect.png","","null"
"image-button-response","476","1266180","0.0-13.0-0.139","19","Low_HMMActual","","","","","","205.69999998807907","","","","Images/NewTrialWC.png","","2"
"image-button-response","477","1266497","0.0-13.0-1.139","19","Low_HMMActual","","","","","","null","","","","Images/WhiteBeadChoice.png","","null"
"image-button-response","478","1267015","0.0-13.0-2.139","19","Low_HMMActual","","","","","","null","","","","Images/WhiteBeadChoiceCorrect.png","","null"
"image-button-response","479","1267212","0.0-13.0-0.140","19","Low_HMMActual","","","","","","193.69999998807907","","","","Images/NewTrialWC.png","","2"
"image-button-response","480","1267523","0.0-13.0-1.140","19","Low_HMMActual","","","","","","null","","","","Images/WhiteBeadChoice.png","","null"
"image-button-response","481","1268046","0.0-13.0-2.140","19","Low_HMMActual","","","","","","null","","","","Images/WhiteBeadChoiceCorrect.png","","null"
"image-button-response","482","1268252","0.0-13.0-0.141","19","Low_HMMActual","","","","","","199.69999998807907","","","","Images/NewTrialWC.png","","2"
"image-button-response","483","1268562","0.0-13.0-1.141","19","Low_HMMActual","","","","","","null","","","","Images/WhiteBeadChoice.png","","null"
"image-button-response","484","1269079","0.0-13.0-2.141","19","Low_HMMActual","","","","","","null","","","","Images/WhiteBeadChoiceCorrect.png","","null"
"image-button-response","485","1269229","0.0-13.0-0.142","19","Low_HMMActual","","","","","","147.69999998807907","","","","Images/NewTrialWC.png","","2"
"image-button-response","486","1269540","0.0-13.0-1.142","19","Low_HMMActual","","","","","","null","","","","Images/WhiteBeadChoice.png","","null"
"image-button-response","487","1270048","0.0-13.0-2.142","19","Low_HMMActual","","","","","","null","","","","Images/WhiteBeadChoiceWrong.png","","null"
"image-button-response","488","1270328","0.0-13.0-0.143","19","Low_HMMActual","","","","","","277.5","","","","Images/NewTrialBC.png","","3"
"image-button-response","489","1270639","0.0-13.0-1.143","19","Low_HMMActual","","","","","","null","","","","Images/WhiteBeadChoice.png","","null"
"image-button-response","490","1271155","0.0-13.0-2.143","19","Low_HMMActual","","","","","","null","","","","Images/WhiteBeadChoiceCorrect.png","","null"
"image-button-response","491","1271433","0.0-13.0-0.144","19","Low_HMMActual","","","","","","275.89999997615814","","","","Images/NewTrialWC.png","","3"
"image-button-response","492","1271744","0.0-13.0-1.144","19","Low_HMMActual","","","","","","null","","","","Images/WhiteBeadChoice.png","","null"
"image-button-response","493","1272256","0.0-13.0-2.144","19","Low_HMMActual","","","","","","null","","","","Images/WhiteBeadChoiceCorrect.png","","null"
"image-button-response","494","1272446","0.0-13.0-0.145","19","Low_HMMActual","","","","","","187","","","","Images/NewTrialWC.png","","2"
"image-button-response","495","1272756","0.0-13.0-1.145","19","Low_HMMActual","","","","","","null","","","","Images/WhiteBeadChoice.png","","null"
"image-button-response","496","1273271","0.0-13.0-2.145","19","Low_HMMActual","","","","","","null","","","","Images/WhiteBeadChoiceCorrect.png","","null"
"image-button-response","497","1273398","0.0-13.0-0.146","19","Low_HMMActual","","","","","","123.10000002384186","","","","Images/NewTrialWC.png","","2"
"image-button-response","498","1273704","0.0-13.0-1.146","19","Low_HMMActual","","","","","","null","","","","Images/WhiteBeadChoice.png","","null"
"image-button-response","499","1274212","0.0-13.0-2.146","19","Low_HMMActual","","","","","","null","","","","Images/WhiteBeadChoiceWrong.png","","null"
"image-button-response","500","1275043","0.0-13.0-0.147","19","Low_HMMActual","","","","","","828.5","","","","Images/NewTrialBC.png","","2"
"image-button-response","501","1275349","0.0-13.0-1.147","19","Low_HMMActual","","","","","","null","","","","Images/WhiteBeadChoice.png","","null"
"image-button-response","502","1275862","0.0-13.0-2.147","19","Low_HMMActual","","","","","","null","","","","Images/WhiteBeadChoiceCorrect.png","","null"
"image-button-response","503","1276520","0.0-13.0-0.148","19","Low_HMMActual","","","","","","655.9000000357628","","","","Images/NewTrialWC.png","","2"
"image-button-response","504","1276827","0.0-13.0-1.148","19","Low_HMMActual","","","","","","null","","","","Images/WhiteBeadChoice.png","","null"
"image-button-response","505","1277343","0.0-13.0-2.148","19","Low_HMMActual","","","","","","null","","","","Images/WhiteBeadChoiceCorrect.png","","null"
"image-button-response","506","1277564","0.0-13.0-0.149","19","Low_HMMActual","","","","","","218.30000001192093","","","","Images/NewTrialWC.png","","2"
"image-button-response","507","1277871","0.0-13.0-1.149","19","Low_HMMActual","","","","","","null","","","","Images/WhiteBeadChoice.png","","null"
"image-button-response","508","1278373","0.0-13.0-2.149","19","Low_HMMActual","","","","","","null","","","","Images/WhiteBeadChoiceWrong.png","","null"
"image-button-response","509","1279178","0.0-13.0-0.150","19","Low_HMMActual","","","","","","802","","","","Images/NewTrialBC.png","","3"
"image-button-response","510","1279482","0.0-13.0-1.150","19","Low_HMMActual","","","","","","null","","","","Images/WhiteBeadChoice.png","","null"
"image-button-response","511","1280003","0.0-13.0-2.150","19","Low_HMMActual","","","","","","null","","","","Images/WhiteBeadChoiceCorrect.png","","null"
"image-button-response","512","1280200","0.0-13.0-0.151","19","Low_HMMActual","","","","","","194.5","","","","Images/NewTrialWC.png","","2"
"image-button-response","513","1280509","0.0-13.0-1.151","19","Low_HMMActual","","","","","","null","","","","Images/WhiteBeadChoice.png","","null"
"image-button-response","514","1281021","0.0-13.0-2.151","19","Low_HMMActual","","","","","","null","","","","Images/WhiteBeadChoiceCorrect.png","","null"
"image-button-response","515","1281287","0.0-13.0-0.152","19","Low_HMMActual","","","","","","263.5","","","","Images/NewTrialWC.png","","2"
"image-button-response","516","1281605","0.0-13.0-1.152","19","Low_HMMActual","","","","","","null","","","","Images/WhiteBeadChoice.png","","null"
"image-button-response","517","1282122","0.0-13.0-2.152","19","Low_HMMActual","","","","","","null","","","","Images/WhiteBeadChoiceCorrect.png","","null"
"image-button-response","518","1282458","0.0-13.0-0.153","19","Low_HMMActual","","","","","","331.30000001192093","","","","Images/NewTrialWC.png","","2"
"image-button-response","519","1282772","0.0-13.0-1.153","19","Low_HMMActual","","","","","","null","","","","Images/WhiteBeadChoice.png","","null"
"image-button-response","520","1283288","0.0-13.0-2.153","19","Low_HMMActual","","","","","","null","","","","Images/WhiteBeadChoiceCorrect.png","","null"
"image-button-response","521","1283553","0.0-13.0-0.154","19","Low_HMMActual","","","","","","261.39999997615814","","","","Images/NewTrialWC.png","","2"
"image-button-response","522","1283856","0.0-13.0-1.154","19","Low_HMMActual","","","","","","null","","","","Images/WhiteBeadChoice.png","","null"
"image-button-response","523","1284360","0.0-13.0-2.154","19","Low_HMMActual","","","","","","null","","","","Images/WhiteBeadChoiceCorrect.png","","null"
"image-button-response","524","1284636","0.0-13.0-0.155","19","Low_HMMActual","","","","","","272.60000002384186","","","","Images/NewTrialWC.png","","2"
"image-button-response","525","1284945","0.0-13.0-1.155","19","Low_HMMActual","","","","","","null","","","","Images/WhiteBeadChoice.png","","null"
"image-button-response","526","1285448","0.0-13.0-2.155","19","Low_HMMActual","","","","","","null","","","","Images/WhiteBeadChoiceWrong.png","","null"
"image-button-response","527","1286006","0.0-13.0-0.156","19","Low_HMMActual","","","","","","555.8999999761581","","","","Images/NewTrialBC.png","","3"
"image-button-response","528","1286322","0.0-13.0-1.156","19","Low_HMMActual","","","","","","null","","","","Images/WhiteBeadChoice.png","","null"
"image-button-response","529","1286829","0.0-13.0-2.156","19","Low_HMMActual","","","","","","null","","","","Images/WhiteBeadChoiceWrong.png","","null"
"image-button-response","530","1287235","0.0-13.0-0.157","19","Low_HMMActual","","","","","","400.5","","","","Images/NewTrialBC.png","","0"
"image-button-response","531","1287545","0.0-13.0-1.157","19","Low_HMMActual","","","","","","null","","","","Images/BlackBeadChoice.png","","null"
"image-button-response","532","1288048","0.0-13.0-2.157","19","Low_HMMActual","","","","","","null","","","","Images/BlackBeadChoiceCorrect.png","","null"
"image-button-response","533","1288312","0.0-13.0-0.158","19","Low_HMMActual","","","","","","261.39999997615814","","","","Images/NewTrialBC.png","","0"
"image-button-response","534","1288629","0.0-13.0-1.158","19","Low_HMMActual","","","","","","null","","","","Images/BlackBeadChoice.png","","null"
"image-button-response","535","1289147","0.0-13.0-2.158","19","Low_HMMActual","","","","","","null","","","","Images/BlackBeadChoiceCorrect.png","","null"
"image-button-response","536","1289338","0.0-13.0-0.159","19","Low_HMMActual","","","","","","187.19999998807907","","","","Images/NewTrialBC.png","","0"
"image-button-response","537","1289640","0.0-13.0-1.159","19","Low_HMMActual","","","","","","null","","","","Images/BlackBeadChoice.png","","null"
"image-button-response","538","1290149","0.0-13.0-2.159","19","Low_HMMActual","","","","","","null","","","","Images/BlackBeadChoiceCorrect.png","","null"
"image-button-response","539","1290245","0.0-13.0-0.160","19","Low_HMMActual","","","","","","92.40000003576279","","","","Images/NewTrialBC.png","","0"
"image-button-response","540","1290560","0.0-13.0-1.160","19","Low_HMMActual","","","","","","null","","","","Images/BlackBeadChoice.png","","null"
"image-button-response","541","1291080","0.0-13.0-2.160","19","Low_HMMActual","","","","","","null","","","","Images/BlackBeadChoiceCorrect.png","","null"
"image-button-response","542","1291173","0.0-13.0-0.161","19","Low_HMMActual","","","","","","90.09999996423721","","","","Images/NewTrialBC.png","","0"
"image-button-response","543","1291483","0.0-13.0-1.161","19","Low_HMMActual","","","","","","null","","","","Images/BlackBeadChoice.png","","null"
"image-button-response","544","1291985","0.0-13.0-2.161","19","Low_HMMActual","","","","","","null","","","","Images/BlackBeadChoiceWrong.png","","null"
"image-button-response","545","1292483","0.0-13.0-0.162","19","Low_HMMActual","","","","","","495.69999998807907","","","","Images/NewTrialWC.png","","1"
"image-button-response","546","1292794","0.0-13.0-1.162","19","Low_HMMActual","","","","","","null","","","","Images/BlackBeadChoice.png","","null"
"image-button-response","547","1293298","0.0-13.0-2.162","19","Low_HMMActual","","","","","","null","","","","Images/BlackBeadChoiceWrong.png","","null"
"image-button-response","548","1293774","0.0-13.0-0.163","19","Low_HMMActual","","","","","","472.5","","","","Images/NewTrialWC.png","","2"
"image-button-response","549","1294078","0.0-13.0-1.163","19","Low_HMMActual","","","","","","null","","","","Images/WhiteBeadChoice.png","","null"
"image-button-response","550","1294595","0.0-13.0-2.163","19","Low_HMMActual","","","","","","null","","","","Images/WhiteBeadChoiceCorrect.png","","null"
"image-button-response","551","1294729","0.0-13.0-0.164","19","Low_HMMActual","","","","","","131.30000001192093","","","","Images/NewTrialWC.png","","2"
"image-button-response","552","1295048","0.0-13.0-1.164","19","Low_HMMActual","","","","","","null","","","","Images/WhiteBeadChoice.png","","null"
"image-button-response","553","1295564","0.0-13.0-2.164","19","Low_HMMActual","","","","","","null","","","","Images/WhiteBeadChoiceCorrect.png","","null"
"image-button-response","554","1295733","0.0-13.0-0.165","19","Low_HMMActual","","","","","","165.4000000357628","","","","Images/NewTrialWC.png","","2"
"image-button-response","555","1296057","0.0-13.0-1.165","19","Low_HMMActual","","","","","","null","","","","Images/WhiteBeadChoice.png","","null"
"image-button-response","556","1296566","0.0-13.0-2.165","19","Low_HMMActual","","","","","","null","","","","Images/WhiteBeadChoiceCorrect.png","","null"
"image-button-response","557","1296733","0.0-13.0-0.166","19","Low_HMMActual","","","","","","163.89999997615814","","","","Images/NewTrialWC.png","","2"
"image-button-response","558","1297041","0.0-13.0-1.166","19","Low_HMMActual","","","","","","null","","","","Images/WhiteBeadChoice.png","","null"
"image-button-response","559","1297547","0.0-13.0-2.166","19","Low_HMMActual","","","","","","null","","","","Images/WhiteBeadChoiceCorrect.png","","null"
"image-button-response","560","1298098","0.0-13.0-0.167","19","Low_HMMActual","","","","","","544.8000000119209","","","","Images/NewTrialWC.png","","2"
"image-button-response","561","1298413","0.0-13.0-1.167","19","Low_HMMActual","","","","","","null","","","","Images/WhiteBeadChoice.png","","null"
"image-button-response","562","1298929","0.0-13.0-2.167","19","Low_HMMActual","","","","","","null","","","","Images/WhiteBeadChoiceCorrect.png","","null"
"image-button-response","563","1299152","0.0-13.0-0.168","19","Low_HMMActual","","","","","","219.80000001192093","","","","Images/NewTrialWC.png","","2"
"image-button-response","564","1299462","0.0-13.0-1.168","19","Low_HMMActual","","","","","","null","","","","Images/WhiteBeadChoice.png","","null"
"image-button-response","565","1299981","0.0-13.0-2.168","19","Low_HMMActual","","","","","","null","","","","Images/WhiteBeadChoiceWrong.png","","null"
"image-button-response","566","1300836","0.0-13.0-0.169","19","Low_HMMActual","","","","","","851.6000000238419","","","","Images/NewTrialBC.png","","3"
"image-button-response","567","1301145","0.0-13.0-1.169","19","Low_HMMActual","","","","","","null","","","","Images/WhiteBeadChoice.png","","null"
"image-button-response","568","1301661","0.0-13.0-2.169","19","Low_HMMActual","","","","","","null","","","","Images/WhiteBeadChoiceCorrect.png","","null"
"image-button-response","569","1302131","0.0-13.0-0.170","19","Low_HMMActual","","","","","","466.19999998807907","","","","Images/NewTrialWC.png","","2"
"image-button-response","570","1302447","0.0-13.0-1.170","19","Low_HMMActual","","","","","","null","","","","Images/WhiteBeadChoice.png","","null"
"image-button-response","571","1302964","0.0-13.0-2.170","19","Low_HMMActual","","","","","","null","","","","Images/WhiteBeadChoiceCorrect.png","","null"
"image-button-response","572","1303231","0.0-13.0-0.171","19","Low_HMMActual","","","","","","259.89999997615814","","","","Images/NewTrialWC.png","","2"
"image-button-response","573","1303534","0.0-13.0-1.171","19","Low_HMMActual","","","","","","null","","","","Images/WhiteBeadChoice.png","","null"
"image-button-response","574","1304052","0.0-13.0-2.171","19","Low_HMMActual","","","","","","null","","","","Images/WhiteBeadChoiceCorrect.png","","null"
"image-button-response","575","1304388","0.0-13.0-0.172","19","Low_HMMActual","","","","","","333.30000001192093","","","","Images/NewTrialWC.png","","2"
"image-button-response","576","1304705","0.0-13.0-1.172","19","Low_HMMActual","","","","","","null","","","","Images/WhiteBeadChoice.png","","null"
"image-button-response","577","1305228","0.0-13.0-2.172","19","Low_HMMActual","","","","","","null","","","","Images/WhiteBeadChoiceCorrect.png","","null"
"image-button-response","578","1305508","0.0-13.0-0.173","19","Low_HMMActual","","","","","","277.30000001192093","","","","Images/NewTrialWC.png","","2"
"image-button-response","579","1305830","0.0-13.0-1.173","19","Low_HMMActual","","","","","","null","","","","Images/WhiteBeadChoice.png","","null"
"image-button-response","580","1306346","0.0-13.0-2.173","19","Low_HMMActual","","","","","","null","","","","Images/WhiteBeadChoiceCorrect.png","","null"
"image-button-response","581","1306505","0.0-13.0-0.174","19","Low_HMMActual","","","","","","156.69999998807907","","","","Images/NewTrialWC.png","","2"
"image-button-response","582","1306830","0.0-13.0-1.174","19","Low_HMMActual","","","","","","null","","","","Images/WhiteBeadChoice.png","","null"
"image-button-response","583","1307339","0.0-13.0-2.174","19","Low_HMMActual","","","","","","479.60000002384186","","","","Images/WhiteBeadChoiceCorrect.png","","2"
"image-button-response","584","1320403","0.0-13.0-0.175","19","Low_HMMActual","","","","","","13061.199999988079","","","","Images/NewTrialWC.png","","3"
"image-button-response","585","1320708","0.0-13.0-1.175","19","Low_HMMActual","","","","","","null","","","","Images/WhiteBeadChoice.png","","null"
"image-button-response","586","1321221","0.0-13.0-2.175","19","Low_HMMActual","","","","","","null","","","","Images/WhiteBeadChoiceWrong.png","","null"
"image-button-response","587","1322446","0.0-13.0-0.176","19","Low_HMMActual","","","","","","1223","","","","Images/NewTrialBC.png","","0"
"image-button-response","588","1322751","0.0-13.0-1.176","19","Low_HMMActual","","","","","","null","","","","Images/BlackBeadChoice.png","","null"
"image-button-response","589","1323262","0.0-13.0-2.176","19","Low_HMMActual","","","","","","447.69999998807907","","","","Images/BlackBeadChoiceCorrect.png","","0"
"image-button-response","590","1323798","0.0-13.0-0.177","19","Low_HMMActual","","","","","","532.8999999761581","","","","Images/NewTrialBC.png","","0"
"image-button-response","591","1324101","0.0-13.0-1.177","19","Low_HMMActual","","","","","","null","","","","Images/BlackBeadChoice.png","","null"
"image-button-response","592","1324613","0.0-13.0-2.177","19","Low_HMMActual","","","","","","null","","","","Images/BlackBeadChoiceCorrect.png","","null"
"image-button-response","593","1324781","0.0-13.0-0.178","19","Low_HMMActual","","","","","","164.70000004768372","","","","Images/NewTrialBC.png","","0"
"image-button-response","594","1325094","0.0-13.0-1.178","19","Low_HMMActual","","","","","","null","","","","Images/BlackBeadChoice.png","","null"
"image-button-response","595","1325597","0.0-13.0-2.178","19","Low_HMMActual","","","","","","null","","","","Images/BlackBeadChoiceWrong.png","","null"
"image-button-response","596","1326113","0.0-13.0-0.179","19","Low_HMMActual","","","","","","513.3000000119209","","","","Images/NewTrialWC.png","","1"
"image-button-response","597","1326416","0.0-13.0-1.179","19","Low_HMMActual","","","","","","null","","","","Images/BlackBeadChoice.png","","null"
"image-button-response","598","1326928","0.0-13.0-2.179","19","Low_HMMActual","","","","","","null","","","","Images/BlackBeadChoiceCorrect.png","","null"
"image-button-response","599","1327324","0.0-13.0-0.180","19","Low_HMMActual","","","","","","392.89999997615814","","","","Images/NewTrialBC.png","","0"
"image-button-response","600","1327628","0.0-13.0-1.180","19","Low_HMMActual","","","","","","null","","","","Images/BlackBeadChoice.png","","null"
"image-button-response","601","1328145","0.0-13.0-2.180","19","Low_HMMActual","","","","","","476.89999997615814","","","","Images/BlackBeadChoiceCorrect.png","","0"
"image-button-response","602","1328489","0.0-13.0-0.181","19","Low_HMMActual","","","","","","341.30000001192093","","","","Images/NewTrialBC.png","","0"
"image-button-response","603","1328796","0.0-13.0-1.181","19","Low_HMMActual","","","","","","null","","","","Images/BlackBeadChoice.png","","null"
"image-button-response","604","1329316","0.0-13.0-2.181","19","Low_HMMActual","","","","","","null","","","","Images/BlackBeadChoiceCorrect.png","","null"
"image-button-response","605","1329505","0.0-13.0-0.182","19","Low_HMMActual","","","","","","185.30000001192093","","","","Images/NewTrialBC.png","","0"
"image-button-response","606","1329813","0.0-13.0-1.182","19","Low_HMMActual","","","","","","null","","","","Images/BlackBeadChoice.png","","null"
"image-button-response","607","1330327","0.0-13.0-2.182","19","Low_HMMActual","","","","","","null","","","","Images/BlackBeadChoiceCorrect.png","","null"
"image-button-response","608","1330719","0.0-13.0-0.183","19","Low_HMMActual","","","","","","388.69999998807907","","","","Images/NewTrialBC.png","","0"
"image-button-response","609","1331030","0.0-13.0-1.183","19","Low_HMMActual","","","","","","null","","","","Images/BlackBeadChoice.png","","null"
"image-button-response","610","1331547","0.0-13.0-2.183","19","Low_HMMActual","","","","","","null","","","","Images/BlackBeadChoiceCorrect.png","","null"
"image-button-response","611","1331748","0.0-13.0-0.184","19","Low_HMMActual","","","","","","197.80000001192093","","","","Images/NewTrialBC.png","","0"
"image-button-response","612","1332062","0.0-13.0-1.184","19","Low_HMMActual","","","","","","null","","","","Images/BlackBeadChoice.png","","null"
"image-button-response","613","1332579","0.0-13.0-2.184","19","Low_HMMActual","","","","","","null","","","","Images/BlackBeadChoiceCorrect.png","","null"
"image-button-response","614","1332683","0.0-13.0-0.185","19","Low_HMMActual","","","","","","100.69999998807907","","","","Images/NewTrialBC.png","","0"
"image-button-response","615","1332997","0.0-13.0-1.185","19","Low_HMMActual","","","","","","null","","","","Images/BlackBeadChoice.png","","null"
"image-button-response","616","1333500","0.0-13.0-2.185","19","Low_HMMActual","","","","","","480.69999998807907","","","","Images/BlackBeadChoiceCorrect.png","","0"
"image-button-response","617","1333792","0.0-13.0-0.186","19","Low_HMMActual","","","","","","289.69999998807907","","","","Images/NewTrialBC.png","","0"
"image-button-response","618","1334103","0.0-13.0-1.186","19","Low_HMMActual","","","","","","null","","","","Images/BlackBeadChoice.png","","null"
"image-button-response","619","1334614","0.0-13.0-2.186","19","Low_HMMActual","","","","","","466.80000001192093","","","","Images/BlackBeadChoiceCorrect.png","","0"
"image-button-response","620","1334840","0.0-13.0-0.187","19","Low_HMMActual","","","","","","223.89999997615814","","","","Images/NewTrialBC.png","","0"
"image-button-response","621","1335143","0.0-13.0-1.187","19","Low_HMMActual","","","","","","null","","","","Images/BlackBeadChoice.png","","null"
"image-button-response","622","1335646","0.0-13.0-2.187","19","Low_HMMActual","","","","","","null","","","","Images/BlackBeadChoiceWrong.png","","null"
"image-button-response","623","1336069","0.0-13.0-0.188","19","Low_HMMActual","","","","","","420.9000000357628","","","","Images/NewTrialWC.png","","1"
"image-button-response","624","1336380","0.0-13.0-1.188","19","Low_HMMActual","","","","","","null","","","","Images/BlackBeadChoice.png","","null"
"image-button-response","625","1336882","0.0-13.0-2.188","19","Low_HMMActual","","","","","","null","","","","Images/BlackBeadChoiceWrong.png","","null"
"image-button-response","626","1337757","0.0-13.0-0.189","19","Low_HMMActual","","","","","","873.2999999523163","","","","Images/NewTrialWC.png","","2"
"image-button-response","627","1338060","0.0-13.0-1.189","19","Low_HMMActual","","","","","","null","","","","Images/WhiteBeadChoice.png","","null"
"image-button-response","628","1338566","0.0-13.0-2.189","19","Low_HMMActual","","","","","","null","","","","Images/WhiteBeadChoiceCorrect.png","","null"
"image-button-response","629","1338892","0.0-13.0-0.190","19","Low_HMMActual","","","","","","323.60000002384186","","","","Images/NewTrialWC.png","","2"
"image-button-response","630","1339197","0.0-13.0-1.190","19","Low_HMMActual","","","","","","null","","","","Images/WhiteBeadChoice.png","","null"
"image-button-response","631","1339708","0.0-13.0-2.190","19","Low_HMMActual","","","","","","null","","","","Images/WhiteBeadChoiceCorrect.png","","null"
"image-button-response","632","1339916","0.0-13.0-0.191","19","Low_HMMActual","","","","","","199.39999997615814","","","","Images/NewTrialWC.png","","2"
"image-button-response","633","1340219","0.0-13.0-1.191","19","Low_HMMActual","","","","","","null","","","","Images/WhiteBeadChoice.png","","null"
"image-button-response","634","1340731","0.0-13.0-2.191","19","Low_HMMActual","","","","","","null","","","","Images/WhiteBeadChoiceCorrect.png","","null"
"image-button-response","635","1341008","0.0-13.0-0.192","19","Low_HMMActual","","","","","","273.2999999523163","","","","Images/NewTrialWC.png","","2"
"image-button-response","636","1341320","0.0-13.0-1.192","19","Low_HMMActual","","","","","","null","","","","Images/WhiteBeadChoice.png","","null"
"image-button-response","637","1341835","0.0-13.0-2.192","19","Low_HMMActual","","","","","","null","","","","Images/WhiteBeadChoiceCorrect.png","","null"
"image-button-response","638","1342138","0.0-13.0-0.193","19","Low_HMMActual","","","","","","299.7000000476837","","","","Images/NewTrialWC.png","","2"
"image-button-response","639","1342444","0.0-13.0-1.193","19","Low_HMMActual","","","","","","null","","","","Images/WhiteBeadChoice.png","","null"
"image-button-response","640","1342958","0.0-13.0-2.193","19","Low_HMMActual","","","","","","null","","","","Images/WhiteBeadChoiceCorrect.png","","null"
"image-button-response","641","1343397","0.0-13.0-0.194","19","Low_HMMActual","","","","","","436.5","","","","Images/NewTrialWC.png","","2"
"image-button-response","642","1343704","0.0-13.0-1.194","19","Low_HMMActual","","","","","","null","","","","Images/WhiteBeadChoice.png","","null"
"image-button-response","643","1344219","0.0-13.0-2.194","19","Low_HMMActual","","","","","","null","","","","Images/WhiteBeadChoiceCorrect.png","","null"
"image-button-response","644","1344550","0.0-13.0-0.195","19","Low_HMMActual","","","","","","327.5","","","","Images/NewTrialWC.png","","2"
"image-button-response","645","1344859","0.0-13.0-1.195","19","Low_HMMActual","","","","","","null","","","","Images/WhiteBeadChoice.png","","null"
"image-button-response","646","1345370","0.0-13.0-2.195","19","Low_HMMActual","","","","","","null","","","","Images/WhiteBeadChoiceCorrect.png","","null"
"image-button-response","647","1345717","0.0-13.0-0.196","19","Low_HMMActual","","","","","","344.89999997615814","","","","Images/NewTrialWC.png","","2"
"image-button-response","648","1346023","0.0-13.0-1.196","19","Low_HMMActual","","","","","","null","","","","Images/WhiteBeadChoice.png","","null"
"image-button-response","649","1346538","0.0-13.0-2.196","19","Low_HMMActual","","","","","","null","","","","Images/WhiteBeadChoiceCorrect.png","","null"
"image-button-response","650","1346745","0.0-13.0-0.197","19","Low_HMMActual","","","","","","204.20000004768372","","","","Images/NewTrialWC.png","","2"
"image-button-response","651","1347052","0.0-13.0-1.197","19","Low_HMMActual","","","","","","null","","","","Images/WhiteBeadChoice.png","","null"
"image-button-response","652","1347567","0.0-13.0-2.197","19","Low_HMMActual","","","","","","null","","","","Images/WhiteBeadChoiceCorrect.png","","null"
"image-button-response","653","1347783","0.0-13.0-0.198","19","Low_HMMActual","","","","","","212.0999999642372","","","","Images/NewTrialWC.png","","2"
"image-button-response","654","1348097","0.0-13.0-1.198","19","Low_HMMActual","","","","","","null","","","","Images/WhiteBeadChoice.png","","null"
"image-button-response","655","1348613","0.0-13.0-2.198","19","Low_HMMActual","","","","","","null","","","","Images/WhiteBeadChoiceWrong.png","","null"
"image-button-response","656","1349244","0.0-13.0-0.199","19","Low_HMMActual","","","","","","628.8999999761581","","","","Images/NewTrialBC.png","","3"
"image-button-response","657","1349546","0.0-13.0-1.199","19","Low_HMMActual","","","","","","null","","","","Images/WhiteBeadChoice.png","","null"
"image-button-response","658","1350050","0.0-13.0-2.199","19","Low_HMMActual","","","","","","null","","","","Images/WhiteBeadChoiceCorrect.png","","null"
"image-button-response","659","1350553","0.0-13.0-0.200","19","Low_HMMActual","","","","","","500.2000000476837","","","","Images/NewTrialWC.png","","2"
"image-button-response","660","1350855","0.0-13.0-1.200","19","Low_HMMActual","","","","","","null","","","","Images/WhiteBeadChoice.png","","null"
"image-button-response","661","1351368","0.0-13.0-2.200","19","Low_HMMActual","","","","","","null","","","","Images/WhiteBeadChoiceCorrect.png","","null"
