"trial_type","trial_index","time_elapsed","internal_node_id","Script_Picker","Block_Type","success","timeout","failed_images","failed_audio","failed_video","rt","url","responses","question_order","stimulus","key_press","response"
"pavlovia","0","14","0.0-0.0","17","Low_HMMActual","","","","","","","","","","","",""
"preload","1","15","0.0-1.0","17","Low_HMMActual","true","false","[]","[]","[]","","","","","","",""
"external-html","2","30017","0.0-2.0-0.0","17","Low_HMMActual","","","","","","29883.5","consent.html","","","","",""
"survey-multi-choice","3","39553","0.0-2.0-1.0","17","Low_HMMActual","","","","","","9534.300000071526","","{""Q0"":""Male"",""Q1"":""White""}","[0,1]","","",""
"survey-text","4","41813","0.0-2.0-2.0","17","Low_HMMActual","","","","","","2258.1999999284744","","{""Q0"":""20""}","","","",""
"survey-text","5","47457","0.0-2.0-3.0","17","Low_HMMActual","","","","","","5538.299999952316","","{""Q0"":""5eb5123206340e38f179de1b""}","","","",""
"image-keyboard-response","6","64454","0.0-3.0-0.0","17","Low_HMMActual","","","","","","16895.399999976158","","","","tutorial/tutorial1.png"," ",""
"image-keyboard-response","7","69202","0.0-3.0-0.1","17","Low_HMMActual","","","","","","4747.400000095367","","","","tutorial/tutorial2.png"," ",""
"image-keyboard-response","8","72571","0.0-3.0-0.2","17","Low_HMMActual","","","","","","3367.1999999284744","","","","tutorial/tutorial3.png"," ",""
"image-keyboard-response","9","81038","0.0-3.0-0.3","17","Low_HMMActual","","","","","","8465.899999976158","","","","tutorial/tutorial4.png"," ",""
"image-keyboard-response","10","82954","0.0-3.0-0.4","17","Low_HMMActual","","","","","","1915.7000000476837","","","","tutorial/tutorial5.png"," ",""
"image-keyboard-response","11","90602","0.0-3.0-0.5","17","Low_HMMActual","","","","","","7646.799999952316","","","","tutorial/tutorial6.png"," ",""
"image-keyboard-response","12","94323","0.0-3.0-0.6","17","Low_HMMActual","","","","","","3719.6999999284744","","","","tutorial/tutorial7.png"," ",""
"image-keyboard-response","13","114440","0.0-3.0-0.7","17","Low_HMMActual","","","","","","20116.200000047684","","","","tutorial/tutorial8.png"," ",""
"image-keyboard-response","14","121097","0.0-3.0-0.8","17","Low_HMMActual","","","","","","6655.5","","","","tutorial/tutorial9.png"," ",""
"image-keyboard-response","15","134258","0.0-3.0-0.9","17","Low_HMMActual","","","","","","13160.199999928474","","","","tutorial/tutorial10.png"," ",""
"image-keyboard-response","16","146387","0.0-3.0-0.10","17","Low_HMMActual","","","","","","12128.199999928474","","","","tutorial/tutorial11.png"," ",""
"image-keyboard-response","17","153692","0.0-3.0-0.11","17","Low_HMMActual","","","","","","7304.700000047684","","","","tutorial/tutorial12.png"," ",""
"image-keyboard-response","18","162750","0.0-3.0-0.12","17","Low_HMMActual","","","","","","9057","","","","tutorial/tutorial13.png"," ",""
"image-keyboard-response","19","172818","0.0-3.0-0.13","17","Low_HMMActual","","","","","","10067.399999976158","","","","tutorial/tutorial14.png"," ",""
"image-keyboard-response","20","175594","0.0-3.0-0.14","17","Low_HMMActual","","","","","","2775.7000000476837","","","","tutorial/tutorial15.png"," ",""
"image-keyboard-response","21","182316","0.0-4.0","17","Low_HMMActual","","","","","","6720.799999952316","","","","tutorial/tutorial16.png","arrowup",""
"image-keyboard-response","22","191649","0.0-5.0","17","Low_HMMActual","","","","","","6141.100000023842","","","","tutorial/tutorial17.png","arrowright",""
"image-keyboard-response","23","197799","0.0-6.0","17","Low_HMMActual","","","","","","4646","","","","tutorial/tutorial18.png","arrowleft",""
"image-keyboard-response","24","210177","0.0-7.0","17","Low_HMMActual","","","","","","11181.199999928474","","","","tutorial/tutorial19.png"," ",""
"html-keyboard-response","25","213836","0.0-8.0","18","Low_HMMActual","","","","","","3655.5999999046326","","","","<div class=""container"" style=""height:800px;width:800px;display:flex;flex-direction:column;justify-content:center;align-items:center;text-align:center;font-weight:normal;font-family:Arial;font-size:20px""><p>Loading episode&hellip;</p><div>"," ",""
"image-button-response","26","223487","0.0-9.0-0.0","18","Low_HMMActual","","","","","","9649.5","","","","Images/NoChoice.png","","1"
"image-button-response","27","223792","0.0-9.0-1.0","18","Low_HMMActual","","","","","","null","","","","Images/BlackBeadChoice.png","","null"
"image-button-response","28","224303","0.0-9.0-2.0","18","Low_HMMActual","","","","","","null","","","","Images/BlackBeadChoiceWrong.png","","null"
"image-button-response","29","230529","0.0-9.0-0.1","18","Low_HMMActual","","","","","","6215.600000023842","","","","Images/NewTrialWC.png","","2"
"image-button-response","30","230844","0.0-9.0-1.1","18","Low_HMMActual","","","","","","null","","","","Images/WhiteBeadChoice.png","","null"
"image-button-response","31","231357","0.0-9.0-2.1","18","Low_HMMActual","","","","","","null","","","","Images/WhiteBeadChoiceCorrect.png","","null"
"image-button-response","32","232700","0.0-9.0-0.2","18","Low_HMMActual","","","","","","1341.1000000238419","","","","Images/NewTrialWC.png","","2"
"image-button-response","33","233015","0.0-9.0-1.2","18","Low_HMMActual","","","","","","null","","","","Images/WhiteBeadChoice.png","","null"
"image-button-response","34","233523","0.0-9.0-2.2","18","Low_HMMActual","","","","","","null","","","","Images/WhiteBeadChoiceCorrect.png","","null"
"image-button-response","35","234369","0.0-9.0-0.3","18","Low_HMMActual","","","","","","843.0999999046326","","","","Images/NewTrialWC.png","","2"
"image-button-response","36","234670","0.0-9.0-1.3","18","Low_HMMActual","","","","","","null","","","","Images/WhiteBeadChoice.png","","null"
"image-button-response","37","235177","0.0-9.0-2.3","18","Low_HMMActual","","","","","","null","","","","Images/WhiteBeadChoiceWrong.png","","null"
"image-button-response","38","240550","0.0-9.0-0.4","18","Low_HMMActual","","","","","","5370.199999928474","","","","Images/NewTrialBC.png","","2"
"image-button-response","39","240861","0.0-9.0-1.4","18","Low_HMMActual","","","","","","null","","","","Images/WhiteBeadChoice.png","","null"
"image-button-response","40","241367","0.0-9.0-2.4","18","Low_HMMActual","","","","","","null","","","","Images/WhiteBeadChoiceCorrect.png","","null"
"image-button-response","41","241876","0.0-9.0-0.5","18","Low_HMMActual","","","","","","506.39999997615814","","","","Images/NewTrialWC.png","","2"
"image-button-response","42","242184","0.0-9.0-1.5","18","Low_HMMActual","","","","","","null","","","","Images/WhiteBeadChoice.png","","null"
"image-button-response","43","242696","0.0-9.0-2.5","18","Low_HMMActual","","","","","","null","","","","Images/WhiteBeadChoiceCorrect.png","","null"
"image-button-response","44","243059","0.0-9.0-0.6","18","Low_HMMActual","","","","","","358.2000000476837","","","","Images/NewTrialWC.png","","2"
"image-button-response","45","243362","0.0-9.0-1.6","18","Low_HMMActual","","","","","","null","","","","Images/WhiteBeadChoice.png","","null"
"image-button-response","46","243870","0.0-9.0-2.6","18","Low_HMMActual","","","","","","null","","","","Images/WhiteBeadChoiceWrong.png","","null"
"image-button-response","47","244628","0.0-9.0-0.7","18","Low_HMMActual","","","","","","755.7999999523163","","","","Images/NewTrialBC.png","","2"
"image-button-response","48","244943","0.0-9.0-1.7","18","Low_HMMActual","","","","","","null","","","","Images/WhiteBeadChoice.png","","null"
"image-button-response","49","245446","0.0-9.0-2.7","18","Low_HMMActual","","","","","","null","","","","Images/WhiteBeadChoiceCorrect.png","","null"
"image-button-response","50","245645","0.0-9.0-0.8","18","Low_HMMActual","","","","","","198.79999995231628","","","","Images/NewTrialWC.png","","2"
"image-button-response","51","245947","0.0-9.0-1.8","18","Low_HMMActual","","","","","","null","","","","Images/WhiteBeadChoice.png","","null"
"image-button-response","52","246448","0.0-9.0-2.8","18","Low_HMMActual","","","","","","null","","","","Images/WhiteBeadChoiceCorrect.png","","null"
"image-button-response","53","246523","0.0-9.0-0.9","18","Low_HMMActual","","","","","","72.70000004768372","","","","Images/NewTrialWC.png","","2"
"image-button-response","54","246825","0.0-9.0-1.9","18","Low_HMMActual","","","","","","null","","","","Images/WhiteBeadChoice.png","","null"
"image-button-response","55","247329","0.0-9.0-2.9","18","Low_HMMActual","","","","","","null","","","","Images/WhiteBeadChoiceWrong.png","","null"
"html-keyboard-response","56","250192","0.0-10.0","18","Low_HMMActual","","","","","","2860.1999999284744","","","",""," ",""
"image-keyboard-response","57","252462","0.0-11.0","18","Low_HMMActual","","","","","","2269.399999976158","","","","tutorial/tutorial20.png"," ",""
"html-keyboard-response","58","261173","0.0-12.0","19","Low_HMMActual","","","","","","8708.100000023842","","","","<div class=""container"" style=""height:800px;width:800px;display:flex;flex-direction:column;justify-content:center;align-items:center;text-align:center;font-weight:normal;font-family:Arial;font-size:20px""><p>Loading episode&hellip;</p><div>"," ",""
"image-button-response","59","263465","0.0-13.0-0.0","19","Low_HMMActual","","","","","","2289.2000000476837","","","","Images/NoChoice.png","","3"
"image-button-response","60","263767","0.0-13.0-1.0","19","Low_HMMActual","","","","","","null","","","","Images/WhiteBeadChoice.png","","null"
"image-button-response","61","264268","0.0-13.0-2.0","19","Low_HMMActual","","","","","","null","","","","Images/WhiteBeadChoiceCorrect.png","","null"
"image-button-response","62","265194","0.0-13.0-0.1","19","Low_HMMActual","","","","","","924.6000000238419","","","","Images/NewTrialWC.png","","3"
"image-button-response","63","265496","0.0-13.0-1.1","19","Low_HMMActual","","","","","","null","","","","Images/WhiteBeadChoice.png","","null"
"image-button-response","64","266013","0.0-13.0-2.1","19","Low_HMMActual","","","","","","null","","","","Images/WhiteBeadChoiceCorrect.png","","null"
"image-button-response","65","266447","0.0-13.0-0.2","19","Low_HMMActual","","","","","","431.7000000476837","","","","Images/NewTrialWC.png","","2"
"image-button-response","66","266760","0.0-13.0-1.2","19","Low_HMMActual","","","","","","null","","","","Images/WhiteBeadChoice.png","","null"
"image-button-response","67","267271","0.0-13.0-2.2","19","Low_HMMActual","","","","","","null","","","","Images/WhiteBeadChoiceCorrect.png","","null"
"image-button-response","68","267894","0.0-13.0-0.3","19","Low_HMMActual","","","","","","620.6999999284744","","","","Images/NewTrialWC.png","","2"
"image-button-response","69","268201","0.0-13.0-1.3","19","Low_HMMActual","","","","","","null","","","","Images/WhiteBeadChoice.png","","null"
"image-button-response","70","268709","0.0-13.0-2.3","19","Low_HMMActual","","","","","","null","","","","Images/WhiteBeadChoiceCorrect.png","","null"
"image-button-response","71","269001","0.0-13.0-0.4","19","Low_HMMActual","","","","","","289.60000002384186","","","","Images/NewTrialWC.png","","2"
"image-button-response","72","269315","0.0-13.0-1.4","19","Low_HMMActual","","","","","","null","","","","Images/WhiteBeadChoice.png","","null"
"image-button-response","73","269823","0.0-13.0-2.4","19","Low_HMMActual","","","","","","null","","","","Images/WhiteBeadChoiceCorrect.png","","null"
"image-button-response","74","270476","0.0-13.0-0.5","19","Low_HMMActual","","","","","","651.1000000238419","","","","Images/NewTrialWC.png","","2"
"image-button-response","75","270792","0.0-13.0-1.5","19","Low_HMMActual","","","","","","null","","","","Images/WhiteBeadChoice.png","","null"
"image-button-response","76","271295","0.0-13.0-2.5","19","Low_HMMActual","","","","","","null","","","","Images/WhiteBeadChoiceWrong.png","","null"
"image-button-response","77","274134","0.0-13.0-0.6","19","Low_HMMActual","","","","","","2838.0999999046326","","","","Images/NewTrialBC.png","","0"
"image-button-response","78","274435","0.0-13.0-1.6","19","Low_HMMActual","","","","","","null","","","","Images/BlackBeadChoice.png","","null"
"image-button-response","79","274937","0.0-13.0-2.6","19","Low_HMMActual","","","","","","null","","","","Images/BlackBeadChoiceCorrect.png","","null"
"image-button-response","80","276463","0.0-13.0-0.7","19","Low_HMMActual","","","","","","1525","","","","Images/NewTrialBC.png","","3"
"image-button-response","81","276776","0.0-13.0-1.7","19","Low_HMMActual","","","","","","null","","","","Images/WhiteBeadChoice.png","","null"
"image-button-response","82","277278","0.0-13.0-2.7","19","Low_HMMActual","","","","","","null","","","","Images/WhiteBeadChoiceWrong.png","","null"
"image-button-response","83","278915","0.0-13.0-0.8","19","Low_HMMActual","","","","","","1635.7999999523163","","","","Images/NewTrialBC.png","","1"
"image-button-response","84","279216","0.0-13.0-1.8","19","Low_HMMActual","","","","","","null","","","","Images/BlackBeadChoice.png","","null"
"image-button-response","85","279717","0.0-13.0-2.8","19","Low_HMMActual","","","","","","null","","","","Images/BlackBeadChoiceCorrect.png","","null"
"image-button-response","86","280023","0.0-13.0-0.9","19","Low_HMMActual","","","","","","304.90000009536743","","","","Images/NewTrialBC.png","","0"
"image-button-response","87","280324","0.0-13.0-1.9","19","Low_HMMActual","","","","","","null","","","","Images/BlackBeadChoice.png","","null"
"image-button-response","88","280826","0.0-13.0-2.9","19","Low_HMMActual","","","","","","null","","","","Images/BlackBeadChoiceCorrect.png","","null"
"image-button-response","89","281028","0.0-13.0-0.10","19","Low_HMMActual","","","","","","201","","","","Images/NewTrialBC.png","","0"
"image-button-response","90","281329","0.0-13.0-1.10","19","Low_HMMActual","","","","","","null","","","","Images/BlackBeadChoice.png","","null"
"image-button-response","91","281830","0.0-13.0-2.10","19","Low_HMMActual","","","","","","null","","","","Images/BlackBeadChoiceWrong.png","","null"
"image-button-response","92","282938","0.0-13.0-0.11","19","Low_HMMActual","","","","","","1106.5","","","","Images/NewTrialWC.png","","1"
"image-button-response","93","283249","0.0-13.0-1.11","19","Low_HMMActual","","","","","","null","","","","Images/BlackBeadChoice.png","","null"
"image-button-response","94","283750","0.0-13.0-2.11","19","Low_HMMActual","","","","","","null","","","","Images/BlackBeadChoiceCorrect.png","","null"
"image-button-response","95","284486","0.0-13.0-0.12","19","Low_HMMActual","","","","","","736.1000000238419","","","","Images/NewTrialBC.png","","0"
"image-button-response","96","284788","0.0-13.0-1.12","19","Low_HMMActual","","","","","","null","","","","Images/BlackBeadChoice.png","","null"
"image-button-response","97","285290","0.0-13.0-2.12","19","Low_HMMActual","","","","","","null","","","","Images/BlackBeadChoiceWrong.png","","null"
"image-button-response","98","286308","0.0-13.0-0.13","19","Low_HMMActual","","","","","","1017.5999999046326","","","","Images/NewTrialWC.png","","2"
"image-button-response","99","286622","0.0-13.0-1.13","19","Low_HMMActual","","","","","","null","","","","Images/WhiteBeadChoice.png","","null"
"image-button-response","100","287128","0.0-13.0-2.13","19","Low_HMMActual","","","","","","null","","","","Images/WhiteBeadChoiceCorrect.png","","null"
"image-button-response","101","287491","0.0-13.0-0.14","19","Low_HMMActual","","","","","","360","","","","Images/NewTrialWC.png","","2"
"image-button-response","102","287792","0.0-13.0-1.14","19","Low_HMMActual","","","","","","null","","","","Images/WhiteBeadChoice.png","","null"
"image-button-response","103","288304","0.0-13.0-2.14","19","Low_HMMActual","","","","","","null","","","","Images/WhiteBeadChoiceCorrect.png","","null"
"image-button-response","104","288594","0.0-13.0-0.15","19","Low_HMMActual","","","","","","288.10000002384186","","","","Images/NewTrialWC.png","","2"
"image-button-response","105","288908","0.0-13.0-1.15","19","Low_HMMActual","","","","","","null","","","","Images/WhiteBeadChoice.png","","null"
"image-button-response","106","289418","0.0-13.0-2.15","19","Low_HMMActual","","","","","","null","","","","Images/WhiteBeadChoiceCorrect.png","","null"
"image-button-response","107","289744","0.0-13.0-0.16","19","Low_HMMActual","","","","","","323.89999997615814","","","","Images/NewTrialWC.png","","2"
"image-button-response","108","290050","0.0-13.0-1.16","19","Low_HMMActual","","","","","","null","","","","Images/WhiteBeadChoice.png","","null"
"image-button-response","109","290552","0.0-13.0-2.16","19","Low_HMMActual","","","","","","null","","","","Images/WhiteBeadChoiceWrong.png","","null"
"image-button-response","110","291479","0.0-13.0-0.17","19","Low_HMMActual","","","","","","925.6999999284744","","","","Images/NewTrialBC.png","","3"
"image-button-response","111","291781","0.0-13.0-1.17","19","Low_HMMActual","","","","","","null","","","","Images/WhiteBeadChoice.png","","null"
"image-button-response","112","292281","0.0-13.0-2.17","19","Low_HMMActual","","","","","","null","","","","Images/WhiteBeadChoiceWrong.png","","null"
"image-button-response","113","292776","0.0-13.0-0.18","19","Low_HMMActual","","","","","","493.90000009536743","","","","Images/NewTrialBC.png","","0"
"image-button-response","114","293077","0.0-13.0-1.18","19","Low_HMMActual","","","","","","null","","","","Images/BlackBeadChoice.png","","null"
"image-button-response","115","293580","0.0-13.0-2.18","19","Low_HMMActual","","","","","","null","","","","Images/BlackBeadChoiceCorrect.png","","null"
"image-button-response","116","294362","0.0-13.0-0.19","19","Low_HMMActual","","","","","","778.5","","","","Images/NewTrialBC.png","","0"
"image-button-response","117","294665","0.0-13.0-1.19","19","Low_HMMActual","","","","","","null","","","","Images/BlackBeadChoice.png","","null"
"image-button-response","118","295179","0.0-13.0-2.19","19","Low_HMMActual","","","","","","null","","","","Images/BlackBeadChoiceCorrect.png","","null"
"image-button-response","119","295896","0.0-13.0-0.20","19","Low_HMMActual","","","","","","716","","","","Images/NewTrialBC.png","","0"
"image-button-response","120","296202","0.0-13.0-1.20","19","Low_HMMActual","","","","","","null","","","","Images/BlackBeadChoice.png","","null"
"image-button-response","121","296714","0.0-13.0-2.20","19","Low_HMMActual","","","","","","null","","","","Images/BlackBeadChoiceCorrect.png","","null"
"image-button-response","122","297188","0.0-13.0-0.21","19","Low_HMMActual","","","","","","471.2000000476837","","","","Images/NewTrialBC.png","","0"
"image-button-response","123","297492","0.0-13.0-1.21","19","Low_HMMActual","","","","","","null","","","","Images/BlackBeadChoice.png","","null"
"image-button-response","124","297995","0.0-13.0-2.21","19","Low_HMMActual","","","","","","null","","","","Images/BlackBeadChoiceWrong.png","","null"
"image-button-response","125","299481","0.0-13.0-0.22","19","Low_HMMActual","","","","","","1484.7999999523163","","","","Images/NewTrialWC.png","","1"
"image-button-response","126","299791","0.0-13.0-1.22","19","Low_HMMActual","","","","","","null","","","","Images/BlackBeadChoice.png","","null"
"image-button-response","127","300301","0.0-13.0-2.22","19","Low_HMMActual","","","","","","null","","","","Images/BlackBeadChoiceCorrect.png","","null"
"image-button-response","128","301260","0.0-13.0-0.23","19","Low_HMMActual","","","","","","957.2999999523163","","","","Images/NewTrialBC.png","","1"
"image-button-response","129","301568","0.0-13.0-1.23","19","Low_HMMActual","","","","","","null","","","","Images/BlackBeadChoice.png","","null"
"image-button-response","130","302071","0.0-13.0-2.23","19","Low_HMMActual","","","","","","null","","","","Images/BlackBeadChoiceWrong.png","","null"
"image-button-response","131","302735","0.0-13.0-0.24","19","Low_HMMActual","","","","","","663.3999999761581","","","","Images/NewTrialWC.png","","2"
"image-button-response","132","303047","0.0-13.0-1.24","19","Low_HMMActual","","","","","","null","","","","Images/WhiteBeadChoice.png","","null"
"image-button-response","133","303550","0.0-13.0-2.24","19","Low_HMMActual","","","","","","null","","","","Images/WhiteBeadChoiceWrong.png","","null"
"image-button-response","134","304460","0.0-13.0-0.25","19","Low_HMMActual","","","","","","908.3999999761581","","","","Images/NewTrialBC.png","","3"
"image-button-response","135","304775","0.0-13.0-1.25","19","Low_HMMActual","","","","","","null","","","","Images/WhiteBeadChoice.png","","null"
"image-button-response","136","305291","0.0-13.0-2.25","19","Low_HMMActual","","","","","","null","","","","Images/WhiteBeadChoiceCorrect.png","","null"
"image-button-response","137","305837","0.0-13.0-0.26","19","Low_HMMActual","","","","","","542.8999999761581","","","","Images/NewTrialWC.png","","3"
"image-button-response","138","306142","0.0-13.0-1.26","19","Low_HMMActual","","","","","","null","","","","Images/WhiteBeadChoice.png","","null"
"image-button-response","139","306644","0.0-13.0-2.26","19","Low_HMMActual","","","","","","null","","","","Images/WhiteBeadChoiceWrong.png","","null"
"image-button-response","140","307166","0.0-13.0-0.27","19","Low_HMMActual","","","","","","520.5","","","","Images/NewTrialBC.png","","3"
"image-button-response","141","307479","0.0-13.0-1.27","19","Low_HMMActual","","","","","","null","","","","Images/WhiteBeadChoice.png","","null"
"image-button-response","142","307980","0.0-13.0-2.27","19","Low_HMMActual","","","","","","null","","","","Images/WhiteBeadChoiceWrong.png","","null"
"image-button-response","143","308460","0.0-13.0-0.28","19","Low_HMMActual","","","","","","478.89999997615814","","","","Images/NewTrialBC.png","","0"
"image-button-response","144","308774","0.0-13.0-1.28","19","Low_HMMActual","","","","","","null","","","","Images/BlackBeadChoice.png","","null"
"image-button-response","145","309284","0.0-13.0-2.28","19","Low_HMMActual","","","","","","null","","","","Images/BlackBeadChoiceWrong.png","","null"
"image-button-response","146","309919","0.0-13.0-0.29","19","Low_HMMActual","","","","","","632.5","","","","Images/NewTrialWC.png","","0"
"image-button-response","147","310233","0.0-13.0-1.29","19","Low_HMMActual","","","","","","null","","","","Images/BlackBeadChoice.png","","null"
"image-button-response","148","310740","0.0-13.0-2.29","19","Low_HMMActual","","","","","","null","","","","Images/BlackBeadChoiceCorrect.png","","null"
"image-button-response","149","311193","0.0-13.0-0.30","19","Low_HMMActual","","","","","","450.59999990463257","","","","Images/NewTrialBC.png","","0"
"image-button-response","150","311499","0.0-13.0-1.30","19","Low_HMMActual","","","","","","null","","","","Images/BlackBeadChoice.png","","null"
"image-button-response","151","312010","0.0-13.0-2.30","19","Low_HMMActual","","","","","","null","","","","Images/BlackBeadChoiceWrong.png","","null"
"image-button-response","152","312475","0.0-13.0-0.31","19","Low_HMMActual","","","","","","463.59999990463257","","","","Images/NewTrialWC.png","","1"
"image-button-response","153","312786","0.0-13.0-1.31","19","Low_HMMActual","","","","","","null","","","","Images/BlackBeadChoice.png","","null"
"image-button-response","154","313296","0.0-13.0-2.31","19","Low_HMMActual","","","","","","null","","","","Images/BlackBeadChoiceWrong.png","","null"
"image-button-response","155","315196","0.0-13.0-0.32","19","Low_HMMActual","","","","","","1899.3000000715256","","","","Images/NewTrialWC.png","","3"
"image-button-response","156","315509","0.0-13.0-1.32","19","Low_HMMActual","","","","","","null","","","","Images/WhiteBeadChoice.png","","null"
"image-button-response","157","316020","0.0-13.0-2.32","19","Low_HMMActual","","","","","","null","","","","Images/WhiteBeadChoiceCorrect.png","","null"
"image-button-response","158","316501","0.0-13.0-0.33","19","Low_HMMActual","","","","","","479.90000009536743","","","","Images/NewTrialWC.png","","2"
"image-button-response","159","316811","0.0-13.0-1.33","19","Low_HMMActual","","","","","","null","","","","Images/WhiteBeadChoice.png","","null"
"image-button-response","160","317316","0.0-13.0-2.33","19","Low_HMMActual","","","","","","null","","","","Images/WhiteBeadChoiceCorrect.png","","null"
"image-button-response","161","317622","0.0-13.0-0.34","19","Low_HMMActual","","","","","","303","","","","Images/NewTrialWC.png","","2"
"image-button-response","162","317935","0.0-13.0-1.34","19","Low_HMMActual","","","","","","null","","","","Images/WhiteBeadChoice.png","","null"
"image-button-response","163","318436","0.0-13.0-2.34","19","Low_HMMActual","","","","","","null","","","","Images/WhiteBeadChoiceWrong.png","","null"
"image-button-response","164","319097","0.0-13.0-0.35","19","Low_HMMActual","","","","","","661.1000000238419","","","","Images/NewTrialBC.png","","1"
"image-button-response","165","319399","0.0-13.0-1.35","19","Low_HMMActual","","","","","","null","","","","Images/BlackBeadChoice.png","","null"
"image-button-response","166","319905","0.0-13.0-2.35","19","Low_HMMActual","","","","","","null","","","","Images/BlackBeadChoiceWrong.png","","null"
"image-button-response","167","320983","0.0-13.0-0.36","19","Low_HMMActual","","","","","","1076.6999999284744","","","","Images/NewTrialWC.png","","3"
"image-button-response","168","321285","0.0-13.0-1.36","19","Low_HMMActual","","","","","","null","","","","Images/WhiteBeadChoice.png","","null"
"image-button-response","169","321792","0.0-13.0-2.36","19","Low_HMMActual","","","","","","null","","","","Images/WhiteBeadChoiceWrong.png","","null"
"image-button-response","170","322996","0.0-13.0-0.37","19","Low_HMMActual","","","","","","1201.3000000715256","","","","Images/NewTrialBC.png","","0"
"image-button-response","171","323311","0.0-13.0-1.37","19","Low_HMMActual","","","","","","null","","","","Images/BlackBeadChoice.png","","null"
"image-button-response","172","323822","0.0-13.0-2.37","19","Low_HMMActual","","","","","","null","","","","Images/BlackBeadChoiceCorrect.png","","null"
"image-button-response","173","324184","0.0-13.0-0.38","19","Low_HMMActual","","","","","","359.5","","","","Images/NewTrialBC.png","","0"
"image-button-response","174","324489","0.0-13.0-1.38","19","Low_HMMActual","","","","","","null","","","","Images/BlackBeadChoice.png","","null"
"image-button-response","175","325003","0.0-13.0-2.38","19","Low_HMMActual","","","","","","null","","","","Images/BlackBeadChoiceCorrect.png","","null"
"image-button-response","176","325355","0.0-13.0-0.39","19","Low_HMMActual","","","","","","351.3000000715256","","","","Images/NewTrialBC.png","","0"
"image-button-response","177","325665","0.0-13.0-1.39","19","Low_HMMActual","","","","","","null","","","","Images/BlackBeadChoice.png","","null"
"image-button-response","178","326168","0.0-13.0-2.39","19","Low_HMMActual","","","","","","null","","","","Images/BlackBeadChoiceWrong.png","","null"
"image-button-response","179","327347","0.0-13.0-0.40","19","Low_HMMActual","","","","","","1178.1999999284744","","","","Images/NewTrialWC.png","","1"
"image-button-response","180","327648","0.0-13.0-1.40","19","Low_HMMActual","","","","","","null","","","","Images/BlackBeadChoice.png","","null"
"image-button-response","181","328149","0.0-13.0-2.40","19","Low_HMMActual","","","","","","null","","","","Images/BlackBeadChoiceWrong.png","","null"
"image-button-response","182","328671","0.0-13.0-0.41","19","Low_HMMActual","","","","","","520.6000000238419","","","","Images/NewTrialWC.png","","2"
"image-button-response","183","328972","0.0-13.0-1.41","19","Low_HMMActual","","","","","","null","","","","Images/WhiteBeadChoice.png","","null"
"image-button-response","184","329473","0.0-13.0-2.41","19","Low_HMMActual","","","","","","null","","","","Images/WhiteBeadChoiceCorrect.png","","null"
"image-button-response","185","329856","0.0-13.0-0.42","19","Low_HMMActual","","","","","","382","","","","Images/NewTrialWC.png","","2"
"image-button-response","186","330157","0.0-13.0-1.42","19","Low_HMMActual","","","","","","null","","","","Images/WhiteBeadChoice.png","","null"
"image-button-response","187","330659","0.0-13.0-2.42","19","Low_HMMActual","","","","","","null","","","","Images/WhiteBeadChoiceWrong.png","","null"
"image-button-response","188","331036","0.0-13.0-0.43","19","Low_HMMActual","","","","","","376","","","","Images/NewTrialBC.png","","1"
"image-button-response","189","331351","0.0-13.0-1.43","19","Low_HMMActual","","","","","","null","","","","Images/BlackBeadChoice.png","","null"
"image-button-response","190","331866","0.0-13.0-2.43","19","Low_HMMActual","","","","","","null","","","","Images/BlackBeadChoiceWrong.png","","null"
"image-button-response","191","332243","0.0-13.0-0.44","19","Low_HMMActual","","","","","","375.6999999284744","","","","Images/NewTrialWC.png","","1"
"image-button-response","192","332559","0.0-13.0-1.44","19","Low_HMMActual","","","","","","null","","","","Images/BlackBeadChoice.png","","null"
"image-button-response","193","333071","0.0-13.0-2.44","19","Low_HMMActual","","","","","","null","","","","Images/BlackBeadChoiceCorrect.png","","null"
"image-button-response","194","333498","0.0-13.0-0.45","19","Low_HMMActual","","","","","","425.10000002384186","","","","Images/NewTrialBC.png","","0"
"image-button-response","195","333800","0.0-13.0-1.45","19","Low_HMMActual","","","","","","null","","","","Images/BlackBeadChoice.png","","null"
"image-button-response","196","334309","0.0-13.0-2.45","19","Low_HMMActual","","","","","","null","","","","Images/BlackBeadChoiceCorrect.png","","null"
"image-button-response","197","334631","0.0-13.0-0.46","19","Low_HMMActual","","","","","","320.89999997615814","","","","Images/NewTrialBC.png","","0"
"image-button-response","198","334943","0.0-13.0-1.46","19","Low_HMMActual","","","","","","null","","","","Images/BlackBeadChoice.png","","null"
"image-button-response","199","335454","0.0-13.0-2.46","19","Low_HMMActual","","","","","","null","","","","Images/BlackBeadChoiceWrong.png","","null"
"image-button-response","200","335838","0.0-13.0-0.47","19","Low_HMMActual","","","","","","381","","","","Images/NewTrialWC.png","","0"
"image-button-response","201","336150","0.0-13.0-1.47","19","Low_HMMActual","","","","","","null","","","","Images/BlackBeadChoice.png","","null"
"image-button-response","202","336653","0.0-13.0-2.47","19","Low_HMMActual","","","","","","null","","","","Images/BlackBeadChoiceWrong.png","","null"
"image-button-response","203","337016","0.0-13.0-0.48","19","Low_HMMActual","","","","","","361.5","","","","Images/NewTrialWC.png","","2"
"image-button-response","204","337316","0.0-13.0-1.48","19","Low_HMMActual","","","","","","null","","","","Images/WhiteBeadChoice.png","","null"
"image-button-response","205","337817","0.0-13.0-2.48","19","Low_HMMActual","","","","","","null","","","","Images/WhiteBeadChoiceCorrect.png","","null"
"image-button-response","206","338143","0.0-13.0-0.49","19","Low_HMMActual","","","","","","324.7000000476837","","","","Images/NewTrialWC.png","","2"
"image-button-response","207","338445","0.0-13.0-1.49","19","Low_HMMActual","","","","","","null","","","","Images/WhiteBeadChoice.png","","null"
"image-button-response","208","338947","0.0-13.0-2.49","19","Low_HMMActual","","","","","","null","","","","Images/WhiteBeadChoiceCorrect.png","","null"
"image-button-response","209","339116","0.0-13.0-0.50","19","Low_HMMActual","","","","","","168.60000002384186","","","","Images/NewTrialWC.png","","2"
"image-button-response","210","339419","0.0-13.0-1.50","19","Low_HMMActual","","","","","","null","","","","Images/WhiteBeadChoice.png","","null"
"image-button-response","211","339920","0.0-13.0-2.50","19","Low_HMMActual","","","","","","null","","","","Images/WhiteBeadChoiceWrong.png","","null"
"image-button-response","212","340314","0.0-13.0-0.51","19","Low_HMMActual","","","","","","392.7000000476837","","","","Images/NewTrialBC.png","","3"
"image-button-response","213","340624","0.0-13.0-1.51","19","Low_HMMActual","","","","","","null","","","","Images/WhiteBeadChoice.png","","null"
"image-button-response","214","341128","0.0-13.0-2.51","19","Low_HMMActual","","","","","","null","","","","Images/WhiteBeadChoiceWrong.png","","null"
"image-button-response","215","341462","0.0-13.0-0.52","19","Low_HMMActual","","","","","","333.7000000476837","","","","Images/NewTrialBC.png","","0"
"image-button-response","216","341763","0.0-13.0-1.52","19","Low_HMMActual","","","","","","null","","","","Images/BlackBeadChoice.png","","null"
"image-button-response","217","342264","0.0-13.0-2.52","19","Low_HMMActual","","","","","","null","","","","Images/BlackBeadChoiceCorrect.png","","null"
"image-button-response","218","342436","0.0-13.0-0.53","19","Low_HMMActual","","","","","","170.89999997615814","","","","Images/NewTrialBC.png","","0"
"image-button-response","219","342737","0.0-13.0-1.53","19","Low_HMMActual","","","","","","null","","","","Images/BlackBeadChoice.png","","null"
"image-button-response","220","343241","0.0-13.0-2.53","19","Low_HMMActual","","","","","","null","","","","Images/BlackBeadChoiceWrong.png","","null"
"image-button-response","221","343910","0.0-13.0-0.54","19","Low_HMMActual","","","","","","667.9000000953674","","","","Images/NewTrialWC.png","","0"
"image-button-response","222","344211","0.0-13.0-1.54","19","Low_HMMActual","","","","","","null","","","","Images/BlackBeadChoice.png","","null"
"image-button-response","223","344713","0.0-13.0-2.54","19","Low_HMMActual","","","","","","null","","","","Images/BlackBeadChoiceCorrect.png","","null"
"image-button-response","224","345195","0.0-13.0-0.55","19","Low_HMMActual","","","","","","480.89999997615814","","","","Images/NewTrialBC.png","","0"
"image-button-response","225","345496","0.0-13.0-1.55","19","Low_HMMActual","","","","","","null","","","","Images/BlackBeadChoice.png","","null"
"image-button-response","226","345997","0.0-13.0-2.55","19","Low_HMMActual","","","","","","null","","","","Images/BlackBeadChoiceCorrect.png","","null"
"image-button-response","227","346389","0.0-13.0-0.56","19","Low_HMMActual","","","","","","390.8000000715256","","","","Images/NewTrialBC.png","","0"
"image-button-response","228","346690","0.0-13.0-1.56","19","Low_HMMActual","","","","","","null","","","","Images/BlackBeadChoice.png","","null"
"image-button-response","229","347192","0.0-13.0-2.56","19","Low_HMMActual","","","","","","null","","","","Images/BlackBeadChoiceCorrect.png","","null"
"image-button-response","230","347555","0.0-13.0-0.57","19","Low_HMMActual","","","","","","361.8000000715256","","","","Images/NewTrialBC.png","","0"
"image-button-response","231","347857","0.0-13.0-1.57","19","Low_HMMActual","","","","","","null","","","","Images/BlackBeadChoice.png","","null"
"image-button-response","232","348358","0.0-13.0-2.57","19","Low_HMMActual","","","","","","null","","","","Images/BlackBeadChoiceCorrect.png","","null"
"image-button-response","233","348796","0.0-13.0-0.58","19","Low_HMMActual","","","","","","435.1999999284744","","","","Images/NewTrialBC.png","","0"
"image-button-response","234","349097","0.0-13.0-1.58","19","Low_HMMActual","","","","","","null","","","","Images/BlackBeadChoice.png","","null"
"image-button-response","235","349599","0.0-13.0-2.58","19","Low_HMMActual","","","","","","null","","","","Images/BlackBeadChoiceCorrect.png","","null"
"image-button-response","236","350195","0.0-13.0-0.59","19","Low_HMMActual","","","","","","594.6000000238419","","","","Images/NewTrialBC.png","","0"
"image-button-response","237","350497","0.0-13.0-1.59","19","Low_HMMActual","","","","","","null","","","","Images/BlackBeadChoice.png","","null"
"image-button-response","238","350999","0.0-13.0-2.59","19","Low_HMMActual","","","","","","null","","","","Images/BlackBeadChoiceWrong.png","","null"
"image-button-response","239","351453","0.0-13.0-0.60","19","Low_HMMActual","","","","","","451.60000002384186","","","","Images/NewTrialWC.png","","1"
"image-button-response","240","351754","0.0-13.0-1.60","19","Low_HMMActual","","","","","","null","","","","Images/BlackBeadChoice.png","","null"
"image-button-response","241","352255","0.0-13.0-2.60","19","Low_HMMActual","","","","","","null","","","","Images/BlackBeadChoiceWrong.png","","null"
"image-button-response","242","352544","0.0-13.0-0.61","19","Low_HMMActual","","","","","","287.90000009536743","","","","Images/NewTrialWC.png","","3"
"image-button-response","243","352845","0.0-13.0-1.61","19","Low_HMMActual","","","","","","null","","","","Images/WhiteBeadChoice.png","","null"
"image-button-response","244","353348","0.0-13.0-2.61","19","Low_HMMActual","","","","","","null","","","","Images/WhiteBeadChoiceCorrect.png","","null"
"image-button-response","245","353451","0.0-13.0-0.62","19","Low_HMMActual","","","","","","100","","","","Images/NewTrialWC.png","","2"
"image-button-response","246","353766","0.0-13.0-1.62","19","Low_HMMActual","","","","","","null","","","","Images/WhiteBeadChoice.png","","null"
"image-button-response","247","354275","0.0-13.0-2.62","19","Low_HMMActual","","","","","","null","","","","Images/WhiteBeadChoiceWrong.png","","null"
"image-button-response","248","355001","0.0-13.0-0.63","19","Low_HMMActual","","","","","","723.7999999523163","","","","Images/NewTrialBC.png","","0"
"image-button-response","249","355317","0.0-13.0-1.63","19","Low_HMMActual","","","","","","null","","","","Images/BlackBeadChoice.png","","null"
"image-button-response","250","355824","0.0-13.0-2.63","19","Low_HMMActual","","","","","","null","","","","Images/BlackBeadChoiceCorrect.png","","null"
"image-button-response","251","356204","0.0-13.0-0.64","19","Low_HMMActual","","","","","","379","","","","Images/NewTrialBC.png","","0"
"image-button-response","252","356519","0.0-13.0-1.64","19","Low_HMMActual","","","","","","null","","","","Images/BlackBeadChoice.png","","null"
"image-button-response","253","357021","0.0-13.0-2.64","19","Low_HMMActual","","","","","","null","","","","Images/BlackBeadChoiceWrong.png","","null"
"image-button-response","254","357388","0.0-13.0-0.65","19","Low_HMMActual","","","","","","366.60000002384186","","","","Images/NewTrialWC.png","","1"
"image-button-response","255","357690","0.0-13.0-1.65","19","Low_HMMActual","","","","","","null","","","","Images/BlackBeadChoice.png","","null"
"image-button-response","256","358193","0.0-13.0-2.65","19","Low_HMMActual","","","","","","null","","","","Images/BlackBeadChoiceCorrect.png","","null"
"image-button-response","257","358469","0.0-13.0-0.66","19","Low_HMMActual","","","","","","275.6999999284744","","","","Images/NewTrialBC.png","","0"
"image-button-response","258","358777","0.0-13.0-1.66","19","Low_HMMActual","","","","","","null","","","","Images/BlackBeadChoice.png","","null"
"image-button-response","259","359287","0.0-13.0-2.66","19","Low_HMMActual","","","","","","null","","","","Images/BlackBeadChoiceCorrect.png","","null"
"image-button-response","260","359667","0.0-13.0-0.67","19","Low_HMMActual","","","","","","377.10000002384186","","","","Images/NewTrialBC.png","","0"
"image-button-response","261","359968","0.0-13.0-1.67","19","Low_HMMActual","","","","","","null","","","","Images/BlackBeadChoice.png","","null"
"image-button-response","262","360476","0.0-13.0-2.67","19","Low_HMMActual","","","","","","null","","","","Images/BlackBeadChoiceCorrect.png","","null"
"image-button-response","263","360869","0.0-13.0-0.68","19","Low_HMMActual","","","","","","391.60000002384186","","","","Images/NewTrialBC.png","","0"
"image-button-response","264","361177","0.0-13.0-1.68","19","Low_HMMActual","","","","","","null","","","","Images/BlackBeadChoice.png","","null"
"image-button-response","265","361680","0.0-13.0-2.68","19","Low_HMMActual","","","","","","null","","","","Images/BlackBeadChoiceWrong.png","","null"
"image-button-response","266","362404","0.0-13.0-0.69","19","Low_HMMActual","","","","","","722.8000000715256","","","","Images/NewTrialWC.png","","3"
"image-button-response","267","362706","0.0-13.0-1.69","19","Low_HMMActual","","","","","","null","","","","Images/WhiteBeadChoice.png","","null"
"image-button-response","268","363212","0.0-13.0-2.69","19","Low_HMMActual","","","","","","null","","","","Images/WhiteBeadChoiceWrong.png","","null"
"image-button-response","269","364663","0.0-13.0-0.70","19","Low_HMMActual","","","","","","1450.3000000715256","","","","Images/NewTrialBC.png","","0"
"image-button-response","270","364966","0.0-13.0-1.70","19","Low_HMMActual","","","","","","null","","","","Images/BlackBeadChoice.png","","null"
"image-button-response","271","365477","0.0-13.0-2.70","19","Low_HMMActual","","","","","","null","","","","Images/BlackBeadChoiceWrong.png","","null"
"image-button-response","272","365853","0.0-13.0-0.71","19","Low_HMMActual","","","","","","373.60000002384186","","","","Images/NewTrialWC.png","","0"
"image-button-response","273","366167","0.0-13.0-1.71","19","Low_HMMActual","","","","","","null","","","","Images/BlackBeadChoice.png","","null"
"image-button-response","274","366669","0.0-13.0-2.71","19","Low_HMMActual","","","","","","null","","","","Images/BlackBeadChoiceCorrect.png","","null"
"image-button-response","275","367103","0.0-13.0-0.72","19","Low_HMMActual","","","","","","432.3000000715256","","","","Images/NewTrialBC.png","","0"
"image-button-response","276","367409","0.0-13.0-1.72","19","Low_HMMActual","","","","","","null","","","","Images/BlackBeadChoice.png","","null"
"image-button-response","277","367921","0.0-13.0-2.72","19","Low_HMMActual","","","","","","null","","","","Images/BlackBeadChoiceCorrect.png","","null"
"image-button-response","278","368657","0.0-13.0-0.73","19","Low_HMMActual","","","","","","733.5","","","","Images/NewTrialBC.png","","1"
"image-button-response","279","368960","0.0-13.0-1.73","19","Low_HMMActual","","","","","","null","","","","Images/BlackBeadChoice.png","","null"
"image-button-response","280","369470","0.0-13.0-2.73","19","Low_HMMActual","","","","","","null","","","","Images/BlackBeadChoiceCorrect.png","","null"
"image-button-response","281","369820","0.0-13.0-0.74","19","Low_HMMActual","","","","","","348.60000002384186","","","","Images/NewTrialBC.png","","1"
"image-button-response","282","370124","0.0-13.0-1.74","19","Low_HMMActual","","","","","","null","","","","Images/BlackBeadChoice.png","","null"
"image-button-response","283","370632","0.0-13.0-2.74","19","Low_HMMActual","","","","","","null","","","","Images/BlackBeadChoiceCorrect.png","","null"
"image-button-response","284","370986","0.0-13.0-0.75","19","Low_HMMActual","","","","","","352.1999999284744","","","","Images/NewTrialBC.png","","0"
"image-button-response","285","371291","0.0-13.0-1.75","19","Low_HMMActual","","","","","","null","","","","Images/BlackBeadChoice.png","","null"
"image-button-response","286","371794","0.0-13.0-2.75","19","Low_HMMActual","","","","","","null","","","","Images/BlackBeadChoiceCorrect.png","","null"
"image-button-response","287","372262","0.0-13.0-0.76","19","Low_HMMActual","","","","","","467","","","","Images/NewTrialBC.png","","1"
"image-button-response","288","372564","0.0-13.0-1.76","19","Low_HMMActual","","","","","","null","","","","Images/BlackBeadChoice.png","","null"
"image-button-response","289","373067","0.0-13.0-2.76","19","Low_HMMActual","","","","","","null","","","","Images/BlackBeadChoiceCorrect.png","","null"
"image-button-response","290","373766","0.0-13.0-0.77","19","Low_HMMActual","","","","","","698.4000000953674","","","","Images/NewTrialBC.png","","1"
"image-button-response","291","374070","0.0-13.0-1.77","19","Low_HMMActual","","","","","","null","","","","Images/BlackBeadChoice.png","","null"
"image-button-response","292","374572","0.0-13.0-2.77","19","Low_HMMActual","","","","","","null","","","","Images/BlackBeadChoiceWrong.png","","null"
"image-button-response","293","375449","0.0-13.0-0.78","19","Low_HMMActual","","","","","","876.8000000715256","","","","Images/NewTrialWC.png","","3"
"image-button-response","294","375751","0.0-13.0-1.78","19","Low_HMMActual","","","","","","null","","","","Images/WhiteBeadChoice.png","","null"
"image-button-response","295","376261","0.0-13.0-2.78","19","Low_HMMActual","","","","","","null","","","","Images/WhiteBeadChoiceWrong.png","","null"
"image-button-response","296","377531","0.0-13.0-0.79","19","Low_HMMActual","","","","","","1266.3000000715256","","","","Images/NewTrialBC.png","","3"
"image-button-response","297","377846","0.0-13.0-1.79","19","Low_HMMActual","","","","","","null","","","","Images/WhiteBeadChoice.png","","null"
"image-button-response","298","378348","0.0-13.0-2.79","19","Low_HMMActual","","","","","","null","","","","Images/WhiteBeadChoiceWrong.png","","null"
"image-button-response","299","378667","0.0-13.0-0.80","19","Low_HMMActual","","","","","","318","","","","Images/NewTrialBC.png","","0"
"image-button-response","300","378968","0.0-13.0-1.80","19","Low_HMMActual","","","","","","null","","","","Images/BlackBeadChoice.png","","null"
"image-button-response","301","379469","0.0-13.0-2.80","19","Low_HMMActual","","","","","","null","","","","Images/BlackBeadChoiceWrong.png","","null"
"image-button-response","302","379936","0.0-13.0-0.81","19","Low_HMMActual","","","","","","466.89999997615814","","","","Images/NewTrialWC.png","","0"
"image-button-response","303","380238","0.0-13.0-1.81","19","Low_HMMActual","","","","","","null","","","","Images/BlackBeadChoice.png","","null"
"image-button-response","304","380747","0.0-13.0-2.81","19","Low_HMMActual","","","","","","470","","","","Images/BlackBeadChoiceWrong.png","","3"
"image-button-response","305","381796","0.0-13.0-0.82","19","Low_HMMActual","","","","","","1047.6000000238419","","","","Images/NewTrialWC.png","","3"
"image-button-response","306","382098","0.0-13.0-1.82","19","Low_HMMActual","","","","","","null","","","","Images/WhiteBeadChoice.png","","null"
"image-button-response","307","382608","0.0-13.0-2.82","19","Low_HMMActual","","","","","","null","","","","Images/WhiteBeadChoiceWrong.png","","null"
"image-button-response","308","382897","0.0-13.0-0.83","19","Low_HMMActual","","","","","","287.8000000715256","","","","Images/NewTrialBC.png","","3"
"image-button-response","309","383214","0.0-13.0-1.83","19","Low_HMMActual","","","","","","null","","","","Images/WhiteBeadChoice.png","","null"
"image-button-response","310","383716","0.0-13.0-2.83","19","Low_HMMActual","","","","","","null","","","","Images/WhiteBeadChoiceWrong.png","","null"
"image-button-response","311","384108","0.0-13.0-0.84","19","Low_HMMActual","","","","","","391.2000000476837","","","","Images/NewTrialBC.png","","0"
"image-button-response","312","384425","0.0-13.0-1.84","19","Low_HMMActual","","","","","","null","","","","Images/BlackBeadChoice.png","","null"
"image-button-response","313","384926","0.0-13.0-2.84","19","Low_HMMActual","","","","","","null","","","","Images/BlackBeadChoiceCorrect.png","","null"
"image-button-response","314","385290","0.0-13.0-0.85","19","Low_HMMActual","","","","","","362.40000009536743","","","","Images/NewTrialBC.png","","0"
"image-button-response","315","385605","0.0-13.0-1.85","19","Low_HMMActual","","","","","","null","","","","Images/BlackBeadChoice.png","","null"
"image-button-response","316","386112","0.0-13.0-2.85","19","Low_HMMActual","","","","","","null","","","","Images/BlackBeadChoiceCorrect.png","","null"
"image-button-response","317","386395","0.0-13.0-0.86","19","Low_HMMActual","","","","","","282","","","","Images/NewTrialBC.png","","0"
"image-button-response","318","386703","0.0-13.0-1.86","19","Low_HMMActual","","","","","","null","","","","Images/BlackBeadChoice.png","","null"
"image-button-response","319","387213","0.0-13.0-2.86","19","Low_HMMActual","","","","","","null","","","","Images/BlackBeadChoiceWrong.png","","null"
"image-button-response","320","387716","0.0-13.0-0.87","19","Low_HMMActual","","","","","","502.2999999523163","","","","Images/NewTrialWC.png","","0"
"image-button-response","321","388030","0.0-13.0-1.87","19","Low_HMMActual","","","","","","null","","","","Images/BlackBeadChoice.png","","null"
"image-button-response","322","388534","0.0-13.0-2.87","19","Low_HMMActual","","","","","","null","","","","Images/BlackBeadChoiceWrong.png","","null"
"image-button-response","323","389019","0.0-13.0-0.88","19","Low_HMMActual","","","","","","484.1999999284744","","","","Images/NewTrialWC.png","","2"
"image-button-response","324","389320","0.0-13.0-1.88","19","Low_HMMActual","","","","","","null","","","","Images/WhiteBeadChoice.png","","null"
"image-button-response","325","389830","0.0-13.0-2.88","19","Low_HMMActual","","","","","","null","","","","Images/WhiteBeadChoiceCorrect.png","","null"
"image-button-response","326","390168","0.0-13.0-0.89","19","Low_HMMActual","","","","","","335.5","","","","Images/NewTrialWC.png","","2"
"image-button-response","327","390480","0.0-13.0-1.89","19","Low_HMMActual","","","","","","null","","","","Images/WhiteBeadChoice.png","","null"
"image-button-response","328","390991","0.0-13.0-2.89","19","Low_HMMActual","","","","","","null","","","","Images/WhiteBeadChoiceWrong.png","","null"
"image-button-response","329","391426","0.0-13.0-0.90","19","Low_HMMActual","","","","","","432.10000002384186","","","","Images/NewTrialBC.png","","3"
"image-button-response","330","391736","0.0-13.0-1.90","19","Low_HMMActual","","","","","","null","","","","Images/WhiteBeadChoice.png","","null"
"image-button-response","331","392238","0.0-13.0-2.90","19","Low_HMMActual","","","","","","null","","","","Images/WhiteBeadChoiceWrong.png","","null"
"image-button-response","332","392856","0.0-13.0-0.91","19","Low_HMMActual","","","","","","617.3999999761581","","","","Images/NewTrialBC.png","","0"
"image-button-response","333","393170","0.0-13.0-1.91","19","Low_HMMActual","","","","","","null","","","","Images/BlackBeadChoice.png","","null"
"image-button-response","334","393674","0.0-13.0-2.91","19","Low_HMMActual","","","","","","null","","","","Images/BlackBeadChoiceCorrect.png","","null"
"image-button-response","335","394044","0.0-13.0-0.92","19","Low_HMMActual","","","","","","367.40000009536743","","","","Images/NewTrialBC.png","","0"
"image-button-response","336","394345","0.0-13.0-1.92","19","Low_HMMActual","","","","","","null","","","","Images/BlackBeadChoice.png","","null"
"image-button-response","337","394846","0.0-13.0-2.92","19","Low_HMMActual","","","","","","null","","","","Images/BlackBeadChoiceWrong.png","","null"
"image-button-response","338","395508","0.0-13.0-0.93","19","Low_HMMActual","","","","","","661.5","","","","Images/NewTrialWC.png","","1"
"image-button-response","339","395821","0.0-13.0-1.93","19","Low_HMMActual","","","","","","null","","","","Images/BlackBeadChoice.png","","null"
"image-button-response","340","396323","0.0-13.0-2.93","19","Low_HMMActual","","","","","","null","","","","Images/BlackBeadChoiceWrong.png","","null"
"image-button-response","341","396871","0.0-13.0-0.94","19","Low_HMMActual","","","","","","547.6000000238419","","","","Images/NewTrialWC.png","","2"
"image-button-response","342","397173","0.0-13.0-1.94","19","Low_HMMActual","","","","","","null","","","","Images/WhiteBeadChoice.png","","null"
"image-button-response","343","397676","0.0-13.0-2.94","19","Low_HMMActual","","","","","","null","","","","Images/WhiteBeadChoiceWrong.png","","null"
"image-button-response","344","398384","0.0-13.0-0.95","19","Low_HMMActual","","","","","","707.6999999284744","","","","Images/NewTrialBC.png","","0"
"image-button-response","345","398691","0.0-13.0-1.95","19","Low_HMMActual","","","","","","null","","","","Images/BlackBeadChoice.png","","null"
"image-button-response","346","399193","0.0-13.0-2.95","19","Low_HMMActual","","","","","","null","","","","Images/BlackBeadChoiceCorrect.png","","null"
"image-button-response","347","400259","0.0-13.0-0.96","19","Low_HMMActual","","","","","","1062.3999999761581","","","","Images/NewTrialBC.png","","1"
"image-button-response","348","400560","0.0-13.0-1.96","19","Low_HMMActual","","","","","","null","","","","Images/BlackBeadChoice.png","","null"
"image-button-response","349","401064","0.0-13.0-2.96","19","Low_HMMActual","","","","","","null","","","","Images/BlackBeadChoiceCorrect.png","","null"
"image-button-response","350","401398","0.0-13.0-0.97","19","Low_HMMActual","","","","","","332.2999999523163","","","","Images/NewTrialBC.png","","0"
"image-button-response","351","401709","0.0-13.0-1.97","19","Low_HMMActual","","","","","","null","","","","Images/BlackBeadChoice.png","","null"
"image-button-response","352","402211","0.0-13.0-2.97","19","Low_HMMActual","","","","","","null","","","","Images/BlackBeadChoiceCorrect.png","","null"
"image-button-response","353","402572","0.0-13.0-0.98","19","Low_HMMActual","","","","","","357.2999999523163","","","","Images/NewTrialBC.png","","0"
"image-button-response","354","402887","0.0-13.0-1.98","19","Low_HMMActual","","","","","","null","","","","Images/BlackBeadChoice.png","","null"
"image-button-response","355","403389","0.0-13.0-2.98","19","Low_HMMActual","","","","","","null","","","","Images/BlackBeadChoiceWrong.png","","null"
"image-button-response","356","403774","0.0-13.0-0.99","19","Low_HMMActual","","","","","","385","","","","Images/NewTrialWC.png","","3"
"image-button-response","357","404079","0.0-13.0-1.99","19","Low_HMMActual","","","","","","null","","","","Images/WhiteBeadChoice.png","","null"
"image-button-response","358","404582","0.0-13.0-2.99","19","Low_HMMActual","","","","","","null","","","","Images/WhiteBeadChoiceWrong.png","","null"
"image-button-response","359","404963","0.0-13.0-0.100","19","Low_HMMActual","","","","","","380.5","","","","Images/NewTrialBC.png","","0"
"image-button-response","360","405270","0.0-13.0-1.100","19","Low_HMMActual","","","","","","null","","","","Images/BlackBeadChoice.png","","null"
"image-button-response","361","405779","0.0-13.0-2.100","19","Low_HMMActual","","","","","","null","","","","Images/BlackBeadChoiceWrong.png","","null"
"image-button-response","362","406729","0.0-13.0-0.101","19","Low_HMMActual","","","","","","946.2000000476837","","","","Images/NewTrialWC.png","","0"
"image-button-response","363","407041","0.0-13.0-1.101","19","Low_HMMActual","","","","","","null","","","","Images/BlackBeadChoice.png","","null"
"image-button-response","364","407542","0.0-13.0-2.101","19","Low_HMMActual","","","","","","null","","","","Images/BlackBeadChoiceWrong.png","","null"
"image-button-response","365","407885","0.0-13.0-0.102","19","Low_HMMActual","","","","","","341.59999990463257","","","","Images/NewTrialWC.png","","2"
"image-button-response","366","408188","0.0-13.0-1.102","19","Low_HMMActual","","","","","","null","","","","Images/WhiteBeadChoice.png","","null"
"image-button-response","367","408696","0.0-13.0-2.102","19","Low_HMMActual","","","","","","null","","","","Images/WhiteBeadChoiceCorrect.png","","null"
"image-button-response","368","409004","0.0-13.0-0.103","19","Low_HMMActual","","","","","","305","","","","Images/NewTrialWC.png","","2"
"image-button-response","369","409318","0.0-13.0-1.103","19","Low_HMMActual","","","","","","null","","","","Images/WhiteBeadChoice.png","","null"
"image-button-response","370","409820","0.0-13.0-2.103","19","Low_HMMActual","","","","","","null","","","","Images/WhiteBeadChoiceWrong.png","","null"
"image-button-response","371","410224","0.0-13.0-0.104","19","Low_HMMActual","","","","","","403.89999997615814","","","","Images/NewTrialBC.png","","0"
"image-button-response","372","410533","0.0-13.0-1.104","19","Low_HMMActual","","","","","","null","","","","Images/BlackBeadChoice.png","","null"
"image-button-response","373","411034","0.0-13.0-2.104","19","Low_HMMActual","","","","","","null","","","","Images/BlackBeadChoiceWrong.png","","null"
"image-button-response","374","411503","0.0-13.0-0.105","19","Low_HMMActual","","","","","","466.90000009536743","","","","Images/NewTrialWC.png","","3"
"image-button-response","375","411807","0.0-13.0-1.105","19","Low_HMMActual","","","","","","null","","","","Images/WhiteBeadChoice.png","","null"
"image-button-response","376","412315","0.0-13.0-2.105","19","Low_HMMActual","","","","","","null","","","","Images/WhiteBeadChoiceCorrect.png","","null"
"image-button-response","377","412830","0.0-13.0-0.106","19","Low_HMMActual","","","","","","512.1000000238419","","","","Images/NewTrialWC.png","","3"
"image-button-response","378","413137","0.0-13.0-1.106","19","Low_HMMActual","","","","","","null","","","","Images/WhiteBeadChoice.png","","null"
"image-button-response","379","413646","0.0-13.0-2.106","19","Low_HMMActual","","","","","","null","","","","Images/WhiteBeadChoiceCorrect.png","","null"
"image-button-response","380","414405","0.0-13.0-0.107","19","Low_HMMActual","","","","","","755.5","","","","Images/NewTrialWC.png","","3"
"image-button-response","381","414713","0.0-13.0-1.107","19","Low_HMMActual","","","","","","null","","","","Images/WhiteBeadChoice.png","","null"
"image-button-response","382","415223","0.0-13.0-2.107","19","Low_HMMActual","","","","","","null","","","","Images/WhiteBeadChoiceCorrect.png","","null"
"image-button-response","383","415599","0.0-13.0-0.108","19","Low_HMMActual","","","","","","372.40000009536743","","","","Images/NewTrialWC.png","","3"
"image-button-response","384","415905","0.0-13.0-1.108","19","Low_HMMActual","","","","","","null","","","","Images/WhiteBeadChoice.png","","null"
"image-button-response","385","416420","0.0-13.0-2.108","19","Low_HMMActual","","","","","","null","","","","Images/WhiteBeadChoiceCorrect.png","","null"
"image-button-response","386","416585","0.0-13.0-0.109","19","Low_HMMActual","","","","","","161.10000002384186","","","","Images/NewTrialWC.png","","3"
"image-button-response","387","416896","0.0-13.0-1.109","19","Low_HMMActual","","","","","","null","","","","Images/WhiteBeadChoice.png","","null"
"image-button-response","388","417402","0.0-13.0-2.109","19","Low_HMMActual","","","","","","null","","","","Images/WhiteBeadChoiceCorrect.png","","null"
"image-button-response","389","417698","0.0-13.0-0.110","19","Low_HMMActual","","","","","","294.8000000715256","","","","Images/NewTrialWC.png","","3"
"image-button-response","390","418002","0.0-13.0-1.110","19","Low_HMMActual","","","","","","null","","","","Images/WhiteBeadChoice.png","","null"
"image-button-response","391","418505","0.0-13.0-2.110","19","Low_HMMActual","","","","","","null","","","","Images/WhiteBeadChoiceWrong.png","","null"
"image-button-response","392","419026","0.0-13.0-0.111","19","Low_HMMActual","","","","","","520.2000000476837","","","","Images/NewTrialBC.png","","1"
"image-button-response","393","419327","0.0-13.0-1.111","19","Low_HMMActual","","","","","","null","","","","Images/BlackBeadChoice.png","","null"
"image-button-response","394","419831","0.0-13.0-2.111","19","Low_HMMActual","","","","","","null","","","","Images/BlackBeadChoiceCorrect.png","","null"
"image-button-response","395","420117","0.0-13.0-0.112","19","Low_HMMActual","","","","","","279.60000002384186","","","","Images/NewTrialBC.png","","0"
"image-button-response","396","420429","0.0-13.0-1.112","19","Low_HMMActual","","","","","","null","","","","Images/BlackBeadChoice.png","","null"
"image-button-response","397","420940","0.0-13.0-2.112","19","Low_HMMActual","","","","","","null","","","","Images/BlackBeadChoiceWrong.png","","null"
"image-button-response","398","421412","0.0-13.0-0.113","19","Low_HMMActual","","","","","","470.60000002384186","","","","Images/NewTrialWC.png","","1"
"image-button-response","399","421714","0.0-13.0-1.113","19","Low_HMMActual","","","","","","null","","","","Images/BlackBeadChoice.png","","null"
"image-button-response","400","422216","0.0-13.0-2.113","19","Low_HMMActual","","","","","","null","","","","Images/BlackBeadChoiceWrong.png","","null"
"image-button-response","401","422724","0.0-13.0-0.114","19","Low_HMMActual","","","","","","506.89999997615814","","","","Images/NewTrialWC.png","","2"
"image-button-response","402","423030","0.0-13.0-1.114","19","Low_HMMActual","","","","","","null","","","","Images/WhiteBeadChoice.png","","null"
"image-button-response","403","423541","0.0-13.0-2.114","19","Low_HMMActual","","","","","","null","","","","Images/WhiteBeadChoiceCorrect.png","","null"
"image-button-response","404","423964","0.0-13.0-0.115","19","Low_HMMActual","","","","","","422.10000002384186","","","","Images/NewTrialWC.png","","2"
"image-button-response","405","424268","0.0-13.0-1.115","19","Low_HMMActual","","","","","","null","","","","Images/WhiteBeadChoice.png","","null"
"image-button-response","406","424779","0.0-13.0-2.115","19","Low_HMMActual","","","","","","null","","","","Images/WhiteBeadChoiceCorrect.png","","null"
"image-button-response","407","425128","0.0-13.0-0.116","19","Low_HMMActual","","","","","","348.8000000715256","","","","Images/NewTrialWC.png","","2"
"image-button-response","408","425442","0.0-13.0-1.116","19","Low_HMMActual","","","","","","null","","","","Images/WhiteBeadChoice.png","","null"
"image-button-response","409","425945","0.0-13.0-2.116","19","Low_HMMActual","","","","","","null","","","","Images/WhiteBeadChoiceWrong.png","","null"
"image-button-response","410","426515","0.0-13.0-0.117","19","Low_HMMActual","","","","","","569.8000000715256","","","","Images/NewTrialBC.png","","1"
"image-button-response","411","426816","0.0-13.0-1.117","19","Low_HMMActual","","","","","","null","","","","Images/BlackBeadChoice.png","","null"
"image-button-response","412","427318","0.0-13.0-2.117","19","Low_HMMActual","","","","","","null","","","","Images/BlackBeadChoiceCorrect.png","","null"
"image-button-response","413","427780","0.0-13.0-0.118","19","Low_HMMActual","","","","","","456.2000000476837","","","","Images/NewTrialBC.png","","0"
"image-button-response","414","428096","0.0-13.0-1.118","19","Low_HMMActual","","","","","","null","","","","Images/BlackBeadChoice.png","","null"
"image-button-response","415","428606","0.0-13.0-2.118","19","Low_HMMActual","","","","","","null","","","","Images/BlackBeadChoiceCorrect.png","","null"
"image-button-response","416","428913","0.0-13.0-0.119","19","Low_HMMActual","","","","","","305.39999997615814","","","","Images/NewTrialBC.png","","0"
"image-button-response","417","429215","0.0-13.0-1.119","19","Low_HMMActual","","","","","","null","","","","Images/BlackBeadChoice.png","","null"
"image-button-response","418","429721","0.0-13.0-2.119","19","Low_HMMActual","","","","","","null","","","","Images/BlackBeadChoiceCorrect.png","","null"
"image-button-response","419","430017","0.0-13.0-0.120","19","Low_HMMActual","","","","","","293.09999990463257","","","","Images/NewTrialBC.png","","0"
"image-button-response","420","430324","0.0-13.0-1.120","19","Low_HMMActual","","","","","","null","","","","Images/BlackBeadChoice.png","","null"
"image-button-response","421","430825","0.0-13.0-2.120","19","Low_HMMActual","","","","","","null","","","","Images/BlackBeadChoiceWrong.png","","null"
"image-button-response","422","431603","0.0-13.0-0.121","19","Low_HMMActual","","","","","","777.8999999761581","","","","Images/NewTrialWC.png","","2"
"image-button-response","423","431909","0.0-13.0-1.121","19","Low_HMMActual","","","","","","null","","","","Images/WhiteBeadChoice.png","","null"
"image-button-response","424","432423","0.0-13.0-2.121","19","Low_HMMActual","","","","","","null","","","","Images/WhiteBeadChoiceCorrect.png","","null"
"image-button-response","425","432824","0.0-13.0-0.122","19","Low_HMMActual","","","","","","398.89999997615814","","","","Images/NewTrialWC.png","","2"
"image-button-response","426","433134","0.0-13.0-1.122","19","Low_HMMActual","","","","","","null","","","","Images/WhiteBeadChoice.png","","null"
"image-button-response","427","433647","0.0-13.0-2.122","19","Low_HMMActual","","","","","","null","","","","Images/WhiteBeadChoiceCorrect.png","","null"
"image-button-response","428","433938","0.0-13.0-0.123","19","Low_HMMActual","","","","","","289.60000002384186","","","","Images/NewTrialWC.png","","2"
"image-button-response","429","434246","0.0-13.0-1.123","19","Low_HMMActual","","","","","","null","","","","Images/WhiteBeadChoice.png","","null"
"image-button-response","430","434758","0.0-13.0-2.123","19","Low_HMMActual","","","","","","null","","","","Images/WhiteBeadChoiceWrong.png","","null"
"image-button-response","431","435194","0.0-13.0-0.124","19","Low_HMMActual","","","","","","435.3000000715256","","","","Images/NewTrialBC.png","","3"
"image-button-response","432","435503","0.0-13.0-1.124","19","Low_HMMActual","","","","","","null","","","","Images/WhiteBeadChoice.png","","null"
"image-button-response","433","436007","0.0-13.0-2.124","19","Low_HMMActual","","","","","","null","","","","Images/WhiteBeadChoiceWrong.png","","null"
"image-button-response","434","436260","0.0-13.0-0.125","19","Low_HMMActual","","","","","","252.60000002384186","","","","Images/NewTrialBC.png","","0"
"image-button-response","435","436575","0.0-13.0-1.125","19","Low_HMMActual","","","","","","null","","","","Images/BlackBeadChoice.png","","null"
"image-button-response","436","437085","0.0-13.0-2.125","19","Low_HMMActual","","","","","","null","","","","Images/BlackBeadChoiceWrong.png","","null"
"image-button-response","437","437499","0.0-13.0-0.126","19","Low_HMMActual","","","","","","413.40000009536743","","","","Images/NewTrialWC.png","","1"
"image-button-response","438","437800","0.0-13.0-1.126","19","Low_HMMActual","","","","","","null","","","","Images/BlackBeadChoice.png","","null"
"image-button-response","439","438303","0.0-13.0-2.126","19","Low_HMMActual","","","","","","null","","","","Images/BlackBeadChoiceCorrect.png","","null"
"image-button-response","440","438433","0.0-13.0-0.127","19","Low_HMMActual","","","","","","129","","","","Images/NewTrialBC.png","","0"
"image-button-response","441","438742","0.0-13.0-1.127","19","Low_HMMActual","","","","","","null","","","","Images/BlackBeadChoice.png","","null"
"image-button-response","442","439251","0.0-13.0-2.127","19","Low_HMMActual","","","","","","null","","","","Images/BlackBeadChoiceCorrect.png","","null"
"image-button-response","443","439522","0.0-13.0-0.128","19","Low_HMMActual","","","","","","267.8000000715256","","","","Images/NewTrialBC.png","","0"
"image-button-response","444","439826","0.0-13.0-1.128","19","Low_HMMActual","","","","","","null","","","","Images/BlackBeadChoice.png","","null"
"image-button-response","445","440335","0.0-13.0-2.128","19","Low_HMMActual","","","","","","null","","","","Images/BlackBeadChoiceCorrect.png","","null"
"image-button-response","446","440629","0.0-13.0-0.129","19","Low_HMMActual","","","","","","293.1999999284744","","","","Images/NewTrialBC.png","","0"
"image-button-response","447","440937","0.0-13.0-1.129","19","Low_HMMActual","","","","","","null","","","","Images/BlackBeadChoice.png","","null"
"image-button-response","448","441445","0.0-13.0-2.129","19","Low_HMMActual","","","","","","null","","","","Images/BlackBeadChoiceCorrect.png","","null"
"image-button-response","449","441748","0.0-13.0-0.130","19","Low_HMMActual","","","","","","300","","","","Images/NewTrialBC.png","","0"
"image-button-response","450","442061","0.0-13.0-1.130","19","Low_HMMActual","","","","","","null","","","","Images/BlackBeadChoice.png","","null"
"image-button-response","451","442569","0.0-13.0-2.130","19","Low_HMMActual","","","","","","null","","","","Images/BlackBeadChoiceCorrect.png","","null"
"image-button-response","452","442708","0.0-13.0-0.131","19","Low_HMMActual","","","","","","136.30000007152557","","","","Images/NewTrialBC.png","","0"
"image-button-response","453","443021","0.0-13.0-1.131","19","Low_HMMActual","","","","","","null","","","","Images/BlackBeadChoice.png","","null"
"image-button-response","454","443529","0.0-13.0-2.131","19","Low_HMMActual","","","","","","null","","","","Images/BlackBeadChoiceCorrect.png","","null"
"image-button-response","455","443975","0.0-13.0-0.132","19","Low_HMMActual","","","","","","444.5","","","","Images/NewTrialBC.png","","0"
"image-button-response","456","444293","0.0-13.0-1.132","19","Low_HMMActual","","","","","","null","","","","Images/BlackBeadChoice.png","","null"
"image-button-response","457","444800","0.0-13.0-2.132","19","Low_HMMActual","","","","","","null","","","","Images/BlackBeadChoiceCorrect.png","","null"
"image-button-response","458","445078","0.0-13.0-0.133","19","Low_HMMActual","","","","","","275.2000000476837","","","","Images/NewTrialBC.png","","0"
"image-button-response","459","445388","0.0-13.0-1.133","19","Low_HMMActual","","","","","","null","","","","Images/BlackBeadChoice.png","","null"
"image-button-response","460","445898","0.0-13.0-2.133","19","Low_HMMActual","","","","","","null","","","","Images/BlackBeadChoiceCorrect.png","","null"
"image-button-response","461","446544","0.0-13.0-0.134","19","Low_HMMActual","","","","","","643.6000000238419","","","","Images/NewTrialBC.png","","0"
"image-button-response","462","446856","0.0-13.0-1.134","19","Low_HMMActual","","","","","","null","","","","Images/BlackBeadChoice.png","","null"
"image-button-response","463","447366","0.0-13.0-2.134","19","Low_HMMActual","","","","","","null","","","","Images/BlackBeadChoiceCorrect.png","","null"
"image-button-response","464","447698","0.0-13.0-0.135","19","Low_HMMActual","","","","","","328.6999999284744","","","","Images/NewTrialBC.png","","0"
"image-button-response","465","448003","0.0-13.0-1.135","19","Low_HMMActual","","","","","","null","","","","Images/BlackBeadChoice.png","","null"
"image-button-response","466","448507","0.0-13.0-2.135","19","Low_HMMActual","","","","","","null","","","","Images/BlackBeadChoiceWrong.png","","null"
"image-button-response","467","449345","0.0-13.0-0.136","19","Low_HMMActual","","","","","","836.3999999761581","","","","Images/NewTrialWC.png","","3"
"image-button-response","468","449651","0.0-13.0-1.136","19","Low_HMMActual","","","","","","null","","","","Images/WhiteBeadChoice.png","","null"
"image-button-response","469","450154","0.0-13.0-2.136","19","Low_HMMActual","","","","","","null","","","","Images/WhiteBeadChoiceCorrect.png","","null"
"image-button-response","470","450245","0.0-13.0-0.137","19","Low_HMMActual","","","","","","87.5","","","","Images/NewTrialWC.png","","2"
"image-button-response","471","450549","0.0-13.0-1.137","19","Low_HMMActual","","","","","","null","","","","Images/WhiteBeadChoice.png","","null"
"image-button-response","472","451054","0.0-13.0-2.137","19","Low_HMMActual","","","","","","null","","","","Images/WhiteBeadChoiceCorrect.png","","null"
"image-button-response","473","451404","0.0-13.0-0.138","19","Low_HMMActual","","","","","","347.2000000476837","","","","Images/NewTrialWC.png","","2"
"image-button-response","474","451707","0.0-13.0-1.138","19","Low_HMMActual","","","","","","null","","","","Images/WhiteBeadChoice.png","","null"
"image-button-response","475","452219","0.0-13.0-2.138","19","Low_HMMActual","","","","","","null","","","","Images/WhiteBeadChoiceCorrect.png","","null"
"image-button-response","476","452531","0.0-13.0-0.139","19","Low_HMMActual","","","","","","309.89999997615814","","","","Images/NewTrialWC.png","","2"
"image-button-response","477","452836","0.0-13.0-1.139","19","Low_HMMActual","","","","","","null","","","","Images/WhiteBeadChoice.png","","null"
"image-button-response","478","453344","0.0-13.0-2.139","19","Low_HMMActual","","","","","","null","","","","Images/WhiteBeadChoiceCorrect.png","","null"
"image-button-response","479","453649","0.0-13.0-0.140","19","Low_HMMActual","","","","","","302.10000002384186","","","","Images/NewTrialWC.png","","2"
"image-button-response","480","453959","0.0-13.0-1.140","19","Low_HMMActual","","","","","","null","","","","Images/WhiteBeadChoice.png","","null"
"image-button-response","481","454465","0.0-13.0-2.140","19","Low_HMMActual","","","","","","null","","","","Images/WhiteBeadChoiceCorrect.png","","null"
"image-button-response","482","454745","0.0-13.0-0.141","19","Low_HMMActual","","","","","","276.7000000476837","","","","Images/NewTrialWC.png","","2"
"image-button-response","483","455053","0.0-13.0-1.141","19","Low_HMMActual","","","","","","null","","","","Images/WhiteBeadChoice.png","","null"
"image-button-response","484","455562","0.0-13.0-2.141","19","Low_HMMActual","","","","","","null","","","","Images/WhiteBeadChoiceCorrect.png","","null"
"image-button-response","485","455858","0.0-13.0-0.142","19","Low_HMMActual","","","","","","293.39999997615814","","","","Images/NewTrialWC.png","","2"
"image-button-response","486","456168","0.0-13.0-1.142","19","Low_HMMActual","","","","","","null","","","","Images/WhiteBeadChoice.png","","null"
"image-button-response","487","456676","0.0-13.0-2.142","19","Low_HMMActual","","","","","","null","","","","Images/WhiteBeadChoiceWrong.png","","null"
"image-button-response","488","457484","0.0-13.0-0.143","19","Low_HMMActual","","","","","","807.2000000476837","","","","Images/NewTrialBC.png","","3"
"image-button-response","489","457787","0.0-13.0-1.143","19","Low_HMMActual","","","","","","null","","","","Images/WhiteBeadChoice.png","","null"
"image-button-response","490","458290","0.0-13.0-2.143","19","Low_HMMActual","","","","","","null","","","","Images/WhiteBeadChoiceCorrect.png","","null"
"image-button-response","491","459002","0.0-13.0-0.144","19","Low_HMMActual","","","","","","711.5","","","","Images/NewTrialWC.png","","2"
"image-button-response","492","459308","0.0-13.0-1.144","19","Low_HMMActual","","","","","","null","","","","Images/WhiteBeadChoice.png","","null"
"image-button-response","493","459823","0.0-13.0-2.144","19","Low_HMMActual","","","","","","null","","","","Images/WhiteBeadChoiceCorrect.png","","null"
"image-button-response","494","460113","0.0-13.0-0.145","19","Low_HMMActual","","","","","","288.3000000715256","","","","Images/NewTrialWC.png","","2"
"image-button-response","495","460424","0.0-13.0-1.145","19","Low_HMMActual","","","","","","null","","","","Images/WhiteBeadChoice.png","","null"
"image-button-response","496","460936","0.0-13.0-2.145","19","Low_HMMActual","","","","","","null","","","","Images/WhiteBeadChoiceCorrect.png","","null"
"image-button-response","497","461219","0.0-13.0-0.146","19","Low_HMMActual","","","","","","282.60000002384186","","","","Images/NewTrialWC.png","","2"
"image-button-response","498","461525","0.0-13.0-1.146","19","Low_HMMActual","","","","","","null","","","","Images/WhiteBeadChoice.png","","null"
"image-button-response","499","462034","0.0-13.0-2.146","19","Low_HMMActual","","","","","","null","","","","Images/WhiteBeadChoiceWrong.png","","null"
"image-button-response","500","462518","0.0-13.0-0.147","19","Low_HMMActual","","","","","","481.1999999284744","","","","Images/NewTrialBC.png","","1"
"image-button-response","501","462819","0.0-13.0-1.147","19","Low_HMMActual","","","","","","null","","","","Images/BlackBeadChoice.png","","null"
"image-button-response","502","463320","0.0-13.0-2.147","19","Low_HMMActual","","","","","","null","","","","Images/BlackBeadChoiceWrong.png","","null"
"image-button-response","503","464020","0.0-13.0-0.148","19","Low_HMMActual","","","","","","699.5","","","","Images/NewTrialWC.png","","2"
"image-button-response","504","464328","0.0-13.0-1.148","19","Low_HMMActual","","","","","","null","","","","Images/WhiteBeadChoice.png","","null"
"image-button-response","505","464836","0.0-13.0-2.148","19","Low_HMMActual","","","","","","null","","","","Images/WhiteBeadChoiceCorrect.png","","null"
"image-button-response","506","465281","0.0-13.0-0.149","19","Low_HMMActual","","","","","","442.5","","","","Images/NewTrialWC.png","","2"
"image-button-response","507","465593","0.0-13.0-1.149","19","Low_HMMActual","","","","","","null","","","","Images/WhiteBeadChoice.png","","null"
"image-button-response","508","466096","0.0-13.0-2.149","19","Low_HMMActual","","","","","","null","","","","Images/WhiteBeadChoiceWrong.png","","null"
"image-button-response","509","466683","0.0-13.0-0.150","19","Low_HMMActual","","","","","","586.7000000476837","","","","Images/NewTrialBC.png","","1"
"image-button-response","510","467000","0.0-13.0-1.150","19","Low_HMMActual","","","","","","null","","","","Images/BlackBeadChoice.png","","null"
"image-button-response","511","467509","0.0-13.0-2.150","19","Low_HMMActual","","","","","","null","","","","Images/BlackBeadChoiceWrong.png","","null"
"image-button-response","512","468389","0.0-13.0-0.151","19","Low_HMMActual","","","","","","877.1000000238419","","","","Images/NewTrialWC.png","","2"
"image-button-response","513","468706","0.0-13.0-1.151","19","Low_HMMActual","","","","","","null","","","","Images/WhiteBeadChoice.png","","null"
"image-button-response","514","469218","0.0-13.0-2.151","19","Low_HMMActual","","","","","","null","","","","Images/WhiteBeadChoiceCorrect.png","","null"
"image-button-response","515","469680","0.0-13.0-0.152","19","Low_HMMActual","","","","","","458.8000000715256","","","","Images/NewTrialWC.png","","3"
"image-button-response","516","469993","0.0-13.0-1.152","19","Low_HMMActual","","","","","","null","","","","Images/WhiteBeadChoice.png","","null"
"image-button-response","517","470505","0.0-13.0-2.152","19","Low_HMMActual","","","","","","null","","","","Images/WhiteBeadChoiceCorrect.png","","null"
"image-button-response","518","470816","0.0-13.0-0.153","19","Low_HMMActual","","","","","","309.5","","","","Images/NewTrialWC.png","","3"
"image-button-response","519","471122","0.0-13.0-1.153","19","Low_HMMActual","","","","","","null","","","","Images/WhiteBeadChoice.png","","null"
"image-button-response","520","471632","0.0-13.0-2.153","19","Low_HMMActual","","","","","","null","","","","Images/WhiteBeadChoiceCorrect.png","","null"
"image-button-response","521","471973","0.0-13.0-0.154","19","Low_HMMActual","","","","","","337.89999997615814","","","","Images/NewTrialWC.png","","2"
"image-button-response","522","472282","0.0-13.0-1.154","19","Low_HMMActual","","","","","","null","","","","Images/WhiteBeadChoice.png","","null"
"image-button-response","523","472793","0.0-13.0-2.154","19","Low_HMMActual","","","","","","null","","","","Images/WhiteBeadChoiceCorrect.png","","null"
"image-button-response","524","473083","0.0-13.0-0.155","19","Low_HMMActual","","","","","","288.7999999523163","","","","Images/NewTrialWC.png","","2"
"image-button-response","525","473393","0.0-13.0-1.155","19","Low_HMMActual","","","","","","null","","","","Images/WhiteBeadChoice.png","","null"
"image-button-response","526","473898","0.0-13.0-2.155","19","Low_HMMActual","","","","","","null","","","","Images/WhiteBeadChoiceWrong.png","","null"
"image-button-response","527","474679","0.0-13.0-0.156","19","Low_HMMActual","","","","","","780.5","","","","Images/NewTrialBC.png","","1"
"image-button-response","528","474984","0.0-13.0-1.156","19","Low_HMMActual","","","","","","null","","","","Images/BlackBeadChoice.png","","null"
"image-button-response","529","475486","0.0-13.0-2.156","19","Low_HMMActual","","","","","","null","","","","Images/BlackBeadChoiceCorrect.png","","null"
"image-button-response","530","475569","0.0-13.0-0.157","19","Low_HMMActual","","","","","","82.70000004768372","","","","Images/NewTrialBC.png","","0"
"image-button-response","531","475884","0.0-13.0-1.157","19","Low_HMMActual","","","","","","null","","","","Images/BlackBeadChoice.png","","null"
"image-button-response","532","476394","0.0-13.0-2.157","19","Low_HMMActual","","","","","","null","","","","Images/BlackBeadChoiceCorrect.png","","null"
"image-button-response","533","476666","0.0-13.0-0.158","19","Low_HMMActual","","","","","","269","","","","Images/NewTrialBC.png","","0"
"image-button-response","534","476980","0.0-13.0-1.158","19","Low_HMMActual","","","","","","null","","","","Images/BlackBeadChoice.png","","null"
"image-button-response","535","477494","0.0-13.0-2.158","19","Low_HMMActual","","","","","","null","","","","Images/BlackBeadChoiceCorrect.png","","null"
"image-button-response","536","478135","0.0-13.0-0.159","19","Low_HMMActual","","","","","","638.1000000238419","","","","Images/NewTrialBC.png","","0"
"image-button-response","537","478436","0.0-13.0-1.159","19","Low_HMMActual","","","","","","null","","","","Images/BlackBeadChoice.png","","null"
"image-button-response","538","478943","0.0-13.0-2.159","19","Low_HMMActual","","","","","","null","","","","Images/BlackBeadChoiceCorrect.png","","null"
"image-button-response","539","479277","0.0-13.0-0.160","19","Low_HMMActual","","","","","","330","","","","Images/NewTrialBC.png","","0"
"image-button-response","540","479580","0.0-13.0-1.160","19","Low_HMMActual","","","","","","null","","","","Images/BlackBeadChoice.png","","null"
"image-button-response","541","480087","0.0-13.0-2.160","19","Low_HMMActual","","","","","","null","","","","Images/BlackBeadChoiceCorrect.png","","null"
"image-button-response","542","480422","0.0-13.0-0.161","19","Low_HMMActual","","","","","","332.2000000476837","","","","Images/NewTrialBC.png","","0"
"image-button-response","543","480737","0.0-13.0-1.161","19","Low_HMMActual","","","","","","null","","","","Images/BlackBeadChoice.png","","null"
"image-button-response","544","481244","0.0-13.0-2.161","19","Low_HMMActual","","","","","","null","","","","Images/BlackBeadChoiceWrong.png","","null"
"image-button-response","545","481621","0.0-13.0-0.162","19","Low_HMMActual","","","","","","373.1999999284744","","","","Images/NewTrialWC.png","","1"
"image-button-response","546","481931","0.0-13.0-1.162","19","Low_HMMActual","","","","","","null","","","","Images/BlackBeadChoice.png","","null"
"image-button-response","547","482439","0.0-13.0-2.162","19","Low_HMMActual","","","","","","null","","","","Images/BlackBeadChoiceWrong.png","","null"
"image-button-response","548","483165","0.0-13.0-0.163","19","Low_HMMActual","","","","","","724.6000000238419","","","","Images/NewTrialWC.png","","2"
"image-button-response","549","483480","0.0-13.0-1.163","19","Low_HMMActual","","","","","","null","","","","Images/WhiteBeadChoice.png","","null"
"image-button-response","550","483989","0.0-13.0-2.163","19","Low_HMMActual","","","","","","null","","","","Images/WhiteBeadChoiceCorrect.png","","null"
"image-button-response","551","484460","0.0-13.0-0.164","19","Low_HMMActual","","","","","","465.6999999284744","","","","Images/NewTrialWC.png","","2"
"image-button-response","552","484766","0.0-13.0-1.164","19","Low_HMMActual","","","","","","null","","","","Images/WhiteBeadChoice.png","","null"
"image-button-response","553","485277","0.0-13.0-2.164","19","Low_HMMActual","","","","","","null","","","","Images/WhiteBeadChoiceCorrect.png","","null"
"image-button-response","554","485558","0.0-13.0-0.165","19","Low_HMMActual","","","","","","278","","","","Images/NewTrialWC.png","","2"
"image-button-response","555","485861","0.0-13.0-1.165","19","Low_HMMActual","","","","","","null","","","","Images/WhiteBeadChoice.png","","null"
"image-button-response","556","486369","0.0-13.0-2.165","19","Low_HMMActual","","","","","","null","","","","Images/WhiteBeadChoiceCorrect.png","","null"
"image-button-response","557","486825","0.0-13.0-0.166","19","Low_HMMActual","","","","","","454.3000000715256","","","","Images/NewTrialWC.png","","2"
"image-button-response","558","487128","0.0-13.0-1.166","19","Low_HMMActual","","","","","","null","","","","Images/WhiteBeadChoice.png","","null"
"image-button-response","559","487636","0.0-13.0-2.166","19","Low_HMMActual","","","","","","null","","","","Images/WhiteBeadChoiceCorrect.png","","null"
"image-button-response","560","487982","0.0-13.0-0.167","19","Low_HMMActual","","","","","","344.2000000476837","","","","Images/NewTrialWC.png","","2"
"image-button-response","561","488284","0.0-13.0-1.167","19","Low_HMMActual","","","","","","null","","","","Images/WhiteBeadChoice.png","","null"
"image-button-response","562","488795","0.0-13.0-2.167","19","Low_HMMActual","","","","","","null","","","","Images/WhiteBeadChoiceCorrect.png","","null"
"image-button-response","563","489090","0.0-13.0-0.168","19","Low_HMMActual","","","","","","294.1999999284744","","","","Images/NewTrialWC.png","","2"
"image-button-response","564","489396","0.0-13.0-1.168","19","Low_HMMActual","","","","","","null","","","","Images/WhiteBeadChoice.png","","null"
"image-button-response","565","489907","0.0-13.0-2.168","19","Low_HMMActual","","","","","","null","","","","Images/WhiteBeadChoiceWrong.png","","null"
"image-button-response","566","490239","0.0-13.0-0.169","19","Low_HMMActual","","","","","","331","","","","Images/NewTrialBC.png","","2"
"image-button-response","567","490544","0.0-13.0-1.169","19","Low_HMMActual","","","","","","null","","","","Images/WhiteBeadChoice.png","","null"
"image-button-response","568","491055","0.0-13.0-2.169","19","Low_HMMActual","","","","","","null","","","","Images/WhiteBeadChoiceCorrect.png","","null"
"image-button-response","569","491396","0.0-13.0-0.170","19","Low_HMMActual","","","","","","339.3000000715256","","","","Images/NewTrialWC.png","","2"
"image-button-response","570","491701","0.0-13.0-1.170","19","Low_HMMActual","","","","","","null","","","","Images/WhiteBeadChoice.png","","null"
"image-button-response","571","492215","0.0-13.0-2.170","19","Low_HMMActual","","","","","","null","","","","Images/WhiteBeadChoiceCorrect.png","","null"
"image-button-response","572","492542","0.0-13.0-0.171","19","Low_HMMActual","","","","","","324.1999999284744","","","","Images/NewTrialWC.png","","2"
"image-button-response","573","492851","0.0-13.0-1.171","19","Low_HMMActual","","","","","","null","","","","Images/WhiteBeadChoice.png","","null"
"image-button-response","574","493361","0.0-13.0-2.171","19","Low_HMMActual","","","","","","null","","","","Images/WhiteBeadChoiceCorrect.png","","null"
"image-button-response","575","493675","0.0-13.0-0.172","19","Low_HMMActual","","","","","","310.60000002384186","","","","Images/NewTrialWC.png","","2"
"image-button-response","576","493980","0.0-13.0-1.172","19","Low_HMMActual","","","","","","null","","","","Images/WhiteBeadChoice.png","","null"
"image-button-response","577","494488","0.0-13.0-2.172","19","Low_HMMActual","","","","","","null","","","","Images/WhiteBeadChoiceCorrect.png","","null"
"image-button-response","578","494992","0.0-13.0-0.173","19","Low_HMMActual","","","","","","500.09999990463257","","","","Images/NewTrialWC.png","","2"
"image-button-response","579","495309","0.0-13.0-1.173","19","Low_HMMActual","","","","","","null","","","","Images/WhiteBeadChoice.png","","null"
"image-button-response","580","495820","0.0-13.0-2.173","19","Low_HMMActual","","","","","","null","","","","Images/WhiteBeadChoiceCorrect.png","","null"
"image-button-response","581","496136","0.0-13.0-0.174","19","Low_HMMActual","","","","","","315.40000009536743","","","","Images/NewTrialWC.png","","2"
"image-button-response","582","496448","0.0-13.0-1.174","19","Low_HMMActual","","","","","","null","","","","Images/WhiteBeadChoice.png","","null"
"image-button-response","583","496962","0.0-13.0-2.174","19","Low_HMMActual","","","","","","null","","","","Images/WhiteBeadChoiceCorrect.png","","null"
"image-button-response","584","497649","0.0-13.0-0.175","19","Low_HMMActual","","","","","","685.7999999523163","","","","Images/NewTrialWC.png","","2"
"image-button-response","585","497957","0.0-13.0-1.175","19","Low_HMMActual","","","","","","null","","","","Images/WhiteBeadChoice.png","","null"
"image-button-response","586","498469","0.0-13.0-2.175","19","Low_HMMActual","","","","","","null","","","","Images/WhiteBeadChoiceWrong.png","","null"
"image-button-response","587","499292","0.0-13.0-0.176","19","Low_HMMActual","","","","","","820.1999999284744","","","","Images/NewTrialBC.png","","3"
"image-button-response","588","499606","0.0-13.0-1.176","19","Low_HMMActual","","","","","","null","","","","Images/WhiteBeadChoice.png","","null"
"image-button-response","589","500108","0.0-13.0-2.176","19","Low_HMMActual","","","","","","null","","","","Images/WhiteBeadChoiceWrong.png","","null"
"image-button-response","590","500347","0.0-13.0-0.177","19","Low_HMMActual","","","","","","238.79999995231628","","","","Images/NewTrialBC.png","","0"
"image-button-response","591","500656","0.0-13.0-1.177","19","Low_HMMActual","","","","","","null","","","","Images/BlackBeadChoice.png","","null"
"image-button-response","592","501161","0.0-13.0-2.177","19","Low_HMMActual","","","","","","null","","","","Images/BlackBeadChoiceCorrect.png","","null"
"image-button-response","593","501488","0.0-13.0-0.178","19","Low_HMMActual","","","","","","325.6999999284744","","","","Images/NewTrialBC.png","","0"
"image-button-response","594","501794","0.0-13.0-1.178","19","Low_HMMActual","","","","","","null","","","","Images/BlackBeadChoice.png","","null"
"image-button-response","595","502300","0.0-13.0-2.178","19","Low_HMMActual","","","","","","null","","","","Images/BlackBeadChoiceWrong.png","","null"
"image-button-response","596","502883","0.0-13.0-0.179","19","Low_HMMActual","","","","","","580","","","","Images/NewTrialWC.png","","1"
"image-button-response","597","503185","0.0-13.0-1.179","19","Low_HMMActual","","","","","","null","","","","Images/BlackBeadChoice.png","","null"
"image-button-response","598","503686","0.0-13.0-2.179","19","Low_HMMActual","","","","","","null","","","","Images/BlackBeadChoiceCorrect.png","","null"
"image-button-response","599","503852","0.0-13.0-0.180","19","Low_HMMActual","","","","","","164.40000009536743","","","","Images/NewTrialBC.png","","0"
"image-button-response","600","504158","0.0-13.0-1.180","19","Low_HMMActual","","","","","","null","","","","Images/BlackBeadChoice.png","","null"
"image-button-response","601","504664","0.0-13.0-2.180","19","Low_HMMActual","","","","","","null","","","","Images/BlackBeadChoiceCorrect.png","","null"
"image-button-response","602","505030","0.0-13.0-0.181","19","Low_HMMActual","","","","","","365.3000000715256","","","","Images/NewTrialBC.png","","0"
"image-button-response","603","505346","0.0-13.0-1.181","19","Low_HMMActual","","","","","","null","","","","Images/BlackBeadChoice.png","","null"
"image-button-response","604","505869","0.0-13.0-2.181","19","Low_HMMActual","","","","","","null","","","","Images/BlackBeadChoiceCorrect.png","","null"
"image-button-response","605","506189","0.0-13.0-0.182","19","Low_HMMActual","","","","","","317","","","","Images/NewTrialBC.png","","0"
"image-button-response","606","506499","0.0-13.0-1.182","19","Low_HMMActual","","","","","","null","","","","Images/BlackBeadChoice.png","","null"
"image-button-response","607","507009","0.0-13.0-2.182","19","Low_HMMActual","","","","","","null","","","","Images/BlackBeadChoiceCorrect.png","","null"
"image-button-response","608","507373","0.0-13.0-0.183","19","Low_HMMActual","","","","","","361.2000000476837","","","","Images/NewTrialBC.png","","0"
"image-button-response","609","507690","0.0-13.0-1.183","19","Low_HMMActual","","","","","","null","","","","Images/BlackBeadChoice.png","","null"
"image-button-response","610","508200","0.0-13.0-2.183","19","Low_HMMActual","","","","","","null","","","","Images/BlackBeadChoiceCorrect.png","","null"
"image-button-response","611","508310","0.0-13.0-0.184","19","Low_HMMActual","","","","","","107.69999992847443","","","","Images/NewTrialBC.png","","0"
"image-button-response","612","508615","0.0-13.0-1.184","19","Low_HMMActual","","","","","","null","","","","Images/BlackBeadChoice.png","","null"
"image-button-response","613","509123","0.0-13.0-2.184","19","Low_HMMActual","","","","","","null","","","","Images/BlackBeadChoiceCorrect.png","","null"
"image-button-response","614","509861","0.0-13.0-0.185","19","Low_HMMActual","","","","","","734.3999999761581","","","","Images/NewTrialBC.png","","0"
"image-button-response","615","510171","0.0-13.0-1.185","19","Low_HMMActual","","","","","","null","","","","Images/BlackBeadChoice.png","","null"
"image-button-response","616","510679","0.0-13.0-2.185","19","Low_HMMActual","","","","","","null","","","","Images/BlackBeadChoiceCorrect.png","","null"
"image-button-response","617","511227","0.0-13.0-0.186","19","Low_HMMActual","","","","","","545.5999999046326","","","","Images/NewTrialBC.png","","0"
"image-button-response","618","511541","0.0-13.0-1.186","19","Low_HMMActual","","","","","","null","","","","Images/BlackBeadChoice.png","","null"
"image-button-response","619","512053","0.0-13.0-2.186","19","Low_HMMActual","","","","","","null","","","","Images/BlackBeadChoiceCorrect.png","","null"
"image-button-response","620","512564","0.0-13.0-0.187","19","Low_HMMActual","","","","","","510.7000000476837","","","","Images/NewTrialBC.png","","0"
"image-button-response","621","512874","0.0-13.0-1.187","19","Low_HMMActual","","","","","","null","","","","Images/BlackBeadChoice.png","","null"
"image-button-response","622","513376","0.0-13.0-2.187","19","Low_HMMActual","","","","","","null","","","","Images/BlackBeadChoiceWrong.png","","null"
"image-button-response","623","514340","0.0-13.0-0.188","19","Low_HMMActual","","","","","","962.5","","","","Images/NewTrialWC.png","","1"
"image-button-response","624","514642","0.0-13.0-1.188","19","Low_HMMActual","","","","","","null","","","","Images/BlackBeadChoice.png","","null"
"image-button-response","625","515150","0.0-13.0-2.188","19","Low_HMMActual","","","","","","464.7999999523163","","","","Images/BlackBeadChoiceWrong.png","","2"
"image-button-response","626","515710","0.0-13.0-0.189","19","Low_HMMActual","","","","","","558.0999999046326","","","","Images/NewTrialWC.png","","2"
"image-button-response","627","516024","0.0-13.0-1.189","19","Low_HMMActual","","","","","","null","","","","Images/WhiteBeadChoice.png","","null"
"image-button-response","628","516529","0.0-13.0-2.189","19","Low_HMMActual","","","","","","null","","","","Images/WhiteBeadChoiceCorrect.png","","null"
"image-button-response","629","516790","0.0-13.0-0.190","19","Low_HMMActual","","","","","","258.40000009536743","","","","Images/NewTrialWC.png","","2"
"image-button-response","630","517103","0.0-13.0-1.190","19","Low_HMMActual","","","","","","null","","","","Images/WhiteBeadChoice.png","","null"
"image-button-response","631","517610","0.0-13.0-2.190","19","Low_HMMActual","","","","","","null","","","","Images/WhiteBeadChoiceCorrect.png","","null"
"image-button-response","632","518253","0.0-13.0-0.191","19","Low_HMMActual","","","","","","641.5999999046326","","","","Images/NewTrialWC.png","","2"
"image-button-response","633","518563","0.0-13.0-1.191","19","Low_HMMActual","","","","","","null","","","","Images/WhiteBeadChoice.png","","null"
"image-button-response","634","519071","0.0-13.0-2.191","19","Low_HMMActual","","","","","","null","","","","Images/WhiteBeadChoiceCorrect.png","","null"
"image-button-response","635","519548","0.0-13.0-0.192","19","Low_HMMActual","","","","","","474.5","","","","Images/NewTrialWC.png","","2"
"image-button-response","636","519861","0.0-13.0-1.192","19","Low_HMMActual","","","","","","null","","","","Images/WhiteBeadChoice.png","","null"
"image-button-response","637","520373","0.0-13.0-2.192","19","Low_HMMActual","","","","","","null","","","","Images/WhiteBeadChoiceCorrect.png","","null"
"image-button-response","638","520727","0.0-13.0-0.193","19","Low_HMMActual","","","","","","351.3000000715256","","","","Images/NewTrialWC.png","","2"
"image-button-response","639","521037","0.0-13.0-1.193","19","Low_HMMActual","","","","","","null","","","","Images/WhiteBeadChoice.png","","null"
"image-button-response","640","521551","0.0-13.0-2.193","19","Low_HMMActual","","","","","","null","","","","Images/WhiteBeadChoiceCorrect.png","","null"
"image-button-response","641","522117","0.0-13.0-0.194","19","Low_HMMActual","","","","","","563.3999999761581","","","","Images/NewTrialWC.png","","2"
"image-button-response","642","522420","0.0-13.0-1.194","19","Low_HMMActual","","","","","","null","","","","Images/WhiteBeadChoice.png","","null"
"image-button-response","643","522934","0.0-13.0-2.194","19","Low_HMMActual","","","","","","null","","","","Images/WhiteBeadChoiceCorrect.png","","null"
"image-button-response","644","523336","0.0-13.0-0.195","19","Low_HMMActual","","","","","","399.1999999284744","","","","Images/NewTrialWC.png","","2"
"image-button-response","645","523643","0.0-13.0-1.195","19","Low_HMMActual","","","","","","null","","","","Images/WhiteBeadChoice.png","","null"
"image-button-response","646","524153","0.0-13.0-2.195","19","Low_HMMActual","","","","","","null","","","","Images/WhiteBeadChoiceCorrect.png","","null"
"image-button-response","647","524667","0.0-13.0-0.196","19","Low_HMMActual","","","","","","511.5","","","","Images/NewTrialWC.png","","2"
"image-button-response","648","524969","0.0-13.0-1.196","19","Low_HMMActual","","","","","","null","","","","Images/WhiteBeadChoice.png","","null"
"image-button-response","649","525476","0.0-13.0-2.196","19","Low_HMMActual","","","","","","null","","","","Images/WhiteBeadChoiceCorrect.png","","null"
"image-button-response","650","525883","0.0-13.0-0.197","19","Low_HMMActual","","","","","","403.1999999284744","","","","Images/NewTrialWC.png","","2"
"image-button-response","651","526190","0.0-13.0-1.197","19","Low_HMMActual","","","","","","null","","","","Images/WhiteBeadChoice.png","","null"
"image-button-response","652","526697","0.0-13.0-2.197","19","Low_HMMActual","","","","","","null","","","","Images/WhiteBeadChoiceCorrect.png","","null"
"image-button-response","653","527003","0.0-13.0-0.198","19","Low_HMMActual","","","","","","302.5","","","","Images/NewTrialWC.png","","2"
"image-button-response","654","527314","0.0-13.0-1.198","19","Low_HMMActual","","","","","","null","","","","Images/WhiteBeadChoice.png","","null"
"image-button-response","655","527818","0.0-13.0-2.198","19","Low_HMMActual","","","","","","null","","","","Images/WhiteBeadChoiceWrong.png","","null"
"image-button-response","656","528999","0.0-13.0-0.199","19","Low_HMMActual","","","","","","1178.3999999761581","","","","Images/NewTrialBC.png","","1"
"image-button-response","657","529301","0.0-13.0-1.199","19","Low_HMMActual","","","","","","null","","","","Images/BlackBeadChoice.png","","null"
"image-button-response","658","529802","0.0-13.0-2.199","19","Low_HMMActual","","","","","","null","","","","Images/BlackBeadChoiceWrong.png","","null"
"image-button-response","659","530514","0.0-13.0-0.200","19","Low_HMMActual","","","","","","708.8999999761581","","","","Images/NewTrialWC.png","","3"
"image-button-response","660","530815","0.0-13.0-1.200","19","Low_HMMActual","","","","","","null","","","","Images/WhiteBeadChoice.png","","null"
"image-button-response","661","531328","0.0-13.0-2.200","19","Low_HMMActual","","","","","","450.89999997615814","","","","Images/WhiteBeadChoiceCorrect.png","","2"
"image-button-response","662","531857","0.0-13.0-0.201","19","Low_HMMActual","","","","","","523.7999999523163","","","","Images/NewTrialWC.png","","2"
"image-button-response","663","532162","0.0-13.0-1.201","19","Low_HMMActual","","","","","","null","","","","Images/WhiteBeadChoice.png","","null"
"image-button-response","664","532672","0.0-13.0-2.201","19","Low_HMMActual","","","","","","null","","","","Images/WhiteBeadChoiceWrong.png","","null"
"image-button-response","665","533620","0.0-13.0-0.202","19","Low_HMMActual","","","","","","945","","","","Images/NewTrialBC.png","","3"
"image-button-response","666","533931","0.0-13.0-1.202","19","Low_HMMActual","","","","","","null","","","","Images/WhiteBeadChoice.png","","null"
