"trial_type","trial_index","time_elapsed","internal_node_id","Script_Picker","Block_Type","success","timeout","failed_images","failed_audio","failed_video","rt","url","responses","question_order","stimulus","key_press","response"
"pavlovia","0","37","0.0-0.0","17","Low_HMMActual","","","","","","","","","","","",""
"preload","1","39","0.0-1.0","17","Low_HMMActual","true","false","[]","[]","[]","","","","","","",""
"external-html","2","28856","0.0-2.0-0.0","17","Low_HMMActual","","","","","","28731.799999952316","consent.html","","","","",""
"survey-multi-choice","3","38823","0.0-2.0-1.0","17","Low_HMMActual","","","","","","9962.100000023842","","{""Q0"":""Female"",""Q1"":""Other""}","[0,1]","","",""
"survey-text","4","41439","0.0-2.0-2.0","17","Low_HMMActual","","","","","","2610.7000000476837","","{""Q0"":""19""}","","","",""
"survey-text","5","47422","0.0-2.0-3.0","17","Low_HMMActual","","","","","","5874.600000023842","","{""Q0"":""5ea98db52f7b330a05f2a33b""}","","","",""
"image-keyboard-response","6","89572","0.0-3.0-0.0","17","Low_HMMActual","","","","","","42040.799999952316","","","","tutorial/tutorial1.png"," ",""
"image-keyboard-response","7","97463","0.0-3.0-0.1","17","Low_HMMActual","","","","","","7888.799999952316","","","","tutorial/tutorial2.png"," ",""
"image-keyboard-response","8","100614","0.0-3.0-0.2","17","Low_HMMActual","","","","","","3148.0999999046326","","","","tutorial/tutorial3.png"," ",""
"image-keyboard-response","9","102524","0.0-3.0-0.3","17","Low_HMMActual","","","","","","1906.2999999523163","","","","tutorial/tutorial4.png"," ",""
"image-keyboard-response","10","104524","0.0-3.0-0.4","17","Low_HMMActual","","","","","","1998","","","","tutorial/tutorial5.png"," ",""
"image-keyboard-response","11","111488","0.0-3.0-0.5","17","Low_HMMActual","","","","","","6962.199999928474","","","","tutorial/tutorial6.png"," ",""
"image-keyboard-response","12","116289","0.0-3.0-0.6","17","Low_HMMActual","","","","","","4799.699999928474","","","","tutorial/tutorial7.png"," ",""
"image-keyboard-response","13","190057","0.0-3.0-0.7","17","Low_HMMActual","","","","","","73764.60000002384","","","","tutorial/tutorial8.png"," ",""
"image-keyboard-response","14","202733","0.0-3.0-0.8","17","Low_HMMActual","","","","","","12670.800000071526","","","","tutorial/tutorial9.png"," ",""
"image-keyboard-response","15","208653","0.0-3.0-0.9","17","Low_HMMActual","","","","","","5915.699999928474","","","","tutorial/tutorial10.png"," ",""
"image-keyboard-response","16","217965","0.0-3.0-0.10","17","Low_HMMActual","","","","","","9308.600000023842","","","","tutorial/tutorial11.png"," ",""
"image-keyboard-response","17","253688","0.0-3.0-0.11","17","Low_HMMActual","","","","","","35719.299999952316","","","","tutorial/tutorial12.png"," ",""
"image-keyboard-response","18","265455","0.0-3.0-0.12","17","Low_HMMActual","","","","","","11763.599999904633","","","","tutorial/tutorial13.png"," ",""
"image-keyboard-response","19","283619","0.0-3.0-0.13","17","Low_HMMActual","","","","","","18161.799999952316","","","","tutorial/tutorial14.png"," ",""
"image-keyboard-response","20","286074","0.0-3.0-0.14","17","Low_HMMActual","","","","","","2451.100000023842","","","","tutorial/tutorial15.png"," ",""
"image-keyboard-response","21","307664","0.0-4.0","17","Low_HMMActual","","","","","","21585.700000047684","","","","tutorial/tutorial16.png","arrowup",""
"image-keyboard-response","22","317261","0.0-5.0","17","Low_HMMActual","","","","","","6965.299999952316","","","","tutorial/tutorial17.png","arrowright",""
"image-keyboard-response","23","322311","0.0-6.0","17","Low_HMMActual","","","","","","3833.600000023842","","","","tutorial/tutorial18.png","arrowleft",""
"image-keyboard-response","24","392440","0.0-7.0","17","Low_HMMActual","","","","","","68352.90000009537","","","","tutorial/tutorial19.png"," ",""
"html-keyboard-response","25","399891","0.0-8.0","18","Low_HMMActual","","","","","","7437.300000071526","","","","<div class=""container"" style=""height:800px;width:800px;display:flex;flex-direction:column;justify-content:center;align-items:center;text-align:center;font-weight:normal;font-family:Arial;font-size:20px""><p>Loading episode&hellip;</p><div>"," ",""
"image-button-response","26","408851","0.0-9.0-0.0","18","Low_HMMActual","","","","","","8948.600000023842","","","","Images/NoChoice.png","","0"
"image-button-response","27","409156","0.0-9.0-1.0","18","Low_HMMActual","","","","","","null","","","","Images/BlackBeadChoice.png","","null"
"image-button-response","28","409663","0.0-9.0-2.0","18","Low_HMMActual","","","","","","null","","","","Images/BlackBeadChoiceWrong.png","","null"
"image-button-response","29","417827","0.0-9.0-0.1","18","Low_HMMActual","","","","","","8157.900000095367","","","","Images/NewTrialWC.png","","2"
"image-button-response","30","418130","0.0-9.0-1.1","18","Low_HMMActual","","","","","","null","","","","Images/WhiteBeadChoice.png","","null"
"image-button-response","31","418634","0.0-9.0-2.1","18","Low_HMMActual","","","","","","null","","","","Images/WhiteBeadChoiceCorrect.png","","null"
"image-button-response","32","422818","0.0-9.0-0.2","18","Low_HMMActual","","","","","","4172.399999976158","","","","Images/NewTrialWC.png","","2"
"image-button-response","33","423124","0.0-9.0-1.2","18","Low_HMMActual","","","","","","null","","","","Images/WhiteBeadChoice.png","","null"
"image-button-response","34","423634","0.0-9.0-2.2","18","Low_HMMActual","","","","","","null","","","","Images/WhiteBeadChoiceCorrect.png","","null"
"image-button-response","35","425250","0.0-9.0-0.3","18","Low_HMMActual","","","","","","1605.7000000476837","","","","Images/NewTrialWC.png","","3"
"image-button-response","36","425556","0.0-9.0-1.3","18","Low_HMMActual","","","","","","null","","","","Images/WhiteBeadChoice.png","","null"
"image-button-response","37","426060","0.0-9.0-2.3","18","Low_HMMActual","","","","","","null","","","","Images/WhiteBeadChoiceWrong.png","","null"
"image-button-response","38","434523","0.0-9.0-0.4","18","Low_HMMActual","","","","","","8456.600000023842","","","","Images/NewTrialBC.png","","2"
"image-button-response","39","434830","0.0-9.0-1.4","18","Low_HMMActual","","","","","","null","","","","Images/WhiteBeadChoice.png","","null"
"image-button-response","40","435343","0.0-9.0-2.4","18","Low_HMMActual","","","","","","null","","","","Images/WhiteBeadChoiceCorrect.png","","null"
"image-button-response","41","442186","0.0-9.0-0.5","18","Low_HMMActual","","","","","","6829.300000071526","","","","Images/NewTrialWC.png","","2"
"image-button-response","42","442492","0.0-9.0-1.5","18","Low_HMMActual","","","","","","null","","","","Images/WhiteBeadChoice.png","","null"
"image-button-response","43","443006","0.0-9.0-2.5","18","Low_HMMActual","","","","","","null","","","","Images/WhiteBeadChoiceCorrect.png","","null"
"image-button-response","44","443882","0.0-9.0-0.6","18","Low_HMMActual","","","","","","865.1999999284744","","","","Images/NewTrialWC.png","","3"
"image-button-response","45","444188","0.0-9.0-1.6","18","Low_HMMActual","","","","","","null","","","","Images/WhiteBeadChoice.png","","null"
"image-button-response","46","444701","0.0-9.0-2.6","18","Low_HMMActual","","","","","","null","","","","Images/WhiteBeadChoiceWrong.png","","null"
"image-button-response","47","446075","0.0-9.0-0.7","18","Low_HMMActual","","","","","","1361.7999999523163","","","","Images/NewTrialBC.png","","2"
"image-button-response","48","446382","0.0-9.0-1.7","18","Low_HMMActual","","","","","","null","","","","Images/WhiteBeadChoice.png","","null"
"image-button-response","49","446889","0.0-9.0-2.7","18","Low_HMMActual","","","","","","null","","","","Images/WhiteBeadChoiceCorrect.png","","null"
"image-button-response","50","451826","0.0-9.0-0.8","18","Low_HMMActual","","","","","","4930.399999976158","","","","Images/NewTrialWC.png","","2"
"image-button-response","51","452134","0.0-9.0-1.8","18","Low_HMMActual","","","","","","null","","","","Images/WhiteBeadChoice.png","","null"
"image-button-response","52","452643","0.0-9.0-2.8","18","Low_HMMActual","","","","","","null","","","","Images/WhiteBeadChoiceCorrect.png","","null"
"image-button-response","53","453122","0.0-9.0-0.9","18","Low_HMMActual","","","","","","466.2999999523163","","","","Images/NewTrialWC.png","","2"
"image-button-response","54","453429","0.0-9.0-1.9","18","Low_HMMActual","","","","","","null","","","","Images/WhiteBeadChoice.png","","null"
"image-button-response","55","453936","0.0-9.0-2.9","18","Low_HMMActual","","","","","","null","","","","Images/WhiteBeadChoiceWrong.png","","null"
"html-keyboard-response","56","459423","0.0-10.0","18","Low_HMMActual","","","","","","5481.100000023842","","","",""," ",""
"image-keyboard-response","57","461837","0.0-11.0","18","Low_HMMActual","","","","","","2409.5","","","","tutorial/tutorial20.png"," ",""
"html-keyboard-response","58","474903","0.0-12.0","19","Low_HMMActual","","","","","","13058","","","","<div class=""container"" style=""height:800px;width:800px;display:flex;flex-direction:column;justify-content:center;align-items:center;text-align:center;font-weight:normal;font-family:Arial;font-size:20px""><p>Loading episode&hellip;</p><div>"," ",""
"image-button-response","59","480754","0.0-13.0-0.0","19","Low_HMMActual","","","","","","5844.199999928474","","","","Images/NoChoice.png","","0"
"image-button-response","60","481059","0.0-13.0-1.0","19","Low_HMMActual","","","","","","null","","","","Images/BlackBeadChoice.png","","null"
"image-button-response","61","481570","0.0-13.0-2.0","19","Low_HMMActual","","","","","","null","","","","Images/BlackBeadChoiceWrong.png","","null"
"image-button-response","62","484938","0.0-13.0-0.1","19","Low_HMMActual","","","","","","3352.3000000715256","","","","Images/NewTrialWC.png","","2"
"image-button-response","63","485246","0.0-13.0-1.1","19","Low_HMMActual","","","","","","null","","","","Images/WhiteBeadChoice.png","","null"
"image-button-response","64","485761","0.0-13.0-2.1","19","Low_HMMActual","","","","","","null","","","","Images/WhiteBeadChoiceCorrect.png","","null"
"image-button-response","65","486378","0.0-13.0-0.2","19","Low_HMMActual","","","","","","604.0999999046326","","","","Images/NewTrialWC.png","","2"
"image-button-response","66","486686","0.0-13.0-1.2","19","Low_HMMActual","","","","","","null","","","","Images/WhiteBeadChoice.png","","null"
"image-button-response","67","487203","0.0-13.0-2.2","19","Low_HMMActual","","","","","","null","","","","Images/WhiteBeadChoiceCorrect.png","","null"
"image-button-response","68","489162","0.0-13.0-0.3","19","Low_HMMActual","","","","","","1944.9000000953674","","","","Images/NewTrialWC.png","","2"
"image-button-response","69","489470","0.0-13.0-1.3","19","Low_HMMActual","","","","","","null","","","","Images/WhiteBeadChoice.png","","null"
"image-button-response","70","489985","0.0-13.0-2.3","19","Low_HMMActual","","","","","","null","","","","Images/WhiteBeadChoiceCorrect.png","","null"
"image-button-response","71","490754","0.0-13.0-0.4","19","Low_HMMActual","","","","","","755.4000000953674","","","","Images/NewTrialWC.png","","2"
"image-button-response","72","491064","0.0-13.0-1.4","19","Low_HMMActual","","","","","","null","","","","Images/WhiteBeadChoice.png","","null"
"image-button-response","73","491580","0.0-13.0-2.4","19","Low_HMMActual","","","","","","null","","","","Images/WhiteBeadChoiceCorrect.png","","null"
"image-button-response","74","492002","0.0-13.0-0.5","19","Low_HMMActual","","","","","","412.39999997615814","","","","Images/NewTrialWC.png","","2"
"image-button-response","75","492313","0.0-13.0-1.5","19","Low_HMMActual","","","","","","null","","","","Images/WhiteBeadChoice.png","","null"
"image-button-response","76","492822","0.0-13.0-2.5","19","Low_HMMActual","","","","","","null","","","","Images/WhiteBeadChoiceWrong.png","","null"
"image-button-response","77","495137","0.0-13.0-0.6","19","Low_HMMActual","","","","","","2311.899999976158","","","","Images/NewTrialBC.png","","2"
"image-button-response","78","495440","0.0-13.0-1.6","19","Low_HMMActual","","","","","","null","","","","Images/WhiteBeadChoice.png","","null"
"image-button-response","79","495951","0.0-13.0-2.6","19","Low_HMMActual","","","","","","null","","","","Images/WhiteBeadChoiceWrong.png","","null"
"image-button-response","80","497105","0.0-13.0-0.7","19","Low_HMMActual","","","","","","1142.2999999523163","","","","Images/NewTrialBC.png","","2"
"image-button-response","81","497410","0.0-13.0-1.7","19","Low_HMMActual","","","","","","null","","","","Images/WhiteBeadChoice.png","","null"
"image-button-response","82","497920","0.0-13.0-2.7","19","Low_HMMActual","","","","","","null","","","","Images/WhiteBeadChoiceWrong.png","","null"
"image-button-response","83","501721","0.0-13.0-0.8","19","Low_HMMActual","","","","","","3789.600000023842","","","","Images/NewTrialBC.png","","3"
"image-button-response","84","502027","0.0-13.0-1.8","19","Low_HMMActual","","","","","","null","","","","Images/WhiteBeadChoice.png","","null"
"image-button-response","85","502537","0.0-13.0-2.8","19","Low_HMMActual","","","","","","null","","","","Images/WhiteBeadChoiceWrong.png","","null"
"image-button-response","86","503401","0.0-13.0-0.9","19","Low_HMMActual","","","","","","854.1000000238419","","","","Images/NewTrialBC.png","","0"
"image-button-response","87","503704","0.0-13.0-1.9","19","Low_HMMActual","","","","","","null","","","","Images/BlackBeadChoice.png","","null"
"image-button-response","88","504208","0.0-13.0-2.9","19","Low_HMMActual","","","","","","null","","","","Images/BlackBeadChoiceCorrect.png","","null"
"image-button-response","89","505457","0.0-13.0-0.10","19","Low_HMMActual","","","","","","1239.3999999761581","","","","Images/NewTrialBC.png","","0"
"image-button-response","90","505762","0.0-13.0-1.10","19","Low_HMMActual","","","","","","null","","","","Images/BlackBeadChoice.png","","null"
"image-button-response","91","506267","0.0-13.0-2.10","19","Low_HMMActual","","","","","","null","","","","Images/BlackBeadChoiceWrong.png","","null"
"image-button-response","92","518369","0.0-13.0-0.11","19","Low_HMMActual","","","","","","12092.400000095367","","","","Images/NewTrialWC.png","","2"
"image-button-response","93","518674","0.0-13.0-1.11","19","Low_HMMActual","","","","","","null","","","","Images/WhiteBeadChoice.png","","null"
"image-button-response","94","519185","0.0-13.0-2.11","19","Low_HMMActual","","","","","","null","","","","Images/WhiteBeadChoiceWrong.png","","null"
"image-button-response","95","522801","0.0-13.0-0.12","19","Low_HMMActual","","","","","","3604.600000023842","","","","Images/NewTrialBC.png","","0"
"image-button-response","96","523109","0.0-13.0-1.12","19","Low_HMMActual","","","","","","null","","","","Images/BlackBeadChoice.png","","null"
"image-button-response","97","523615","0.0-13.0-2.12","19","Low_HMMActual","","","","","","null","","","","Images/BlackBeadChoiceWrong.png","","null"
"image-button-response","98","525129","0.0-13.0-0.13","19","Low_HMMActual","","","","","","1509.3999999761581","","","","Images/NewTrialWC.png","","2"
"image-button-response","99","525438","0.0-13.0-1.13","19","Low_HMMActual","","","","","","null","","","","Images/WhiteBeadChoice.png","","null"
"image-button-response","100","525941","0.0-13.0-2.13","19","Low_HMMActual","","","","","","null","","","","Images/WhiteBeadChoiceCorrect.png","","null"
"image-button-response","101","526249","0.0-13.0-0.14","19","Low_HMMActual","","","","","","260.2000000476837","","","","Images/NewTrialWC.png","","2"
"image-button-response","102","526551","0.0-13.0-1.14","19","Low_HMMActual","","","","","","null","","","","Images/WhiteBeadChoice.png","","null"
"image-button-response","103","527060","0.0-13.0-2.14","19","Low_HMMActual","","","","","","null","","","","Images/WhiteBeadChoiceCorrect.png","","null"
"image-button-response","104","528361","0.0-13.0-0.15","19","Low_HMMActual","","","","","","1294.7999999523163","","","","Images/NewTrialWC.png","","2"
"image-button-response","105","528666","0.0-13.0-1.15","19","Low_HMMActual","","","","","","null","","","","Images/WhiteBeadChoice.png","","null"
"image-button-response","106","529176","0.0-13.0-2.15","19","Low_HMMActual","","","","","","null","","","","Images/WhiteBeadChoiceCorrect.png","","null"
"image-button-response","107","529689","0.0-13.0-0.16","19","Low_HMMActual","","","","","","503.09999990463257","","","","Images/NewTrialWC.png","","2"
"image-button-response","108","529994","0.0-13.0-1.16","19","Low_HMMActual","","","","","","null","","","","Images/WhiteBeadChoice.png","","null"
"image-button-response","109","530498","0.0-13.0-2.16","19","Low_HMMActual","","","","","","null","","","","Images/WhiteBeadChoiceWrong.png","","null"
"image-button-response","110","533025","0.0-13.0-0.17","19","Low_HMMActual","","","","","","2523.1999999284744","","","","Images/NewTrialBC.png","","0"
"image-button-response","111","533327","0.0-13.0-1.17","19","Low_HMMActual","","","","","","null","","","","Images/BlackBeadChoice.png","","null"
"image-button-response","112","533831","0.0-13.0-2.17","19","Low_HMMActual","","","","","","null","","","","Images/BlackBeadChoiceCorrect.png","","null"
"image-button-response","113","534329","0.0-13.0-0.18","19","Low_HMMActual","","","","","","487","","","","Images/NewTrialBC.png","","0"
"image-button-response","114","534635","0.0-13.0-1.18","19","Low_HMMActual","","","","","","null","","","","Images/BlackBeadChoice.png","","null"
"image-button-response","115","535146","0.0-13.0-2.18","19","Low_HMMActual","","","","","","null","","","","Images/BlackBeadChoiceCorrect.png","","null"
"image-button-response","116","535697","0.0-13.0-0.19","19","Low_HMMActual","","","","","","540.8999999761581","","","","Images/NewTrialBC.png","","0"
"image-button-response","117","536001","0.0-13.0-1.19","19","Low_HMMActual","","","","","","null","","","","Images/BlackBeadChoice.png","","null"
"image-button-response","118","536511","0.0-13.0-2.19","19","Low_HMMActual","","","","","","null","","","","Images/BlackBeadChoiceCorrect.png","","null"
"image-button-response","119","537001","0.0-13.0-0.20","19","Low_HMMActual","","","","","","479.7000000476837","","","","Images/NewTrialBC.png","","0"
"image-button-response","120","537305","0.0-13.0-1.20","19","Low_HMMActual","","","","","","null","","","","Images/BlackBeadChoice.png","","null"
"image-button-response","121","537813","0.0-13.0-2.20","19","Low_HMMActual","","","","","","null","","","","Images/BlackBeadChoiceCorrect.png","","null"
"image-button-response","122","538217","0.0-13.0-0.21","19","Low_HMMActual","","","","","","387","","","","Images/NewTrialBC.png","","0"
"image-button-response","123","538522","0.0-13.0-1.21","19","Low_HMMActual","","","","","","null","","","","Images/BlackBeadChoice.png","","null"
"image-button-response","124","539026","0.0-13.0-2.21","19","Low_HMMActual","","","","","","null","","","","Images/BlackBeadChoiceWrong.png","","null"
"image-button-response","125","540337","0.0-13.0-0.22","19","Low_HMMActual","","","","","","1307.3000000715256","","","","Images/NewTrialWC.png","","2"
"image-button-response","126","540639","0.0-13.0-1.22","19","Low_HMMActual","","","","","","null","","","","Images/WhiteBeadChoice.png","","null"
"image-button-response","127","541143","0.0-13.0-2.22","19","Low_HMMActual","","","","","","null","","","","Images/WhiteBeadChoiceWrong.png","","null"
"image-button-response","128","542193","0.0-13.0-0.23","19","Low_HMMActual","","","","","","1039.8000000715256","","","","Images/NewTrialBC.png","","2"
"image-button-response","129","542497","0.0-13.0-1.23","19","Low_HMMActual","","","","","","null","","","","Images/WhiteBeadChoice.png","","null"
"image-button-response","130","543001","0.0-13.0-2.23","19","Low_HMMActual","","","","","","null","","","","Images/WhiteBeadChoiceCorrect.png","","null"
"image-button-response","131","543393","0.0-13.0-0.24","19","Low_HMMActual","","","","","","382.2999999523163","","","","Images/NewTrialWC.png","","2"
"image-button-response","132","543697","0.0-13.0-1.24","19","Low_HMMActual","","","","","","null","","","","Images/WhiteBeadChoice.png","","null"
"image-button-response","133","544207","0.0-13.0-2.24","19","Low_HMMActual","","","","","","null","","","","Images/WhiteBeadChoiceWrong.png","","null"
"image-button-response","134","545601","0.0-13.0-0.25","19","Low_HMMActual","","","","","","1383.8000000715256","","","","Images/NewTrialBC.png","","0"
"image-button-response","135","545903","0.0-13.0-1.25","19","Low_HMMActual","","","","","","null","","","","Images/BlackBeadChoice.png","","null"
"image-button-response","136","546414","0.0-13.0-2.25","19","Low_HMMActual","","","","","","null","","","","Images/BlackBeadChoiceWrong.png","","null"
"image-button-response","137","549617","0.0-13.0-0.26","19","Low_HMMActual","","","","","","3193.5","","","","Images/NewTrialWC.png","","2"
"image-button-response","138","549922","0.0-13.0-1.26","19","Low_HMMActual","","","","","","null","","","","Images/WhiteBeadChoice.png","","null"
"image-button-response","139","550431","0.0-13.0-2.26","19","Low_HMMActual","","","","","","null","","","","Images/WhiteBeadChoiceWrong.png","","null"
"image-button-response","140","551360","0.0-13.0-0.27","19","Low_HMMActual","","","","","","918.2000000476837","","","","Images/NewTrialBC.png","","0"
"image-button-response","141","551668","0.0-13.0-1.27","19","Low_HMMActual","","","","","","null","","","","Images/BlackBeadChoice.png","","null"
"image-button-response","142","552179","0.0-13.0-2.27","19","Low_HMMActual","","","","","","null","","","","Images/BlackBeadChoiceCorrect.png","","null"
"image-button-response","143","553385","0.0-13.0-0.28","19","Low_HMMActual","","","","","","1195.1000000238419","","","","Images/NewTrialBC.png","","0"
"image-button-response","144","553690","0.0-13.0-1.28","19","Low_HMMActual","","","","","","null","","","","Images/BlackBeadChoice.png","","null"
"image-button-response","145","554195","0.0-13.0-2.28","19","Low_HMMActual","","","","","","null","","","","Images/BlackBeadChoiceWrong.png","","null"
"image-button-response","146","555233","0.0-13.0-0.29","19","Low_HMMActual","","","","","","1032.7000000476837","","","","Images/NewTrialWC.png","","2"
"image-button-response","147","555539","0.0-13.0-1.29","19","Low_HMMActual","","","","","","null","","","","Images/WhiteBeadChoice.png","","null"
"image-button-response","148","556088","0.0-13.0-2.29","19","Low_HMMActual","","","","","","null","","","","Images/WhiteBeadChoiceWrong.png","","null"
"image-button-response","149","556681","0.0-13.0-0.30","19","Low_HMMActual","","","","","","589.7999999523163","","","","Images/NewTrialBC.png","","0"
"image-button-response","150","556985","0.0-13.0-1.30","19","Low_HMMActual","","","","","","null","","","","Images/BlackBeadChoice.png","","null"
"image-button-response","151","557491","0.0-13.0-2.30","19","Low_HMMActual","","","","","","null","","","","Images/BlackBeadChoiceWrong.png","","null"
"image-button-response","152","559056","0.0-13.0-0.31","19","Low_HMMActual","","","","","","1553.2999999523163","","","","Images/NewTrialWC.png","","0"
"image-button-response","153","559362","0.0-13.0-1.31","19","Low_HMMActual","","","","","","null","","","","Images/BlackBeadChoice.png","","null"
"image-button-response","154","559871","0.0-13.0-2.31","19","Low_HMMActual","","","","","","null","","","","Images/BlackBeadChoiceWrong.png","","null"
"image-button-response","155","560841","0.0-13.0-0.32","19","Low_HMMActual","","","","","","960.1000000238419","","","","Images/NewTrialWC.png","","2"
"image-button-response","156","561145","0.0-13.0-1.32","19","Low_HMMActual","","","","","","null","","","","Images/WhiteBeadChoice.png","","null"
"image-button-response","157","561650","0.0-13.0-2.32","19","Low_HMMActual","","","","","","null","","","","Images/WhiteBeadChoiceCorrect.png","","null"
"image-button-response","158","561937","0.0-13.0-0.33","19","Low_HMMActual","","","","","","276","","","","Images/NewTrialWC.png","","2"
"image-button-response","159","562241","0.0-13.0-1.33","19","Low_HMMActual","","","","","","null","","","","Images/WhiteBeadChoice.png","","null"
"image-button-response","160","562747","0.0-13.0-2.33","19","Low_HMMActual","","","","","","null","","","","Images/WhiteBeadChoiceCorrect.png","","null"
"image-button-response","161","563465","0.0-13.0-0.34","19","Low_HMMActual","","","","","","707.8999999761581","","","","Images/NewTrialWC.png","","2"
"image-button-response","162","563770","0.0-13.0-1.34","19","Low_HMMActual","","","","","","null","","","","Images/WhiteBeadChoice.png","","null"
"image-button-response","163","564283","0.0-13.0-2.34","19","Low_HMMActual","","","","","","null","","","","Images/WhiteBeadChoiceWrong.png","","null"
"image-button-response","164","565969","0.0-13.0-0.35","19","Low_HMMActual","","","","","","1665.9000000953674","","","","Images/NewTrialBC.png","","0"
"image-button-response","165","566274","0.0-13.0-1.35","19","Low_HMMActual","","","","","","null","","","","Images/BlackBeadChoice.png","","null"
"image-button-response","166","566788","0.0-13.0-2.35","19","Low_HMMActual","","","","","","null","","","","Images/BlackBeadChoiceWrong.png","","null"
"image-button-response","167","567425","0.0-13.0-0.36","19","Low_HMMActual","","","","","","627.1000000238419","","","","Images/NewTrialWC.png","","2"
"image-button-response","168","567729","0.0-13.0-1.36","19","Low_HMMActual","","","","","","null","","","","Images/WhiteBeadChoice.png","","null"
"image-button-response","169","568240","0.0-13.0-2.36","19","Low_HMMActual","","","","","","null","","","","Images/WhiteBeadChoiceWrong.png","","null"
"image-button-response","170","569201","0.0-13.0-0.37","19","Low_HMMActual","","","","","","951.1999999284744","","","","Images/NewTrialBC.png","","2"
"image-button-response","171","569505","0.0-13.0-1.37","19","Low_HMMActual","","","","","","null","","","","Images/WhiteBeadChoice.png","","null"
"image-button-response","172","570009","0.0-13.0-2.37","19","Low_HMMActual","","","","","","null","","","","Images/WhiteBeadChoiceWrong.png","","null"
"image-button-response","173","570833","0.0-13.0-0.38","19","Low_HMMActual","","","","","","817.2999999523163","","","","Images/NewTrialBC.png","","0"
"image-button-response","174","571136","0.0-13.0-1.38","19","Low_HMMActual","","","","","","null","","","","Images/BlackBeadChoice.png","","null"
"image-button-response","175","571639","0.0-13.0-2.38","19","Low_HMMActual","","","","","","null","","","","Images/BlackBeadChoiceCorrect.png","","null"
"image-button-response","176","572048","0.0-13.0-0.39","19","Low_HMMActual","","","","","","400.5","","","","Images/NewTrialBC.png","","0"
"image-button-response","177","572353","0.0-13.0-1.39","19","Low_HMMActual","","","","","","null","","","","Images/BlackBeadChoice.png","","null"
"image-button-response","178","572857","0.0-13.0-2.39","19","Low_HMMActual","","","","","","null","","","","Images/BlackBeadChoiceWrong.png","","null"
"image-button-response","179","574288","0.0-13.0-0.40","19","Low_HMMActual","","","","","","1428.1000000238419","","","","Images/NewTrialWC.png","","1"
"image-button-response","180","574593","0.0-13.0-1.40","19","Low_HMMActual","","","","","","null","","","","Images/BlackBeadChoice.png","","null"
"image-button-response","181","575104","0.0-13.0-2.40","19","Low_HMMActual","","","","","","null","","","","Images/BlackBeadChoiceWrong.png","","null"
"image-button-response","182","576177","0.0-13.0-0.41","19","Low_HMMActual","","","","","","1066.6000000238419","","","","Images/NewTrialWC.png","","2"
"image-button-response","183","576484","0.0-13.0-1.41","19","Low_HMMActual","","","","","","null","","","","Images/WhiteBeadChoice.png","","null"
"image-button-response","184","576995","0.0-13.0-2.41","19","Low_HMMActual","","","","","","null","","","","Images/WhiteBeadChoiceCorrect.png","","null"
"image-button-response","185","577808","0.0-13.0-0.42","19","Low_HMMActual","","","","","","803.5","","","","Images/NewTrialWC.png","","2"
"image-button-response","186","578113","0.0-13.0-1.42","19","Low_HMMActual","","","","","","null","","","","Images/WhiteBeadChoice.png","","null"
"image-button-response","187","578620","0.0-13.0-2.42","19","Low_HMMActual","","","","","","null","","","","Images/WhiteBeadChoiceWrong.png","","null"
"image-button-response","188","579776","0.0-13.0-0.43","19","Low_HMMActual","","","","","","1146.1999999284744","","","","Images/NewTrialBC.png","","1"
"image-button-response","189","580081","0.0-13.0-1.43","19","Low_HMMActual","","","","","","null","","","","Images/BlackBeadChoice.png","","null"
"image-button-response","190","580591","0.0-13.0-2.43","19","Low_HMMActual","","","","","","null","","","","Images/BlackBeadChoiceWrong.png","","null"
"image-button-response","191","582736","0.0-13.0-0.44","19","Low_HMMActual","","","","","","2135.399999976158","","","","Images/NewTrialWC.png","","2"
"image-button-response","192","583041","0.0-13.0-1.44","19","Low_HMMActual","","","","","","null","","","","Images/WhiteBeadChoice.png","","null"
"image-button-response","193","583552","0.0-13.0-2.44","19","Low_HMMActual","","","","","","null","","","","Images/WhiteBeadChoiceWrong.png","","null"
"image-button-response","194","586112","0.0-13.0-0.45","19","Low_HMMActual","","","","","","2548.7999999523163","","","","Images/NewTrialBC.png","","2"
"image-button-response","195","586436","0.0-13.0-1.45","19","Low_HMMActual","","","","","","null","","","","Images/WhiteBeadChoice.png","","null"
"image-button-response","196","586939","0.0-13.0-2.45","19","Low_HMMActual","","","","","","null","","","","Images/WhiteBeadChoiceWrong.png","","null"
"image-button-response","197","587928","0.0-13.0-0.46","19","Low_HMMActual","","","","","","980.2999999523163","","","","Images/NewTrialBC.png","","0"
"image-button-response","198","588230","0.0-13.0-1.46","19","Low_HMMActual","","","","","","null","","","","Images/BlackBeadChoice.png","","null"
"image-button-response","199","588737","0.0-13.0-2.46","19","Low_HMMActual","","","","","","null","","","","Images/BlackBeadChoiceWrong.png","","null"
"image-button-response","200","589440","0.0-13.0-0.47","19","Low_HMMActual","","","","","","699.3999999761581","","","","Images/NewTrialWC.png","","3"
"image-button-response","201","589745","0.0-13.0-1.47","19","Low_HMMActual","","","","","","null","","","","Images/WhiteBeadChoice.png","","null"
"image-button-response","202","590247","0.0-13.0-2.47","19","Low_HMMActual","","","","","","null","","","","Images/WhiteBeadChoiceCorrect.png","","null"
"image-button-response","203","590601","0.0-13.0-0.48","19","Low_HMMActual","","","","","","349.2999999523163","","","","Images/NewTrialWC.png","","2"
"image-button-response","204","590906","0.0-13.0-1.48","19","Low_HMMActual","","","","","","null","","","","Images/WhiteBeadChoice.png","","null"
"image-button-response","205","591416","0.0-13.0-2.48","19","Low_HMMActual","","","","","","null","","","","Images/WhiteBeadChoiceCorrect.png","","null"
"image-button-response","206","592008","0.0-13.0-0.49","19","Low_HMMActual","","","","","","581.3999999761581","","","","Images/NewTrialWC.png","","2"
"image-button-response","207","592317","0.0-13.0-1.49","19","Low_HMMActual","","","","","","null","","","","Images/WhiteBeadChoice.png","","null"
"image-button-response","208","592827","0.0-13.0-2.49","19","Low_HMMActual","","","","","","null","","","","Images/WhiteBeadChoiceCorrect.png","","null"
"image-button-response","209","593281","0.0-13.0-0.50","19","Low_HMMActual","","","","","","443.2999999523163","","","","Images/NewTrialWC.png","","2"
"image-button-response","210","593590","0.0-13.0-1.50","19","Low_HMMActual","","","","","","null","","","","Images/WhiteBeadChoice.png","","null"
"image-button-response","211","594099","0.0-13.0-2.50","19","Low_HMMActual","","","","","","null","","","","Images/WhiteBeadChoiceWrong.png","","null"
"image-button-response","212","594760","0.0-13.0-0.51","19","Low_HMMActual","","","","","","649.9000000953674","","","","Images/NewTrialBC.png","","1"
"image-button-response","213","595065","0.0-13.0-1.51","19","Low_HMMActual","","","","","","null","","","","Images/BlackBeadChoice.png","","null"
"image-button-response","214","595570","0.0-13.0-2.51","19","Low_HMMActual","","","","","","null","","","","Images/BlackBeadChoiceCorrect.png","","null"
"image-button-response","215","596696","0.0-13.0-0.52","19","Low_HMMActual","","","","","","1117.3999999761581","","","","Images/NewTrialBC.png","","1"
"image-button-response","216","597004","0.0-13.0-1.52","19","Low_HMMActual","","","","","","null","","","","Images/BlackBeadChoice.png","","null"
"image-button-response","217","597515","0.0-13.0-2.52","19","Low_HMMActual","","","","","","null","","","","Images/BlackBeadChoiceCorrect.png","","null"
"image-button-response","218","598785","0.0-13.0-0.53","19","Low_HMMActual","","","","","","1256","","","","Images/NewTrialBC.png","","0"
"image-button-response","219","599087","0.0-13.0-1.53","19","Low_HMMActual","","","","","","null","","","","Images/BlackBeadChoice.png","","null"
"image-button-response","220","599588","0.0-13.0-2.53","19","Low_HMMActual","","","","","","null","","","","Images/BlackBeadChoiceWrong.png","","null"
"image-button-response","221","601440","0.0-13.0-0.54","19","Low_HMMActual","","","","","","1843","","","","Images/NewTrialWC.png","","3"
"image-button-response","222","601743","0.0-13.0-1.54","19","Low_HMMActual","","","","","","null","","","","Images/WhiteBeadChoice.png","","null"
"image-button-response","223","602246","0.0-13.0-2.54","19","Low_HMMActual","","","","","","null","","","","Images/WhiteBeadChoiceWrong.png","","null"
"image-button-response","224","603224","0.0-13.0-0.55","19","Low_HMMActual","","","","","","968","","","","Images/NewTrialBC.png","","0"
"image-button-response","225","603529","0.0-13.0-1.55","19","Low_HMMActual","","","","","","null","","","","Images/BlackBeadChoice.png","","null"
"image-button-response","226","604032","0.0-13.0-2.55","19","Low_HMMActual","","","","","","null","","","","Images/BlackBeadChoiceCorrect.png","","null"
"image-button-response","227","604416","0.0-13.0-0.56","19","Low_HMMActual","","","","","","374.09999990463257","","","","Images/NewTrialBC.png","","0"
"image-button-response","228","604721","0.0-13.0-1.56","19","Low_HMMActual","","","","","","null","","","","Images/BlackBeadChoice.png","","null"
"image-button-response","229","605237","0.0-13.0-2.56","19","Low_HMMActual","","","","","","null","","","","Images/BlackBeadChoiceCorrect.png","","null"
"image-button-response","230","605960","0.0-13.0-0.57","19","Low_HMMActual","","","","","","717.4000000953674","","","","Images/NewTrialBC.png","","0"
"image-button-response","231","606264","0.0-13.0-1.57","19","Low_HMMActual","","","","","","null","","","","Images/BlackBeadChoice.png","","null"
"image-button-response","232","606775","0.0-13.0-2.57","19","Low_HMMActual","","","","","","null","","","","Images/BlackBeadChoiceCorrect.png","","null"
"image-button-response","233","607536","0.0-13.0-0.58","19","Low_HMMActual","","","","","","751.2000000476837","","","","Images/NewTrialBC.png","","0"
"image-button-response","234","607842","0.0-13.0-1.58","19","Low_HMMActual","","","","","","null","","","","Images/BlackBeadChoice.png","","null"
"image-button-response","235","608354","0.0-13.0-2.58","19","Low_HMMActual","","","","","","null","","","","Images/BlackBeadChoiceCorrect.png","","null"
"image-button-response","236","614384","0.0-13.0-0.59","19","Low_HMMActual","","","","","","6020.100000023842","","","","Images/NewTrialBC.png","","1"
"image-button-response","237","614690","0.0-13.0-1.59","19","Low_HMMActual","","","","","","null","","","","Images/BlackBeadChoice.png","","null"
"image-button-response","238","615195","0.0-13.0-2.59","19","Low_HMMActual","","","","","","null","","","","Images/BlackBeadChoiceWrong.png","","null"
"image-button-response","239","616063","0.0-13.0-0.60","19","Low_HMMActual","","","","","","863.1999999284744","","","","Images/NewTrialWC.png","","2"
"image-button-response","240","616369","0.0-13.0-1.60","19","Low_HMMActual","","","","","","null","","","","Images/WhiteBeadChoice.png","","null"
"image-button-response","241","616871","0.0-13.0-2.60","19","Low_HMMActual","","","","","","null","","","","Images/WhiteBeadChoiceCorrect.png","","null"
"image-button-response","242","617256","0.0-13.0-0.61","19","Low_HMMActual","","","","","","379.5","","","","Images/NewTrialWC.png","","2"
"image-button-response","243","617562","0.0-13.0-1.61","19","Low_HMMActual","","","","","","null","","","","Images/WhiteBeadChoice.png","","null"
"image-button-response","244","618065","0.0-13.0-2.61","19","Low_HMMActual","","","","","","null","","","","Images/WhiteBeadChoiceCorrect.png","","null"
"image-button-response","245","618744","0.0-13.0-0.62","19","Low_HMMActual","","","","","","671.8999999761581","","","","Images/NewTrialWC.png","","2"
"image-button-response","246","619050","0.0-13.0-1.62","19","Low_HMMActual","","","","","","null","","","","Images/WhiteBeadChoice.png","","null"
"image-button-response","247","619554","0.0-13.0-2.62","19","Low_HMMActual","","","","","","null","","","","Images/WhiteBeadChoiceWrong.png","","null"
"image-button-response","248","620768","0.0-13.0-0.63","19","Low_HMMActual","","","","","","1212.3999999761581","","","","Images/NewTrialBC.png","","1"
"image-button-response","249","621072","0.0-13.0-1.63","19","Low_HMMActual","","","","","","null","","","","Images/BlackBeadChoice.png","","null"
"image-button-response","250","621575","0.0-13.0-2.63","19","Low_HMMActual","","","","","","null","","","","Images/BlackBeadChoiceCorrect.png","","null"
"image-button-response","251","699319","0.0-13.0-0.64","19","Low_HMMActual","","","","","","77737.69999992847","","","","Images/NewTrialBC.png","","1"
"image-button-response","252","699626","0.0-13.0-1.64","19","Low_HMMActual","","","","","","null","","","","Images/BlackBeadChoice.png","","null"
"image-button-response","253","700138","0.0-13.0-2.64","19","Low_HMMActual","","","","","","null","","","","Images/BlackBeadChoiceWrong.png","","null"
"image-button-response","254","700815","0.0-13.0-0.65","19","Low_HMMActual","","","","","","670.6999999284744","","","","Images/NewTrialWC.png","","2"
"image-button-response","255","701120","0.0-13.0-1.65","19","Low_HMMActual","","","","","","null","","","","Images/WhiteBeadChoice.png","","null"
"image-button-response","256","701626","0.0-13.0-2.65","19","Low_HMMActual","","","","","","null","","","","Images/WhiteBeadChoiceWrong.png","","null"
"image-button-response","257","703151","0.0-13.0-0.66","19","Low_HMMActual","","","","","","1518.8999999761581","","","","Images/NewTrialBC.png","","2"
"image-button-response","258","703459","0.0-13.0-1.66","19","Low_HMMActual","","","","","","null","","","","Images/WhiteBeadChoice.png","","null"
"image-button-response","259","703965","0.0-13.0-2.66","19","Low_HMMActual","","","","","","null","","","","Images/WhiteBeadChoiceWrong.png","","null"
"image-button-response","260","704718","0.0-13.0-0.67","19","Low_HMMActual","","","","","","746.7000000476837","","","","Images/NewTrialBC.png","","0"
"image-button-response","261","705023","0.0-13.0-1.67","19","Low_HMMActual","","","","","","null","","","","Images/BlackBeadChoice.png","","null"
"image-button-response","262","705529","0.0-13.0-2.67","19","Low_HMMActual","","","","","","null","","","","Images/BlackBeadChoiceCorrect.png","","null"
"image-button-response","263","705959","0.0-13.0-0.68","19","Low_HMMActual","","","","","","424.10000002384186","","","","Images/NewTrialBC.png","","0"
"image-button-response","264","706265","0.0-13.0-1.68","19","Low_HMMActual","","","","","","null","","","","Images/BlackBeadChoice.png","","null"
"image-button-response","265","706770","0.0-13.0-2.68","19","Low_HMMActual","","","","","","null","","","","Images/BlackBeadChoiceWrong.png","","null"
"image-button-response","266","707937","0.0-13.0-0.69","19","Low_HMMActual","","","","","","1143.1000000238419","","","","Images/NewTrialWC.png","","2"
"image-button-response","267","708242","0.0-13.0-1.69","19","Low_HMMActual","","","","","","null","","","","Images/WhiteBeadChoice.png","","null"
"image-button-response","268","708748","0.0-13.0-2.69","19","Low_HMMActual","","","","","","null","","","","Images/WhiteBeadChoiceWrong.png","","null"
"image-button-response","269","709623","0.0-13.0-0.70","19","Low_HMMActual","","","","","","864.2000000476837","","","","Images/NewTrialBC.png","","0"
"image-button-response","270","709926","0.0-13.0-1.70","19","Low_HMMActual","","","","","","null","","","","Images/BlackBeadChoice.png","","null"
"image-button-response","271","710428","0.0-13.0-2.70","19","Low_HMMActual","","","","","","null","","","","Images/BlackBeadChoiceWrong.png","","null"
"image-button-response","272","710624","0.0-13.0-0.71","19","Low_HMMActual","","","","","","186.39999997615814","","","","Images/NewTrialWC.png","","0"
"image-button-response","273","710929","0.0-13.0-1.71","19","Low_HMMActual","","","","","","null","","","","Images/BlackBeadChoice.png","","null"
"image-button-response","274","711432","0.0-13.0-2.71","19","Low_HMMActual","","","","","","427.2999999523163","","","","Images/BlackBeadChoiceCorrect.png","","0"
"image-button-response","275","712014","0.0-13.0-0.72","19","Low_HMMActual","","","","","","559.8999999761581","","","","Images/NewTrialBC.png","","0"
"image-button-response","276","712320","0.0-13.0-1.72","19","Low_HMMActual","","","","","","null","","","","Images/BlackBeadChoice.png","","null"
"image-button-response","277","712828","0.0-13.0-2.72","19","Low_HMMActual","","","","","","423.09999990463257","","","","Images/BlackBeadChoiceCorrect.png","","0"
"image-button-response","278","713294","0.0-13.0-0.73","19","Low_HMMActual","","","","","","460.1999999284744","","","","Images/NewTrialBC.png","","0"
"image-button-response","279","713600","0.0-13.0-1.73","19","Low_HMMActual","","","","","","null","","","","Images/BlackBeadChoice.png","","null"
"image-button-response","280","714126","0.0-13.0-2.73","19","Low_HMMActual","","","","","","426.5","","","","Images/BlackBeadChoiceCorrect.png","","0"
"image-button-response","281","714615","0.0-13.0-0.74","19","Low_HMMActual","","","","","","482.5","","","","Images/NewTrialBC.png","","0"
"image-button-response","282","714921","0.0-13.0-1.74","19","Low_HMMActual","","","","","","null","","","","Images/BlackBeadChoice.png","","null"
"image-button-response","283","715427","0.0-13.0-2.74","19","Low_HMMActual","","","","","","439.7000000476837","","","","Images/BlackBeadChoiceCorrect.png","","0"
"image-button-response","284","715999","0.0-13.0-0.75","19","Low_HMMActual","","","","","","563.9000000953674","","","","Images/NewTrialBC.png","","0"
"image-button-response","285","716308","0.0-13.0-1.75","19","Low_HMMActual","","","","","","null","","","","Images/BlackBeadChoice.png","","null"
"image-button-response","286","716815","0.0-13.0-2.75","19","Low_HMMActual","","","","","","427.10000002384186","","","","Images/BlackBeadChoiceCorrect.png","","0"
"image-button-response","287","717271","0.0-13.0-0.76","19","Low_HMMActual","","","","","","449.90000009536743","","","","Images/NewTrialBC.png","","0"
"image-button-response","288","717579","0.0-13.0-1.76","19","Low_HMMActual","","","","","","null","","","","Images/BlackBeadChoice.png","","null"
"image-button-response","289","718091","0.0-13.0-2.76","19","Low_HMMActual","","","","","","471.7000000476837","","","","Images/BlackBeadChoiceCorrect.png","","0"
"image-button-response","290","718446","0.0-13.0-0.77","19","Low_HMMActual","","","","","","350.60000002384186","","","","Images/NewTrialBC.png","","0"
"image-button-response","291","718748","0.0-13.0-1.77","19","Low_HMMActual","","","","","","null","","","","Images/BlackBeadChoice.png","","null"
"image-button-response","292","719253","0.0-13.0-2.77","19","Low_HMMActual","","","","","","null","","","","Images/BlackBeadChoiceWrong.png","","null"
"image-button-response","293","724510","0.0-13.0-0.78","19","Low_HMMActual","","","","","","5252.799999952316","","","","Images/NewTrialWC.png","","3"
"image-button-response","294","724813","0.0-13.0-1.78","19","Low_HMMActual","","","","","","null","","","","Images/WhiteBeadChoice.png","","null"
"image-button-response","295","725315","0.0-13.0-2.78","19","Low_HMMActual","","","","","","null","","","","Images/WhiteBeadChoiceWrong.png","","null"
"image-button-response","296","725678","0.0-13.0-0.79","19","Low_HMMActual","","","","","","353.2000000476837","","","","Images/NewTrialBC.png","","0"
"image-button-response","297","725984","0.0-13.0-1.79","19","Low_HMMActual","","","","","","null","","","","Images/BlackBeadChoice.png","","null"
"image-button-response","298","726505","0.0-13.0-2.79","19","Low_HMMActual","","","","","","410.7999999523163","","","","Images/BlackBeadChoiceCorrect.png","","0"
"image-button-response","299","726934","0.0-13.0-0.80","19","Low_HMMActual","","","","","","417.89999997615814","","","","Images/NewTrialBC.png","","0"
"image-button-response","300","727241","0.0-13.0-1.80","19","Low_HMMActual","","","","","","null","","","","Images/BlackBeadChoice.png","","null"
"image-button-response","301","727751","0.0-13.0-2.80","19","Low_HMMActual","","","","","","null","","","","Images/BlackBeadChoiceWrong.png","","null"
"image-button-response","302","731550","0.0-13.0-0.81","19","Low_HMMActual","","","","","","3791.600000023842","","","","Images/NewTrialWC.png","","0"
"image-button-response","303","731857","0.0-13.0-1.81","19","Low_HMMActual","","","","","","null","","","","Images/BlackBeadChoice.png","","null"
"image-button-response","304","732365","0.0-13.0-2.81","19","Low_HMMActual","","","","","","null","","","","Images/BlackBeadChoiceWrong.png","","null"
"image-button-response","305","733582","0.0-13.0-0.82","19","Low_HMMActual","","","","","","1211.6000000238419","","","","Images/NewTrialWC.png","","3"
"image-button-response","306","733887","0.0-13.0-1.82","19","Low_HMMActual","","","","","","null","","","","Images/WhiteBeadChoice.png","","null"
"image-button-response","307","734391","0.0-13.0-2.82","19","Low_HMMActual","","","","","","null","","","","Images/WhiteBeadChoiceWrong.png","","null"
"image-button-response","308","735702","0.0-13.0-0.83","19","Low_HMMActual","","","","","","1305.2999999523163","","","","Images/NewTrialBC.png","","0"
"image-button-response","309","736008","0.0-13.0-1.83","19","Low_HMMActual","","","","","","null","","","","Images/BlackBeadChoice.png","","null"
"image-button-response","310","736514","0.0-13.0-2.83","19","Low_HMMActual","","","","","","480","","","","Images/BlackBeadChoiceCorrect.png","","0"
"image-button-response","311","736926","0.0-13.0-0.84","19","Low_HMMActual","","","","","","406.5","","","","Images/NewTrialBC.png","","0"
"image-button-response","312","737231","0.0-13.0-1.84","19","Low_HMMActual","","","","","","null","","","","Images/BlackBeadChoice.png","","null"
"image-button-response","313","737736","0.0-13.0-2.84","19","Low_HMMActual","","","","","","465.7999999523163","","","","Images/BlackBeadChoiceCorrect.png","","0"
"image-button-response","314","738150","0.0-13.0-0.85","19","Low_HMMActual","","","","","","407.39999997615814","","","","Images/NewTrialBC.png","","0"
"image-button-response","315","738452","0.0-13.0-1.85","19","Low_HMMActual","","","","","","null","","","","Images/BlackBeadChoice.png","","null"
"image-button-response","316","738962","0.0-13.0-2.85","19","Low_HMMActual","","","","","","448.3000000715256","","","","Images/BlackBeadChoiceCorrect.png","","0"
"image-button-response","317","739310","0.0-13.0-0.86","19","Low_HMMActual","","","","","","343.1999999284744","","","","Images/NewTrialBC.png","","0"
"image-button-response","318","739615","0.0-13.0-1.86","19","Low_HMMActual","","","","","","null","","","","Images/BlackBeadChoice.png","","null"
"image-button-response","319","740118","0.0-13.0-2.86","19","Low_HMMActual","","","","","","null","","","","Images/BlackBeadChoiceWrong.png","","null"
"image-button-response","320","742774","0.0-13.0-0.87","19","Low_HMMActual","","","","","","2653.3000000715256","","","","Images/NewTrialWC.png","","3"
"image-button-response","321","743077","0.0-13.0-1.87","19","Low_HMMActual","","","","","","null","","","","Images/WhiteBeadChoice.png","","null"
"image-button-response","322","743592","0.0-13.0-2.87","19","Low_HMMActual","","","","","","null","","","","Images/WhiteBeadChoiceCorrect.png","","null"
"image-button-response","323","745478","0.0-13.0-0.88","19","Low_HMMActual","","","","","","1876.2999999523163","","","","Images/NewTrialWC.png","","2"
"image-button-response","324","745783","0.0-13.0-1.88","19","Low_HMMActual","","","","","","null","","","","Images/WhiteBeadChoice.png","","null"
"image-button-response","325","746292","0.0-13.0-2.88","19","Low_HMMActual","","","","","","null","","","","Images/WhiteBeadChoiceCorrect.png","","null"
"image-button-response","326","747158","0.0-13.0-0.89","19","Low_HMMActual","","","","","","857.7999999523163","","","","Images/NewTrialWC.png","","3"
"image-button-response","327","747463","0.0-13.0-1.89","19","Low_HMMActual","","","","","","null","","","","Images/WhiteBeadChoice.png","","null"
"image-button-response","328","747967","0.0-13.0-2.89","19","Low_HMMActual","","","","","","null","","","","Images/WhiteBeadChoiceWrong.png","","null"
"image-button-response","329","748974","0.0-13.0-0.90","19","Low_HMMActual","","","","","","1003.4000000953674","","","","Images/NewTrialBC.png","","1"
"image-button-response","330","749281","0.0-13.0-1.90","19","Low_HMMActual","","","","","","null","","","","Images/BlackBeadChoice.png","","null"
"image-button-response","331","749792","0.0-13.0-2.90","19","Low_HMMActual","","","","","","null","","","","Images/BlackBeadChoiceCorrect.png","","null"
"image-button-response","332","750375","0.0-13.0-0.91","19","Low_HMMActual","","","","","","576.2999999523163","","","","Images/NewTrialBC.png","","0"
"image-button-response","333","750679","0.0-13.0-1.91","19","Low_HMMActual","","","","","","null","","","","Images/BlackBeadChoice.png","","null"
"image-button-response","334","751184","0.0-13.0-2.91","19","Low_HMMActual","","","","","","490.10000002384186","","","","Images/BlackBeadChoiceCorrect.png","","0"
"image-button-response","335","751694","0.0-13.0-0.92","19","Low_HMMActual","","","","","","505.5","","","","Images/NewTrialBC.png","","0"
"image-button-response","336","752000","0.0-13.0-1.92","19","Low_HMMActual","","","","","","null","","","","Images/BlackBeadChoice.png","","null"
"image-button-response","337","752512","0.0-13.0-2.92","19","Low_HMMActual","","","","","","null","","","","Images/BlackBeadChoiceWrong.png","","null"
"image-button-response","338","753118","0.0-13.0-0.93","19","Low_HMMActual","","","","","","599.1000000238419","","","","Images/NewTrialWC.png","","3"
"image-button-response","339","753423","0.0-13.0-1.93","19","Low_HMMActual","","","","","","null","","","","Images/WhiteBeadChoice.png","","null"
"image-button-response","340","753925","0.0-13.0-2.93","19","Low_HMMActual","","","","","","null","","","","Images/WhiteBeadChoiceCorrect.png","","null"
"image-button-response","341","754550","0.0-13.0-0.94","19","Low_HMMActual","","","","","","618.6000000238419","","","","Images/NewTrialWC.png","","2"
"image-button-response","342","754856","0.0-13.0-1.94","19","Low_HMMActual","","","","","","null","","","","Images/WhiteBeadChoice.png","","null"
"image-button-response","343","755363","0.0-13.0-2.94","19","Low_HMMActual","","","","","","null","","","","Images/WhiteBeadChoiceWrong.png","","null"
"image-button-response","344","755886","0.0-13.0-0.95","19","Low_HMMActual","","","","","","516.6000000238419","","","","Images/NewTrialBC.png","","0"
"image-button-response","345","756192","0.0-13.0-1.95","19","Low_HMMActual","","","","","","null","","","","Images/BlackBeadChoice.png","","null"
"image-button-response","346","756695","0.0-13.0-2.95","19","Low_HMMActual","","","","","","null","","","","Images/BlackBeadChoiceCorrect.png","","null"
"image-button-response","347","756870","0.0-13.0-0.96","19","Low_HMMActual","","","","","","170","","","","Images/NewTrialBC.png","","0"
"image-button-response","348","757176","0.0-13.0-1.96","19","Low_HMMActual","","","","","","null","","","","Images/BlackBeadChoice.png","","null"
"image-button-response","349","757684","0.0-13.0-2.96","19","Low_HMMActual","","","","","","495.39999997615814","","","","Images/BlackBeadChoiceCorrect.png","","0"
"image-button-response","350","758206","0.0-13.0-0.97","19","Low_HMMActual","","","","","","518.1000000238419","","","","Images/NewTrialBC.png","","0"
"image-button-response","351","758511","0.0-13.0-1.97","19","Low_HMMActual","","","","","","null","","","","Images/BlackBeadChoice.png","","null"
"image-button-response","352","759019","0.0-13.0-2.97","19","Low_HMMActual","","","","","","null","","","","Images/BlackBeadChoiceCorrect.png","","null"
"image-button-response","353","759294","0.0-13.0-0.98","19","Low_HMMActual","","","","","","264.40000009536743","","","","Images/NewTrialBC.png","","0"
"image-button-response","354","759598","0.0-13.0-1.98","19","Low_HMMActual","","","","","","null","","","","Images/BlackBeadChoice.png","","null"
"image-button-response","355","760102","0.0-13.0-2.98","19","Low_HMMActual","","","","","","null","","","","Images/BlackBeadChoiceWrong.png","","null"
"image-button-response","356","760806","0.0-13.0-0.99","19","Low_HMMActual","","","","","","699.2000000476837","","","","Images/NewTrialWC.png","","3"
"image-button-response","357","761111","0.0-13.0-1.99","19","Low_HMMActual","","","","","","null","","","","Images/WhiteBeadChoice.png","","null"
"image-button-response","358","761618","0.0-13.0-2.99","19","Low_HMMActual","","","","","","null","","","","Images/WhiteBeadChoiceWrong.png","","null"
"image-button-response","359","762430","0.0-13.0-0.100","19","Low_HMMActual","","","","","","803.9000000953674","","","","Images/NewTrialBC.png","","0"
"image-button-response","360","762734","0.0-13.0-1.100","19","Low_HMMActual","","","","","","null","","","","Images/BlackBeadChoice.png","","null"
"image-button-response","361","763244","0.0-13.0-2.100","19","Low_HMMActual","","","","","","null","","","","Images/BlackBeadChoiceWrong.png","","null"
"image-button-response","362","764047","0.0-13.0-0.101","19","Low_HMMActual","","","","","","796.1000000238419","","","","Images/NewTrialWC.png","","3"
"image-button-response","363","764351","0.0-13.0-1.101","19","Low_HMMActual","","","","","","null","","","","Images/WhiteBeadChoice.png","","null"
"image-button-response","364","764856","0.0-13.0-2.101","19","Low_HMMActual","","","","","","null","","","","Images/WhiteBeadChoiceCorrect.png","","null"
"image-button-response","365","765734","0.0-13.0-0.102","19","Low_HMMActual","","","","","","867.1000000238419","","","","Images/NewTrialWC.png","","3"
"image-button-response","366","766040","0.0-13.0-1.102","19","Low_HMMActual","","","","","","null","","","","Images/WhiteBeadChoice.png","","null"
"image-button-response","367","766550","0.0-13.0-2.102","19","Low_HMMActual","","","","","","null","","","","Images/WhiteBeadChoiceCorrect.png","","null"
"image-button-response","368","767246","0.0-13.0-0.103","19","Low_HMMActual","","","","","","688.8000000715256","","","","Images/NewTrialWC.png","","2"
"image-button-response","369","767555","0.0-13.0-1.103","19","Low_HMMActual","","","","","","null","","","","Images/WhiteBeadChoice.png","","null"
"image-button-response","370","768060","0.0-13.0-2.103","19","Low_HMMActual","","","","","","null","","","","Images/WhiteBeadChoiceWrong.png","","null"
"image-button-response","371","768622","0.0-13.0-0.104","19","Low_HMMActual","","","","","","555.8000000715256","","","","Images/NewTrialBC.png","","0"
"image-button-response","372","768925","0.0-13.0-1.104","19","Low_HMMActual","","","","","","null","","","","Images/BlackBeadChoice.png","","null"
"image-button-response","373","769428","0.0-13.0-2.104","19","Low_HMMActual","","","","","","null","","","","Images/BlackBeadChoiceWrong.png","","null"
"image-button-response","374","770838","0.0-13.0-0.105","19","Low_HMMActual","","","","","","1404.3000000715256","","","","Images/NewTrialWC.png","","3"
"image-button-response","375","771146","0.0-13.0-1.105","19","Low_HMMActual","","","","","","null","","","","Images/WhiteBeadChoice.png","","null"
"image-button-response","376","771656","0.0-13.0-2.105","19","Low_HMMActual","","","","","","null","","","","Images/WhiteBeadChoiceCorrect.png","","null"
"image-button-response","377","772366","0.0-13.0-0.106","19","Low_HMMActual","","","","","","699.8000000715256","","","","Images/NewTrialWC.png","","3"
"image-button-response","378","772672","0.0-13.0-1.106","19","Low_HMMActual","","","","","","null","","","","Images/WhiteBeadChoice.png","","null"
"image-button-response","379","773185","0.0-13.0-2.106","19","Low_HMMActual","","","","","","null","","","","Images/WhiteBeadChoiceCorrect.png","","null"
"image-button-response","380","774750","0.0-13.0-0.107","19","Low_HMMActual","","","","","","1559.2999999523163","","","","Images/NewTrialWC.png","","0"
"image-button-response","381","775055","0.0-13.0-1.107","19","Low_HMMActual","","","","","","null","","","","Images/BlackBeadChoice.png","","null"
"image-button-response","382","775569","0.0-13.0-2.107","19","Low_HMMActual","","","","","","null","","","","Images/BlackBeadChoiceWrong.png","","null"
"image-button-response","383","776702","0.0-13.0-0.108","19","Low_HMMActual","","","","","","1124.5999999046326","","","","Images/NewTrialWC.png","","0"
"image-button-response","384","777008","0.0-13.0-1.108","19","Low_HMMActual","","","","","","null","","","","Images/BlackBeadChoice.png","","null"
"image-button-response","385","777515","0.0-13.0-2.108","19","Low_HMMActual","","","","","","null","","","","Images/BlackBeadChoiceWrong.png","","null"
"image-button-response","386","777926","0.0-13.0-0.109","19","Low_HMMActual","","","","","","398.5","","","","Images/NewTrialWC.png","","0"
"image-button-response","387","778228","0.0-13.0-1.109","19","Low_HMMActual","","","","","","null","","","","Images/BlackBeadChoice.png","","null"
"image-button-response","388","778732","0.0-13.0-2.109","19","Low_HMMActual","","","","","","null","","","","Images/BlackBeadChoiceWrong.png","","null"
"image-button-response","389","779502","0.0-13.0-0.110","19","Low_HMMActual","","","","","","758.7999999523163","","","","Images/NewTrialWC.png","","3"
"image-button-response","390","779805","0.0-13.0-1.110","19","Low_HMMActual","","","","","","null","","","","Images/WhiteBeadChoice.png","","null"
"image-button-response","391","780310","0.0-13.0-2.110","19","Low_HMMActual","","","","","","null","","","","Images/WhiteBeadChoiceWrong.png","","null"
"image-button-response","392","781021","0.0-13.0-0.111","19","Low_HMMActual","","","","","","701.0999999046326","","","","Images/NewTrialBC.png","","0"
"image-button-response","393","781326","0.0-13.0-1.111","19","Low_HMMActual","","","","","","null","","","","Images/BlackBeadChoice.png","","null"
"image-button-response","394","781830","0.0-13.0-2.111","19","Low_HMMActual","","","","","","null","","","","Images/BlackBeadChoiceCorrect.png","","null"
"image-button-response","395","782318","0.0-13.0-0.112","19","Low_HMMActual","","","","","","478.5","","","","Images/NewTrialBC.png","","0"
"image-button-response","396","782622","0.0-13.0-1.112","19","Low_HMMActual","","","","","","null","","","","Images/BlackBeadChoice.png","","null"
"image-button-response","397","783130","0.0-13.0-2.112","19","Low_HMMActual","","","","","","null","","","","Images/BlackBeadChoiceWrong.png","","null"
"image-button-response","398","783824","0.0-13.0-0.113","19","Low_HMMActual","","","","","","687.7999999523163","","","","Images/NewTrialWC.png","","3"
"image-button-response","399","784131","0.0-13.0-1.113","19","Low_HMMActual","","","","","","null","","","","Images/WhiteBeadChoice.png","","null"
"image-button-response","400","784635","0.0-13.0-2.113","19","Low_HMMActual","","","","","","null","","","","Images/WhiteBeadChoiceCorrect.png","","null"
"image-button-response","401","784927","0.0-13.0-0.114","19","Low_HMMActual","","","","","","278.2000000476837","","","","Images/NewTrialWC.png","","3"
"image-button-response","402","785232","0.0-13.0-1.114","19","Low_HMMActual","","","","","","null","","","","Images/WhiteBeadChoice.png","","null"
"image-button-response","403","785743","0.0-13.0-2.114","19","Low_HMMActual","","","","","","null","","","","Images/WhiteBeadChoiceCorrect.png","","null"
"image-button-response","404","786230","0.0-13.0-0.115","19","Low_HMMActual","","","","","","475.7999999523163","","","","Images/NewTrialWC.png","","3"
"image-button-response","405","786534","0.0-13.0-1.115","19","Low_HMMActual","","","","","","null","","","","Images/WhiteBeadChoice.png","","null"
"image-button-response","406","787045","0.0-13.0-2.115","19","Low_HMMActual","","","","","","null","","","","Images/WhiteBeadChoiceCorrect.png","","null"
"image-button-response","407","788414","0.0-13.0-0.116","19","Low_HMMActual","","","","","","1358.7999999523163","","","","Images/NewTrialWC.png","","1"
"image-button-response","408","788718","0.0-13.0-1.116","19","Low_HMMActual","","","","","","null","","","","Images/BlackBeadChoice.png","","null"
"image-button-response","409","789228","0.0-13.0-2.116","19","Low_HMMActual","","","","","","null","","","","Images/BlackBeadChoiceCorrect.png","","null"
"image-button-response","410","789701","0.0-13.0-0.117","19","Low_HMMActual","","","","","","438.10000002384186","","","","Images/NewTrialBC.png","","0"
"image-button-response","411","790004","0.0-13.0-1.117","19","Low_HMMActual","","","","","","null","","","","Images/BlackBeadChoice.png","","null"
"image-button-response","412","790514","0.0-13.0-2.117","19","Low_HMMActual","","","","","","null","","","","Images/BlackBeadChoiceCorrect.png","","null"
"image-button-response","413","790669","0.0-13.0-0.118","19","Low_HMMActual","","","","","","143.80000007152557","","","","Images/NewTrialBC.png","","0"
"image-button-response","414","790975","0.0-13.0-1.118","19","Low_HMMActual","","","","","","null","","","","Images/BlackBeadChoice.png","","null"
"image-button-response","415","791481","0.0-13.0-2.118","19","Low_HMMActual","","","","","","null","","","","Images/BlackBeadChoiceCorrect.png","","null"
"image-button-response","416","791597","0.0-13.0-0.119","19","Low_HMMActual","","","","","","104.40000009536743","","","","Images/NewTrialBC.png","","0"
"image-button-response","417","791901","0.0-13.0-1.119","19","Low_HMMActual","","","","","","null","","","","Images/BlackBeadChoice.png","","null"
"image-button-response","418","792408","0.0-13.0-2.119","19","Low_HMMActual","","","","","","null","","","","Images/BlackBeadChoiceCorrect.png","","null"
"image-button-response","419","792515","0.0-13.0-0.120","19","Low_HMMActual","","","","","","100.39999997615814","","","","Images/NewTrialBC.png","","0"
"image-button-response","420","792821","0.0-13.0-1.120","19","Low_HMMActual","","","","","","null","","","","Images/BlackBeadChoice.png","","null"
"image-button-response","421","793325","0.0-13.0-2.120","19","Low_HMMActual","","","","","","null","","","","Images/BlackBeadChoiceWrong.png","","null"
"image-button-response","422","794933","0.0-13.0-0.121","19","Low_HMMActual","","","","","","1603.8000000715256","","","","Images/NewTrialWC.png","","3"
"image-button-response","423","795236","0.0-13.0-1.121","19","Low_HMMActual","","","","","","null","","","","Images/WhiteBeadChoice.png","","null"
"image-button-response","424","795740","0.0-13.0-2.121","19","Low_HMMActual","","","","","","null","","","","Images/WhiteBeadChoiceCorrect.png","","null"
"image-button-response","425","796733","0.0-13.0-0.122","19","Low_HMMActual","","","","","","986.8000000715256","","","","Images/NewTrialWC.png","","3"
"image-button-response","426","797041","0.0-13.0-1.122","19","Low_HMMActual","","","","","","null","","","","Images/WhiteBeadChoice.png","","null"
"image-button-response","427","797551","0.0-13.0-2.122","19","Low_HMMActual","","","","","","null","","","","Images/WhiteBeadChoiceCorrect.png","","null"
"image-button-response","428","797966","0.0-13.0-0.123","19","Low_HMMActual","","","","","","407.10000002384186","","","","Images/NewTrialWC.png","","2"
"image-button-response","429","798271","0.0-13.0-1.123","19","Low_HMMActual","","","","","","null","","","","Images/WhiteBeadChoice.png","","null"
"image-button-response","430","798773","0.0-13.0-2.123","19","Low_HMMActual","","","","","","null","","","","Images/WhiteBeadChoiceWrong.png","","null"
"image-button-response","431","799317","0.0-13.0-0.124","19","Low_HMMActual","","","","","","537.5","","","","Images/NewTrialBC.png","","1"
"image-button-response","432","799622","0.0-13.0-1.124","19","Low_HMMActual","","","","","","null","","","","Images/BlackBeadChoice.png","","null"
"image-button-response","433","800134","0.0-13.0-2.124","19","Low_HMMActual","","","","","","null","","","","Images/BlackBeadChoiceCorrect.png","","null"
"image-button-response","434","801253","0.0-13.0-0.125","19","Low_HMMActual","","","","","","1092","","","","Images/NewTrialBC.png","","0"
"image-button-response","435","801556","0.0-13.0-1.125","19","Low_HMMActual","","","","","","null","","","","Images/BlackBeadChoice.png","","null"
"image-button-response","436","802063","0.0-13.0-2.125","19","Low_HMMActual","","","","","","null","","","","Images/BlackBeadChoiceWrong.png","","null"
"image-button-response","437","802661","0.0-13.0-0.126","19","Low_HMMActual","","","","","","595.3000000715256","","","","Images/NewTrialWC.png","","3"
"image-button-response","438","802963","0.0-13.0-1.126","19","Low_HMMActual","","","","","","null","","","","Images/WhiteBeadChoice.png","","null"
"image-button-response","439","803467","0.0-13.0-2.126","19","Low_HMMActual","","","","","","null","","","","Images/WhiteBeadChoiceWrong.png","","null"
"image-button-response","440","804621","0.0-13.0-0.127","19","Low_HMMActual","","","","","","1147.3999999761581","","","","Images/NewTrialBC.png","","0"
"image-button-response","441","804928","0.0-13.0-1.127","19","Low_HMMActual","","","","","","null","","","","Images/BlackBeadChoice.png","","null"
"image-button-response","442","805435","0.0-13.0-2.127","19","Low_HMMActual","","","","","","null","","","","Images/BlackBeadChoiceCorrect.png","","null"
"image-button-response","443","805885","0.0-13.0-0.128","19","Low_HMMActual","","","","","","434.8000000715256","","","","Images/NewTrialBC.png","","0"
"image-button-response","444","806190","0.0-13.0-1.128","19","Low_HMMActual","","","","","","null","","","","Images/BlackBeadChoice.png","","null"
"image-button-response","445","806697","0.0-13.0-2.128","19","Low_HMMActual","","","","","","null","","","","Images/BlackBeadChoiceCorrect.png","","null"
"image-button-response","446","807509","0.0-13.0-0.129","19","Low_HMMActual","","","","","","803.9000000953674","","","","Images/NewTrialBC.png","","0"
"image-button-response","447","807816","0.0-13.0-1.129","19","Low_HMMActual","","","","","","null","","","","Images/BlackBeadChoice.png","","null"
"image-button-response","448","808328","0.0-13.0-2.129","19","Low_HMMActual","","","","","","null","","","","Images/BlackBeadChoiceCorrect.png","","null"
"image-button-response","449","808973","0.0-13.0-0.130","19","Low_HMMActual","","","","","","634.4000000953674","","","","Images/NewTrialBC.png","","0"
"image-button-response","450","809279","0.0-13.0-1.130","19","Low_HMMActual","","","","","","null","","","","Images/BlackBeadChoice.png","","null"
"image-button-response","451","809790","0.0-13.0-2.130","19","Low_HMMActual","","","","","","null","","","","Images/BlackBeadChoiceCorrect.png","","null"
"image-button-response","452","810117","0.0-13.0-0.131","19","Low_HMMActual","","","","","","316.39999997615814","","","","Images/NewTrialBC.png","","0"
"image-button-response","453","810423","0.0-13.0-1.131","19","Low_HMMActual","","","","","","null","","","","Images/BlackBeadChoice.png","","null"
"image-button-response","454","810930","0.0-13.0-2.131","19","Low_HMMActual","","","","","","null","","","","Images/BlackBeadChoiceCorrect.png","","null"
"image-button-response","455","811742","0.0-13.0-0.132","19","Low_HMMActual","","","","","","807.2999999523163","","","","Images/NewTrialBC.png","","1"
"image-button-response","456","812047","0.0-13.0-1.132","19","Low_HMMActual","","","","","","null","","","","Images/BlackBeadChoice.png","","null"
"image-button-response","457","812554","0.0-13.0-2.132","19","Low_HMMActual","","","","","","null","","","","Images/BlackBeadChoiceCorrect.png","","null"
"image-button-response","458","813133","0.0-13.0-0.133","19","Low_HMMActual","","","","","","571","","","","Images/NewTrialBC.png","","3"
"image-button-response","459","813435","0.0-13.0-1.133","19","Low_HMMActual","","","","","","null","","","","Images/WhiteBeadChoice.png","","null"
"image-button-response","460","813939","0.0-13.0-2.133","19","Low_HMMActual","","","","","","null","","","","Images/WhiteBeadChoiceWrong.png","","null"
"image-button-response","461","814725","0.0-13.0-0.134","19","Low_HMMActual","","","","","","778.7999999523163","","","","Images/NewTrialBC.png","","1"
"image-button-response","462","815027","0.0-13.0-1.134","19","Low_HMMActual","","","","","","null","","","","Images/BlackBeadChoice.png","","null"
"image-button-response","463","815531","0.0-13.0-2.134","19","Low_HMMActual","","","","","","null","","","","Images/BlackBeadChoiceCorrect.png","","null"
"image-button-response","464","815653","0.0-13.0-0.135","19","Low_HMMActual","","","","","","102.69999992847443","","","","Images/NewTrialBC.png","","0"
"image-button-response","465","815959","0.0-13.0-1.135","19","Low_HMMActual","","","","","","null","","","","Images/BlackBeadChoice.png","","null"
"image-button-response","466","816460","0.0-13.0-2.135","19","Low_HMMActual","","","","","","null","","","","Images/BlackBeadChoiceWrong.png","","null"
"image-button-response","467","817405","0.0-13.0-0.136","19","Low_HMMActual","","","","","","942.8000000715256","","","","Images/NewTrialWC.png","","3"
"image-button-response","468","817711","0.0-13.0-1.136","19","Low_HMMActual","","","","","","null","","","","Images/WhiteBeadChoice.png","","null"
"image-button-response","469","818215","0.0-13.0-2.136","19","Low_HMMActual","","","","","","null","","","","Images/WhiteBeadChoiceCorrect.png","","null"
"image-button-response","470","818981","0.0-13.0-0.137","19","Low_HMMActual","","","","","","761.4000000953674","","","","Images/NewTrialWC.png","","3"
"image-button-response","471","819286","0.0-13.0-1.137","19","Low_HMMActual","","","","","","null","","","","Images/WhiteBeadChoice.png","","null"
"image-button-response","472","819796","0.0-13.0-2.137","19","Low_HMMActual","","","","","","null","","","","Images/WhiteBeadChoiceCorrect.png","","null"
"image-button-response","473","820373","0.0-13.0-0.138","19","Low_HMMActual","","","","","","572.1999999284744","","","","Images/NewTrialWC.png","","3"
"image-button-response","474","820678","0.0-13.0-1.138","19","Low_HMMActual","","","","","","null","","","","Images/WhiteBeadChoice.png","","null"
"image-button-response","475","821188","0.0-13.0-2.138","19","Low_HMMActual","","","","","","null","","","","Images/WhiteBeadChoiceCorrect.png","","null"
"image-button-response","476","822861","0.0-13.0-0.139","19","Low_HMMActual","","","","","","1660.5999999046326","","","","Images/NewTrialWC.png","","3"
"image-button-response","477","823167","0.0-13.0-1.139","19","Low_HMMActual","","","","","","null","","","","Images/WhiteBeadChoice.png","","null"
"image-button-response","478","823678","0.0-13.0-2.139","19","Low_HMMActual","","","","","","null","","","","Images/WhiteBeadChoiceCorrect.png","","null"
"image-button-response","479","824189","0.0-13.0-0.140","19","Low_HMMActual","","","","","","504.7999999523163","","","","Images/NewTrialWC.png","","3"
"image-button-response","480","824495","0.0-13.0-1.140","19","Low_HMMActual","","","","","","null","","","","Images/WhiteBeadChoice.png","","null"
"image-button-response","481","825005","0.0-13.0-2.140","19","Low_HMMActual","","","","","","null","","","","Images/WhiteBeadChoiceCorrect.png","","null"
"image-button-response","482","825397","0.0-13.0-0.141","19","Low_HMMActual","","","","","","378.5","","","","Images/NewTrialWC.png","","3"
"image-button-response","483","825700","0.0-13.0-1.141","19","Low_HMMActual","","","","","","null","","","","Images/WhiteBeadChoice.png","","null"
"image-button-response","484","826204","0.0-13.0-2.141","19","Low_HMMActual","","","","","","null","","","","Images/WhiteBeadChoiceCorrect.png","","null"
"image-button-response","485","826526","0.0-13.0-0.142","19","Low_HMMActual","","","","","","309.3000000715256","","","","Images/NewTrialWC.png","","3"
"image-button-response","486","826830","0.0-13.0-1.142","19","Low_HMMActual","","","","","","null","","","","Images/WhiteBeadChoice.png","","null"
"image-button-response","487","827336","0.0-13.0-2.142","19","Low_HMMActual","","","","","","null","","","","Images/WhiteBeadChoiceWrong.png","","null"
"image-button-response","488","827989","0.0-13.0-0.143","19","Low_HMMActual","","","","","","641.7000000476837","","","","Images/NewTrialBC.png","","1"
"image-button-response","489","828292","0.0-13.0-1.143","19","Low_HMMActual","","","","","","null","","","","Images/BlackBeadChoice.png","","null"
"image-button-response","490","828795","0.0-13.0-2.143","19","Low_HMMActual","","","","","","null","","","","Images/BlackBeadChoiceWrong.png","","null"
"image-button-response","491","829237","0.0-13.0-0.144","19","Low_HMMActual","","","","","","435.39999997615814","","","","Images/NewTrialWC.png","","3"
"image-button-response","492","829546","0.0-13.0-1.144","19","Low_HMMActual","","","","","","null","","","","Images/WhiteBeadChoice.png","","null"
"image-button-response","493","830057","0.0-13.0-2.144","19","Low_HMMActual","","","","","","null","","","","Images/WhiteBeadChoiceCorrect.png","","null"
"image-button-response","494","830837","0.0-13.0-0.145","19","Low_HMMActual","","","","","","773.9000000953674","","","","Images/NewTrialWC.png","","2"
"image-button-response","495","831146","0.0-13.0-1.145","19","Low_HMMActual","","","","","","null","","","","Images/WhiteBeadChoice.png","","null"
"image-button-response","496","831657","0.0-13.0-2.145","19","Low_HMMActual","","","","","","null","","","","Images/WhiteBeadChoiceCorrect.png","","null"
"image-button-response","497","831837","0.0-13.0-0.146","19","Low_HMMActual","","","","","","170.80000007152557","","","","Images/NewTrialWC.png","","2"
"image-button-response","498","832144","0.0-13.0-1.146","19","Low_HMMActual","","","","","","null","","","","Images/WhiteBeadChoice.png","","null"
"image-button-response","499","832651","0.0-13.0-2.146","19","Low_HMMActual","","","","","","null","","","","Images/WhiteBeadChoiceWrong.png","","null"
"image-button-response","500","833485","0.0-13.0-0.147","19","Low_HMMActual","","","","","","823.6999999284744","","","","Images/NewTrialBC.png","","1"
"image-button-response","501","833790","0.0-13.0-1.147","19","Low_HMMActual","","","","","","null","","","","Images/BlackBeadChoice.png","","null"
"image-button-response","502","834302","0.0-13.0-2.147","19","Low_HMMActual","","","","","","null","","","","Images/BlackBeadChoiceWrong.png","","null"
"image-button-response","503","836141","0.0-13.0-0.148","19","Low_HMMActual","","","","","","1835.0999999046326","","","","Images/NewTrialWC.png","","1"
"image-button-response","504","836447","0.0-13.0-1.148","19","Low_HMMActual","","","","","","null","","","","Images/BlackBeadChoice.png","","null"
"image-button-response","505","836953","0.0-13.0-2.148","19","Low_HMMActual","","","","","","null","","","","Images/BlackBeadChoiceWrong.png","","null"
"image-button-response","506","838205","0.0-13.0-0.149","19","Low_HMMActual","","","","","","1241.5","","","","Images/NewTrialWC.png","","3"
"image-button-response","507","838507","0.0-13.0-1.149","19","Low_HMMActual","","","","","","null","","","","Images/WhiteBeadChoice.png","","null"
"image-button-response","508","839011","0.0-13.0-2.149","19","Low_HMMActual","","","","","","null","","","","Images/WhiteBeadChoiceWrong.png","","null"
"image-button-response","509","839717","0.0-13.0-0.150","19","Low_HMMActual","","","","","","701.1000000238419","","","","Images/NewTrialBC.png","","1"
"image-button-response","510","840022","0.0-13.0-1.150","19","Low_HMMActual","","","","","","null","","","","Images/BlackBeadChoice.png","","null"
"image-button-response","511","840528","0.0-13.0-2.150","19","Low_HMMActual","","","","","","null","","","","Images/BlackBeadChoiceWrong.png","","null"
"image-button-response","512","841117","0.0-13.0-0.151","19","Low_HMMActual","","","","","","573.5","","","","Images/NewTrialWC.png","","3"
"image-button-response","513","841422","0.0-13.0-1.151","19","Low_HMMActual","","","","","","null","","","","Images/WhiteBeadChoice.png","","null"
"image-button-response","514","841927","0.0-13.0-2.151","19","Low_HMMActual","","","","","","484.7000000476837","","","","Images/WhiteBeadChoiceCorrect.png","","3"
"image-button-response","515","842477","0.0-13.0-0.152","19","Low_HMMActual","","","","","","546.6000000238419","","","","Images/NewTrialWC.png","","3"
"image-button-response","516","842783","0.0-13.0-1.152","19","Low_HMMActual","","","","","","null","","","","Images/WhiteBeadChoice.png","","null"
"image-button-response","517","843296","0.0-13.0-2.152","19","Low_HMMActual","","","","","","null","","","","Images/WhiteBeadChoiceCorrect.png","","null"
"image-button-response","518","844621","0.0-13.0-0.153","19","Low_HMMActual","","","","","","1317","","","","Images/NewTrialWC.png","","2"
"image-button-response","519","844926","0.0-13.0-1.153","19","Low_HMMActual","","","","","","null","","","","Images/WhiteBeadChoice.png","","null"
"image-button-response","520","845432","0.0-13.0-2.153","19","Low_HMMActual","","","","","","null","","","","Images/WhiteBeadChoiceCorrect.png","","null"
"image-button-response","521","845637","0.0-13.0-0.154","19","Low_HMMActual","","","","","","199.5","","","","Images/NewTrialWC.png","","2"
"image-button-response","522","845943","0.0-13.0-1.154","19","Low_HMMActual","","","","","","null","","","","Images/WhiteBeadChoice.png","","null"
"image-button-response","523","846448","0.0-13.0-2.154","19","Low_HMMActual","","","","","","490.10000002384186","","","","Images/WhiteBeadChoiceCorrect.png","","2"
"image-button-response","524","847037","0.0-13.0-0.155","19","Low_HMMActual","","","","","","584.6000000238419","","","","Images/NewTrialWC.png","","2"
"image-button-response","525","847343","0.0-13.0-1.155","19","Low_HMMActual","","","","","","null","","","","Images/WhiteBeadChoice.png","","null"
"image-button-response","526","847855","0.0-13.0-2.155","19","Low_HMMActual","","","","","","null","","","","Images/WhiteBeadChoiceWrong.png","","null"
"image-button-response","527","848493","0.0-13.0-0.156","19","Low_HMMActual","","","","","","631.7999999523163","","","","Images/NewTrialBC.png","","1"
"image-button-response","528","848799","0.0-13.0-1.156","19","Low_HMMActual","","","","","","null","","","","Images/BlackBeadChoice.png","","null"
"image-button-response","529","849303","0.0-13.0-2.156","19","Low_HMMActual","","","","","","null","","","","Images/BlackBeadChoiceCorrect.png","","null"
"image-button-response","530","849733","0.0-13.0-0.157","19","Low_HMMActual","","","","","","422.7000000476837","","","","Images/NewTrialBC.png","","0"
"image-button-response","531","850035","0.0-13.0-1.157","19","Low_HMMActual","","","","","","null","","","","Images/BlackBeadChoice.png","","null"
"image-button-response","532","850543","0.0-13.0-2.157","19","Low_HMMActual","","","","","","null","","","","Images/BlackBeadChoiceCorrect.png","","null"
"image-button-response","533","850853","0.0-13.0-0.158","19","Low_HMMActual","","","","","","297.89999997615814","","","","Images/NewTrialBC.png","","0"
"image-button-response","534","851160","0.0-13.0-1.158","19","Low_HMMActual","","","","","","null","","","","Images/BlackBeadChoice.png","","null"
"image-button-response","535","851675","0.0-13.0-2.158","19","Low_HMMActual","","","","","","478.60000002384186","","","","Images/BlackBeadChoiceCorrect.png","","0"
"image-button-response","536","852421","0.0-13.0-0.159","19","Low_HMMActual","","","","","","741.8000000715256","","","","Images/NewTrialBC.png","","0"
"image-button-response","537","852727","0.0-13.0-1.159","19","Low_HMMActual","","","","","","null","","","","Images/BlackBeadChoice.png","","null"
"image-button-response","538","853240","0.0-13.0-2.159","19","Low_HMMActual","","","","","","null","","","","Images/BlackBeadChoiceCorrect.png","","null"
"image-button-response","539","853685","0.0-13.0-0.160","19","Low_HMMActual","","","","","","436.89999997615814","","","","Images/NewTrialBC.png","","1"
"image-button-response","540","853991","0.0-13.0-1.160","19","Low_HMMActual","","","","","","null","","","","Images/BlackBeadChoice.png","","null"
"image-button-response","541","854502","0.0-13.0-2.160","19","Low_HMMActual","","","","","","null","","","","Images/BlackBeadChoiceCorrect.png","","null"
"image-button-response","542","855237","0.0-13.0-0.161","19","Low_HMMActual","","","","","","722.1000000238419","","","","Images/NewTrialBC.png","","1"
"image-button-response","543","855541","0.0-13.0-1.161","19","Low_HMMActual","","","","","","null","","","","Images/BlackBeadChoice.png","","null"
"image-button-response","544","856047","0.0-13.0-2.161","19","Low_HMMActual","","","","","","null","","","","Images/BlackBeadChoiceWrong.png","","null"
"image-button-response","545","856741","0.0-13.0-0.162","19","Low_HMMActual","","","","","","689.7000000476837","","","","Images/NewTrialWC.png","","3"
"image-button-response","546","857045","0.0-13.0-1.162","19","Low_HMMActual","","","","","","null","","","","Images/WhiteBeadChoice.png","","null"
"image-button-response","547","857549","0.0-13.0-2.162","19","Low_HMMActual","","","","","","null","","","","Images/WhiteBeadChoiceCorrect.png","","null"
"image-button-response","548","862141","0.0-13.0-0.163","19","Low_HMMActual","","","","","","4580.100000023842","","","","Images/NewTrialWC.png","","3"
"image-button-response","549","862447","0.0-13.0-1.163","19","Low_HMMActual","","","","","","null","","","","Images/WhiteBeadChoice.png","","null"
"image-button-response","550","862954","0.0-13.0-2.163","19","Low_HMMActual","","","","","","null","","","","Images/WhiteBeadChoiceCorrect.png","","null"
"image-button-response","551","863197","0.0-13.0-0.164","19","Low_HMMActual","","","","","","229.90000009536743","","","","Images/NewTrialWC.png","","3"
"image-button-response","552","863502","0.0-13.0-1.164","19","Low_HMMActual","","","","","","null","","","","Images/WhiteBeadChoice.png","","null"
"image-button-response","553","864011","0.0-13.0-2.164","19","Low_HMMActual","","","","","","null","","","","Images/WhiteBeadChoiceCorrect.png","","null"
"image-button-response","554","864189","0.0-13.0-0.165","19","Low_HMMActual","","","","","","173","","","","Images/NewTrialWC.png","","3"
"image-button-response","555","864492","0.0-13.0-1.165","19","Low_HMMActual","","","","","","null","","","","Images/WhiteBeadChoice.png","","null"
"image-button-response","556","865003","0.0-13.0-2.165","19","Low_HMMActual","","","","","","null","","","","Images/WhiteBeadChoiceCorrect.png","","null"
"image-button-response","557","865293","0.0-13.0-0.166","19","Low_HMMActual","","","","","","285.60000002384186","","","","Images/NewTrialWC.png","","3"
"image-button-response","558","865599","0.0-13.0-1.166","19","Low_HMMActual","","","","","","null","","","","Images/WhiteBeadChoice.png","","null"
"image-button-response","559","866116","0.0-13.0-2.166","19","Low_HMMActual","","","","","","null","","","","Images/WhiteBeadChoiceCorrect.png","","null"
"image-button-response","560","866565","0.0-13.0-0.167","19","Low_HMMActual","","","","","","442.5","","","","Images/NewTrialWC.png","","3"
"image-button-response","561","866870","0.0-13.0-1.167","19","Low_HMMActual","","","","","","null","","","","Images/WhiteBeadChoice.png","","null"
"image-button-response","562","867379","0.0-13.0-2.167","19","Low_HMMActual","","","","","","null","","","","Images/WhiteBeadChoiceCorrect.png","","null"
"image-button-response","563","867701","0.0-13.0-0.168","19","Low_HMMActual","","","","","","312.5","","","","Images/NewTrialWC.png","","3"
"image-button-response","564","868007","0.0-13.0-1.168","19","Low_HMMActual","","","","","","null","","","","Images/WhiteBeadChoice.png","","null"
"image-button-response","565","868513","0.0-13.0-2.168","19","Low_HMMActual","","","","","","null","","","","Images/WhiteBeadChoiceWrong.png","","null"
"image-button-response","566","870237","0.0-13.0-0.169","19","Low_HMMActual","","","","","","1720.2999999523163","","","","Images/NewTrialBC.png","","1"
"image-button-response","567","870539","0.0-13.0-1.169","19","Low_HMMActual","","","","","","null","","","","Images/BlackBeadChoice.png","","null"
"image-button-response","568","871046","0.0-13.0-2.169","19","Low_HMMActual","","","","","","null","","","","Images/BlackBeadChoiceWrong.png","","null"
"image-button-response","569","871764","0.0-13.0-0.170","19","Low_HMMActual","","","","","","712.6000000238419","","","","Images/NewTrialWC.png","","3"
"image-button-response","570","872070","0.0-13.0-1.170","19","Low_HMMActual","","","","","","null","","","","Images/WhiteBeadChoice.png","","null"
"image-button-response","571","872580","0.0-13.0-2.170","19","Low_HMMActual","","","","","","null","","","","Images/WhiteBeadChoiceCorrect.png","","null"
"image-button-response","572","872997","0.0-13.0-0.171","19","Low_HMMActual","","","","","","406.6999999284744","","","","Images/NewTrialWC.png","","2"
"image-button-response","573","873301","0.0-13.0-1.171","19","Low_HMMActual","","","","","","null","","","","Images/WhiteBeadChoice.png","","null"
"image-button-response","574","873812","0.0-13.0-2.171","19","Low_HMMActual","","","","","","null","","","","Images/WhiteBeadChoiceCorrect.png","","null"
"image-button-response","575","874109","0.0-13.0-0.172","19","Low_HMMActual","","","","","","285.60000002384186","","","","Images/NewTrialWC.png","","2"
"image-button-response","576","874415","0.0-13.0-1.172","19","Low_HMMActual","","","","","","null","","","","Images/WhiteBeadChoice.png","","null"
"image-button-response","577","874921","0.0-13.0-2.172","19","Low_HMMActual","","","","","","null","","","","Images/WhiteBeadChoiceCorrect.png","","null"
"image-button-response","578","875111","0.0-13.0-0.173","19","Low_HMMActual","","","","","","163.5","","","","Images/NewTrialWC.png","","2"
"image-button-response","579","875414","0.0-13.0-1.173","19","Low_HMMActual","","","","","","null","","","","Images/WhiteBeadChoice.png","","null"
"image-button-response","580","875918","0.0-13.0-2.173","19","Low_HMMActual","","","","","","null","","","","Images/WhiteBeadChoiceCorrect.png","","null"
"image-button-response","581","876821","0.0-13.0-0.174","19","Low_HMMActual","","","","","","898.5","","","","Images/NewTrialWC.png","","2"
"image-button-response","582","877127","0.0-13.0-1.174","19","Low_HMMActual","","","","","","null","","","","Images/WhiteBeadChoice.png","","null"
"image-button-response","583","877640","0.0-13.0-2.174","19","Low_HMMActual","","","","","","null","","","","Images/WhiteBeadChoiceCorrect.png","","null"
"image-button-response","584","878116","0.0-13.0-0.175","19","Low_HMMActual","","","","","","469.89999997615814","","","","Images/NewTrialWC.png","","2"
"image-button-response","585","878422","0.0-13.0-1.175","19","Low_HMMActual","","","","","","null","","","","Images/WhiteBeadChoice.png","","null"
"image-button-response","586","878925","0.0-13.0-2.175","19","Low_HMMActual","","","","","","null","","","","Images/WhiteBeadChoiceWrong.png","","null"
"image-button-response","587","879493","0.0-13.0-0.176","19","Low_HMMActual","","","","","","561.6999999284744","","","","Images/NewTrialBC.png","","1"
"image-button-response","588","879795","0.0-13.0-1.176","19","Low_HMMActual","","","","","","null","","","","Images/BlackBeadChoice.png","","null"
"image-button-response","589","880298","0.0-13.0-2.176","19","Low_HMMActual","","","","","","null","","","","Images/BlackBeadChoiceCorrect.png","","null"
"image-button-response","590","894061","0.0-13.0-0.177","19","Low_HMMActual","","","","","","13757.700000047684","","","","Images/NewTrialBC.png","","1"
"image-button-response","591","894367","0.0-13.0-1.177","19","Low_HMMActual","","","","","","null","","","","Images/BlackBeadChoice.png","","null"
"image-button-response","592","894877","0.0-13.0-2.177","19","Low_HMMActual","","","","","","null","","","","Images/BlackBeadChoiceCorrect.png","","null"
"image-button-response","593","895116","0.0-13.0-0.178","19","Low_HMMActual","","","","","","233.69999992847443","","","","Images/NewTrialBC.png","","1"
"image-button-response","594","895421","0.0-13.0-1.178","19","Low_HMMActual","","","","","","null","","","","Images/BlackBeadChoice.png","","null"
"image-button-response","595","895925","0.0-13.0-2.178","19","Low_HMMActual","","","","","","null","","","","Images/BlackBeadChoiceWrong.png","","null"
"image-button-response","596","896565","0.0-13.0-0.179","19","Low_HMMActual","","","","","","633.2999999523163","","","","Images/NewTrialWC.png","","3"
"image-button-response","597","896871","0.0-13.0-1.179","19","Low_HMMActual","","","","","","null","","","","Images/WhiteBeadChoice.png","","null"
"image-button-response","598","897378","0.0-13.0-2.179","19","Low_HMMActual","","","","","","null","","","","Images/WhiteBeadChoiceWrong.png","","null"
"image-button-response","599","897956","0.0-13.0-0.180","19","Low_HMMActual","","","","","","566.1999999284744","","","","Images/NewTrialBC.png","","1"
"image-button-response","600","898262","0.0-13.0-1.180","19","Low_HMMActual","","","","","","null","","","","Images/BlackBeadChoice.png","","null"
"image-button-response","601","898768","0.0-13.0-2.180","19","Low_HMMActual","","","","","","null","","","","Images/BlackBeadChoiceCorrect.png","","null"
"image-button-response","602","899028","0.0-13.0-0.181","19","Low_HMMActual","","","","","","254.20000004768372","","","","Images/NewTrialBC.png","","1"
"image-button-response","603","899330","0.0-13.0-1.181","19","Low_HMMActual","","","","","","null","","","","Images/BlackBeadChoice.png","","null"
"image-button-response","604","899834","0.0-13.0-2.181","19","Low_HMMActual","","","","","","null","","","","Images/BlackBeadChoiceCorrect.png","","null"
"image-button-response","605","899932","0.0-13.0-0.182","19","Low_HMMActual","","","","","","91.19999992847443","","","","Images/NewTrialBC.png","","1"
"image-button-response","606","900237","0.0-13.0-1.182","19","Low_HMMActual","","","","","","null","","","","Images/BlackBeadChoice.png","","null"
"image-button-response","607","900747","0.0-13.0-2.182","19","Low_HMMActual","","","","","","null","","","","Images/BlackBeadChoiceCorrect.png","","null"
"image-button-response","608","901708","0.0-13.0-0.183","19","Low_HMMActual","","","","","","955","","","","Images/NewTrialBC.png","","1"
"image-button-response","609","902015","0.0-13.0-1.183","19","Low_HMMActual","","","","","","null","","","","Images/BlackBeadChoice.png","","null"
"image-button-response","610","902522","0.0-13.0-2.183","19","Low_HMMActual","","","","","","null","","","","Images/BlackBeadChoiceCorrect.png","","null"
"image-button-response","611","903356","0.0-13.0-0.184","19","Low_HMMActual","","","","","","821.2999999523163","","","","Images/NewTrialBC.png","","3"
"image-button-response","612","903657","0.0-13.0-1.184","19","Low_HMMActual","","","","","","null","","","","Images/WhiteBeadChoice.png","","null"
"image-button-response","613","904160","0.0-13.0-2.184","19","Low_HMMActual","","","","","","null","","","","Images/WhiteBeadChoiceWrong.png","","null"
"image-button-response","614","904740","0.0-13.0-0.185","19","Low_HMMActual","","","","","","574.1000000238419","","","","Images/NewTrialBC.png","","1"
"image-button-response","615","905054","0.0-13.0-1.185","19","Low_HMMActual","","","","","","null","","","","Images/BlackBeadChoice.png","","null"
"image-button-response","616","905562","0.0-13.0-2.185","19","Low_HMMActual","","","","","","null","","","","Images/BlackBeadChoiceCorrect.png","","null"
"image-button-response","617","906020","0.0-13.0-0.186","19","Low_HMMActual","","","","","","452.7999999523163","","","","Images/NewTrialBC.png","","1"
"image-button-response","618","906325","0.0-13.0-1.186","19","Low_HMMActual","","","","","","null","","","","Images/BlackBeadChoice.png","","null"
"image-button-response","619","906831","0.0-13.0-2.186","19","Low_HMMActual","","","","","","null","","","","Images/BlackBeadChoiceCorrect.png","","null"
"image-button-response","620","907429","0.0-13.0-0.187","19","Low_HMMActual","","","","","","583.7999999523163","","","","Images/NewTrialBC.png","","1"
"image-button-response","621","907735","0.0-13.0-1.187","19","Low_HMMActual","","","","","","null","","","","Images/BlackBeadChoice.png","","null"
"image-button-response","622","908238","0.0-13.0-2.187","19","Low_HMMActual","","","","","","null","","","","Images/BlackBeadChoiceWrong.png","","null"
"image-button-response","623","908716","0.0-13.0-0.188","19","Low_HMMActual","","","","","","474.09999990463257","","","","Images/NewTrialWC.png","","3"
"image-button-response","624","909021","0.0-13.0-1.188","19","Low_HMMActual","","","","","","null","","","","Images/WhiteBeadChoice.png","","null"
"image-button-response","625","909524","0.0-13.0-2.188","19","Low_HMMActual","","","","","","null","","","","Images/WhiteBeadChoiceCorrect.png","","null"
"image-button-response","626","909780","0.0-13.0-0.189","19","Low_HMMActual","","","","","","222.5","","","","Images/NewTrialWC.png","","2"
"image-button-response","627","910083","0.0-13.0-1.189","19","Low_HMMActual","","","","","","null","","","","Images/WhiteBeadChoice.png","","null"
"image-button-response","628","910597","0.0-13.0-2.189","19","Low_HMMActual","","","","","","null","","","","Images/WhiteBeadChoiceCorrect.png","","null"
"image-button-response","629","910900","0.0-13.0-0.190","19","Low_HMMActual","","","","","","292.7000000476837","","","","Images/NewTrialWC.png","","2"
"image-button-response","630","911204","0.0-13.0-1.190","19","Low_HMMActual","","","","","","null","","","","Images/WhiteBeadChoice.png","","null"
"image-button-response","631","911725","0.0-13.0-2.190","19","Low_HMMActual","","","","","","420","","","","Images/WhiteBeadChoiceCorrect.png","","2"
"image-button-response","632","912364","0.0-13.0-0.191","19","Low_HMMActual","","","","","","629.2000000476837","","","","Images/NewTrialWC.png","","2"
"image-button-response","633","912669","0.0-13.0-1.191","19","Low_HMMActual","","","","","","null","","","","Images/WhiteBeadChoice.png","","null"
"image-button-response","634","913179","0.0-13.0-2.191","19","Low_HMMActual","","","","","","null","","","","Images/WhiteBeadChoiceCorrect.png","","null"
"image-button-response","635","913308","0.0-13.0-0.192","19","Low_HMMActual","","","","","","119","","","","Images/NewTrialWC.png","","2"
"image-button-response","636","913612","0.0-13.0-1.192","19","Low_HMMActual","","","","","","null","","","","Images/WhiteBeadChoice.png","","null"
"image-button-response","637","914117","0.0-13.0-2.192","19","Low_HMMActual","","","","","","null","","","","Images/WhiteBeadChoiceCorrect.png","","null"
"image-button-response","638","914356","0.0-13.0-0.193","19","Low_HMMActual","","","","","","233.10000002384186","","","","Images/NewTrialWC.png","","2"
"image-button-response","639","914660","0.0-13.0-1.193","19","Low_HMMActual","","","","","","null","","","","Images/WhiteBeadChoice.png","","null"
"image-button-response","640","915170","0.0-13.0-2.193","19","Low_HMMActual","","","","","","479.2999999523163","","","","Images/WhiteBeadChoiceCorrect.png","","2"
"image-button-response","641","915732","0.0-13.0-0.194","19","Low_HMMActual","","","","","","557.8000000715256","","","","Images/NewTrialWC.png","","2"
"image-button-response","642","916037","0.0-13.0-1.194","19","Low_HMMActual","","","","","","null","","","","Images/WhiteBeadChoice.png","","null"
"image-button-response","643","916546","0.0-13.0-2.194","19","Low_HMMActual","","","","","","470.59999990463257","","","","Images/WhiteBeadChoiceCorrect.png","","2"
"image-button-response","644","917092","0.0-13.0-0.195","19","Low_HMMActual","","","","","","541.3000000715256","","","","Images/NewTrialWC.png","","2"
"image-button-response","645","917397","0.0-13.0-1.195","19","Low_HMMActual","","","","","","null","","","","Images/WhiteBeadChoice.png","","null"
"image-button-response","646","917908","0.0-13.0-2.195","19","Low_HMMActual","","","","","","null","","","","Images/WhiteBeadChoiceCorrect.png","","null"
"image-button-response","647","918412","0.0-13.0-0.196","19","Low_HMMActual","","","","","","498.60000002384186","","","","Images/NewTrialWC.png","","3"
"image-button-response","648","918717","0.0-13.0-1.196","19","Low_HMMActual","","","","","","null","","","","Images/WhiteBeadChoice.png","","null"
"image-button-response","649","919231","0.0-13.0-2.196","19","Low_HMMActual","","","","","","null","","","","Images/WhiteBeadChoiceCorrect.png","","null"
"image-button-response","650","919860","0.0-13.0-0.197","19","Low_HMMActual","","","","","","622.6999999284744","","","","Images/NewTrialWC.png","","1"
"image-button-response","651","920164","0.0-13.0-1.197","19","Low_HMMActual","","","","","","null","","","","Images/BlackBeadChoice.png","","null"
"image-button-response","652","920669","0.0-13.0-2.197","19","Low_HMMActual","","","","","","null","","","","Images/BlackBeadChoiceWrong.png","","null"
"image-button-response","653","921172","0.0-13.0-0.198","19","Low_HMMActual","","","","","","497.10000002384186","","","","Images/NewTrialWC.png","","3"
"image-button-response","654","921476","0.0-13.0-1.198","19","Low_HMMActual","","","","","","null","","","","Images/WhiteBeadChoice.png","","null"
"image-button-response","655","921980","0.0-13.0-2.198","19","Low_HMMActual","","","","","","null","","","","Images/WhiteBeadChoiceWrong.png","","null"
"image-button-response","656","922604","0.0-13.0-0.199","19","Low_HMMActual","","","","","","621.3000000715256","","","","Images/NewTrialBC.png","","1"
"image-button-response","657","922909","0.0-13.0-1.199","19","Low_HMMActual","","","","","","null","","","","Images/BlackBeadChoice.png","","null"
"image-button-response","658","923414","0.0-13.0-2.199","19","Low_HMMActual","","","","","","null","","","","Images/BlackBeadChoiceWrong.png","","null"
"image-button-response","659","923756","0.0-13.0-0.200","19","Low_HMMActual","","","","","","332.40000009536743","","","","Images/NewTrialWC.png","","3"
"image-button-response","660","924063","0.0-13.0-1.200","19","Low_HMMActual","","","","","","null","","","","Images/WhiteBeadChoice.png","","null"
"image-button-response","661","924569","0.0-13.0-2.200","19","Low_HMMActual","","","","","","null","","","","Images/WhiteBeadChoiceCorrect.png","","null"
"image-button-response","662","925076","0.0-13.0-0.201","19","Low_HMMActual","","","","","","500.7999999523163","","","","Images/NewTrialWC.png","","3"
"image-button-response","663","925381","0.0-13.0-1.201","19","Low_HMMActual","","","","","","null","","","","Images/WhiteBeadChoice.png","","null"
