"trial_type","trial_index","time_elapsed","internal_node_id","Script_Picker","Block_Type","success","timeout","failed_images","failed_audio","failed_video","rt","url","responses","question_order","stimulus","key_press","response"
"pavlovia","0","10","0.0-0.0","17","Low_HMMActual","","","","","","","","","","","",""
"preload","1","11","0.0-1.0","17","Low_HMMActual","true","false","[]","[]","[]","","","","","","",""
"external-html","2","43776","0.0-2.0-0.0","17","Low_HMMActual","","","","","","43437.5","consent.html","","","","",""
"survey-multi-choice","3","51764","0.0-2.0-1.0","17","Low_HMMActual","","","","","","7987.10000000149","","{""Q0"":""Male"",""Q1"":""White""}","[0,1]","","",""
"survey-text","4","54887","0.0-2.0-2.0","17","Low_HMMActual","","","","","","3121.1999999955297","","{""Q0"":""26""}","","","",""
"survey-text","5","69040","0.0-2.0-3.0","17","Low_HMMActual","","","","","","14051.39999999851","","{""Q0"":""5fd41bf508717e1833d8aed7""}","","","",""
"image-keyboard-response","6","104996","0.0-3.0-0.0","17","Low_HMMActual","","","","","","35854.10000000149","","","","tutorial/tutorial1.png"," ",""
"image-keyboard-response","7","121807","0.0-3.0-0.1","17","Low_HMMActual","","","","","","16809.60000000149","","","","tutorial/tutorial2.png"," ",""
"image-keyboard-response","8","139868","0.0-3.0-0.2","17","Low_HMMActual","","","","","","18060.39999999851","","","","tutorial/tutorial3.png"," ",""
"image-keyboard-response","9","153380","0.0-3.0-0.3","17","Low_HMMActual","","","","","","13511.39999999851","","","","tutorial/tutorial4.png"," ",""
"image-keyboard-response","10","156589","0.0-3.0-0.4","17","Low_HMMActual","","","","","","3208.1999999955297","","","","tutorial/tutorial5.png"," ",""
"image-keyboard-response","11","178524","0.0-3.0-0.5","17","Low_HMMActual","","","","","","21935.29999999702","","","","tutorial/tutorial6.png"," ",""
"image-keyboard-response","12","204129","0.0-3.0-0.6","17","Low_HMMActual","","","","","","25604.60000000149","","","","tutorial/tutorial7.png"," ",""
"image-keyboard-response","13","229557","0.0-3.0-0.7","17","Low_HMMActual","","","","","","25427.39999999851","","","","tutorial/tutorial8.png"," ",""
"image-keyboard-response","14","241112","0.0-3.0-0.8","17","Low_HMMActual","","","","","","11554.29999999702","","","","tutorial/tutorial9.png"," ",""
"image-keyboard-response","15","271058","0.0-3.0-0.9","17","Low_HMMActual","","","","","","29945.5","","","","tutorial/tutorial10.png"," ",""
"image-keyboard-response","16","292290","0.0-3.0-0.10","17","Low_HMMActual","","","","","","21231.29999999702","","","","tutorial/tutorial11.png"," ",""
"image-keyboard-response","17","302617","0.0-3.0-0.11","17","Low_HMMActual","","","","","","10326.30000000447","","","","tutorial/tutorial12.png"," ",""
"image-keyboard-response","18","312167","0.0-3.0-0.12","17","Low_HMMActual","","","","","","9549.20000000298","","","","tutorial/tutorial13.png"," ",""
"image-keyboard-response","19","326593","0.0-3.0-0.13","17","Low_HMMActual","","","","","","14425.5","","","","tutorial/tutorial14.png"," ",""
"image-keyboard-response","20","331761","0.0-3.0-0.14","17","Low_HMMActual","","","","","","5167.20000000298","","","","tutorial/tutorial15.png"," ",""
"image-keyboard-response","21","343154","0.0-4.0","17","Low_HMMActual","","","","","","11392.5","","","","tutorial/tutorial16.png","arrowup",""
"image-keyboard-response","22","356085","0.0-5.0","17","Low_HMMActual","","","","","","9433.20000000298","","","","tutorial/tutorial17.png","arrowright",""
"image-keyboard-response","23","363198","0.0-6.0","17","Low_HMMActual","","","","","","5070.20000000298","","","","tutorial/tutorial18.png","arrowleft",""
"image-keyboard-response","24","383198","0.0-7.0","17","Low_HMMActual","","","","","","18450.39999999851","","","","tutorial/tutorial19.png"," ",""
"html-keyboard-response","25","395185","0.0-8.0","18","Low_HMMActual","","","","","","11984.5","","","","<div class=""container"" style=""height:800px;width:800px;display:flex;flex-direction:column;justify-content:center;align-items:center;text-align:center;font-weight:normal;font-family:Arial;font-size:20px""><p>Loading episode&hellip;</p><div>"," ",""
"image-button-response","26","401506","0.0-9.0-0.0","18","Low_HMMActual","","","","","","6318.79999999702","","","","Images/NoChoice.png","","0"
"image-button-response","27","401807","0.0-9.0-1.0","18","Low_HMMActual","","","","","","null","","","","Images/BlackBeadChoice.png","","null"
"image-button-response","28","402308","0.0-9.0-2.0","18","Low_HMMActual","","","","","","null","","","","Images/BlackBeadChoiceWrong.png","","null"
"image-button-response","29","406222","0.0-9.0-0.1","18","Low_HMMActual","","","","","","3913.3000000044703","","","","Images/NewTrialWC.png","","0"
"image-button-response","30","406524","0.0-9.0-1.1","18","Low_HMMActual","","","","","","null","","","","Images/BlackBeadChoice.png","","null"
"image-button-response","31","407026","0.0-9.0-2.1","18","Low_HMMActual","","","","","","null","","","","Images/BlackBeadChoiceWrong.png","","null"
"image-button-response","32","411969","0.0-9.0-0.2","18","Low_HMMActual","","","","","","4942.70000000298","","","","Images/NewTrialWC.png","","0"
"image-button-response","33","412271","0.0-9.0-1.2","18","Low_HMMActual","","","","","","null","","","","Images/BlackBeadChoice.png","","null"
"image-button-response","34","412772","0.0-9.0-2.2","18","Low_HMMActual","","","","","","null","","","","Images/BlackBeadChoiceWrong.png","","null"
"image-button-response","35","431395","0.0-9.0-0.3","18","Low_HMMActual","","","","","","18621.70000000298","","","","Images/NewTrialWC.png","","0"
"image-button-response","36","431697","0.0-9.0-1.3","18","Low_HMMActual","","","","","","null","","","","Images/BlackBeadChoice.png","","null"
"image-button-response","37","432197","0.0-9.0-2.3","18","Low_HMMActual","","","","","","null","","","","Images/BlackBeadChoiceCorrect.png","","null"
"image-button-response","38","469228","0.0-9.0-0.4","18","Low_HMMActual","","","","","","37029.70000000298","","","","Images/NewTrialBC.png","","1"
"image-button-response","39","469529","0.0-9.0-1.4","18","Low_HMMActual","","","","","","null","","","","Images/BlackBeadChoice.png","","null"
"image-button-response","40","470031","0.0-9.0-2.4","18","Low_HMMActual","","","","","","null","","","","Images/BlackBeadChoiceWrong.png","","null"
"image-button-response","41","475014","0.0-9.0-0.5","18","Low_HMMActual","","","","","","4982.30000000447","","","","Images/NewTrialWC.png","","2"
"image-button-response","42","475315","0.0-9.0-1.5","18","Low_HMMActual","","","","","","null","","","","Images/WhiteBeadChoice.png","","null"
"image-button-response","43","475817","0.0-9.0-2.5","18","Low_HMMActual","","","","","","null","","","","Images/WhiteBeadChoiceCorrect.png","","null"
"image-button-response","44","479020","0.0-9.0-0.6","18","Low_HMMActual","","","","","","3202.10000000149","","","","Images/NewTrialWC.png","","2"
"image-button-response","45","479321","0.0-9.0-1.6","18","Low_HMMActual","","","","","","null","","","","Images/WhiteBeadChoice.png","","null"
"image-button-response","46","479822","0.0-9.0-2.6","18","Low_HMMActual","","","","","","null","","","","Images/WhiteBeadChoiceWrong.png","","null"
"image-button-response","47","484309","0.0-9.0-0.7","18","Low_HMMActual","","","","","","4486.19999999553","","","","Images/NewTrialBC.png","","3"
"image-button-response","48","484611","0.0-9.0-1.7","18","Low_HMMActual","","","","","","null","","","","Images/WhiteBeadChoice.png","","null"
"image-button-response","49","485112","0.0-9.0-2.7","18","Low_HMMActual","","","","","","null","","","","Images/WhiteBeadChoiceCorrect.png","","null"
"image-button-response","50","487690","0.0-9.0-0.8","18","Low_HMMActual","","","","","","2577.5","","","","Images/NewTrialWC.png","","2"
"image-button-response","51","487992","0.0-9.0-1.8","18","Low_HMMActual","","","","","","null","","","","Images/WhiteBeadChoice.png","","null"
"image-button-response","52","488493","0.0-9.0-2.8","18","Low_HMMActual","","","","","","null","","","","Images/WhiteBeadChoiceCorrect.png","","null"
"image-button-response","53","489991","0.0-9.0-0.9","18","Low_HMMActual","","","","","","1497.2000000029802","","","","Images/NewTrialWC.png","","2"
"image-button-response","54","490292","0.0-9.0-1.9","18","Low_HMMActual","","","","","","null","","","","Images/WhiteBeadChoice.png","","null"
"image-button-response","55","490793","0.0-9.0-2.9","18","Low_HMMActual","","","","","","null","","","","Images/WhiteBeadChoiceWrong.png","","null"
"html-keyboard-response","56","494792","0.0-10.0","18","Low_HMMActual","","","","","","3998.39999999851","","","",""," ",""
"image-keyboard-response","57","498293","0.0-11.0","18","Low_HMMActual","","","","","","3501.3000000044703","","","","tutorial/tutorial20.png"," ",""
"html-keyboard-response","58","544583","0.0-12.0","19","Low_HMMActual","","","","","","46287.90000000596","","","","<div class=""container"" style=""height:800px;width:800px;display:flex;flex-direction:column;justify-content:center;align-items:center;text-align:center;font-weight:normal;font-family:Arial;font-size:20px""><p>Loading episode&hellip;</p><div>"," ",""
"image-button-response","59","550304","0.0-13.0-0.0","19","Low_HMMActual","","","","","","5720.29999999702","","","","Images/NoChoice.png","","1"
"image-button-response","60","550606","0.0-13.0-1.0","19","Low_HMMActual","","","","","","null","","","","Images/BlackBeadChoice.png","","null"
"image-button-response","61","551107","0.0-13.0-2.0","19","Low_HMMActual","","","","","","null","","","","Images/BlackBeadChoiceWrong.png","","null"
"image-button-response","62","554141","0.0-13.0-0.1","19","Low_HMMActual","","","","","","3033.3000000044703","","","","Images/NewTrialWC.png","","3"
"image-button-response","63","554443","0.0-13.0-1.1","19","Low_HMMActual","","","","","","null","","","","Images/WhiteBeadChoice.png","","null"
"image-button-response","64","554944","0.0-13.0-2.1","19","Low_HMMActual","","","","","","null","","","","Images/WhiteBeadChoiceCorrect.png","","null"
"image-button-response","65","556297","0.0-13.0-0.2","19","Low_HMMActual","","","","","","1351.7000000029802","","","","Images/NewTrialWC.png","","2"
"image-button-response","66","556599","0.0-13.0-1.2","19","Low_HMMActual","","","","","","null","","","","Images/WhiteBeadChoice.png","","null"
"image-button-response","67","557100","0.0-13.0-2.2","19","Low_HMMActual","","","","","","null","","","","Images/WhiteBeadChoiceCorrect.png","","null"
"image-button-response","68","558214","0.0-13.0-0.3","19","Low_HMMActual","","","","","","1112.5","","","","Images/NewTrialWC.png","","2"
"image-button-response","69","558517","0.0-13.0-1.3","19","Low_HMMActual","","","","","","null","","","","Images/WhiteBeadChoice.png","","null"
"image-button-response","70","559019","0.0-13.0-2.3","19","Low_HMMActual","","","","","","null","","","","Images/WhiteBeadChoiceCorrect.png","","null"
"image-button-response","71","560286","0.0-13.0-0.4","19","Low_HMMActual","","","","","","1266.2999999970198","","","","Images/NewTrialWC.png","","2"
"image-button-response","72","560587","0.0-13.0-1.4","19","Low_HMMActual","","","","","","null","","","","Images/WhiteBeadChoice.png","","null"
"image-button-response","73","561088","0.0-13.0-2.4","19","Low_HMMActual","","","","","","null","","","","Images/WhiteBeadChoiceCorrect.png","","null"
"image-button-response","74","562136","0.0-13.0-0.5","19","Low_HMMActual","","","","","","1046.6999999955297","","","","Images/NewTrialWC.png","","2"
"image-button-response","75","562437","0.0-13.0-1.5","19","Low_HMMActual","","","","","","null","","","","Images/WhiteBeadChoice.png","","null"
"image-button-response","76","562938","0.0-13.0-2.5","19","Low_HMMActual","","","","","","null","","","","Images/WhiteBeadChoiceWrong.png","","null"
"image-button-response","77","565936","0.0-13.0-0.6","19","Low_HMMActual","","","","","","2994.89999999851","","","","Images/NewTrialBC.png","","3"
"image-button-response","78","566237","0.0-13.0-1.6","19","Low_HMMActual","","","","","","null","","","","Images/WhiteBeadChoice.png","","null"
"image-button-response","79","566738","0.0-13.0-2.6","19","Low_HMMActual","","","","","","null","","","","Images/WhiteBeadChoiceWrong.png","","null"
"image-button-response","80","567911","0.0-13.0-0.7","19","Low_HMMActual","","","","","","1171.7999999970198","","","","Images/NewTrialBC.png","","0"
"image-button-response","81","568212","0.0-13.0-1.7","19","Low_HMMActual","","","","","","null","","","","Images/BlackBeadChoice.png","","null"
"image-button-response","82","568714","0.0-13.0-2.7","19","Low_HMMActual","","","","","","null","","","","Images/BlackBeadChoiceCorrect.png","","null"
"image-button-response","83","570103","0.0-13.0-0.8","19","Low_HMMActual","","","","","","1388","","","","Images/NewTrialBC.png","","0"
"image-button-response","84","570404","0.0-13.0-1.8","19","Low_HMMActual","","","","","","null","","","","Images/BlackBeadChoice.png","","null"
"image-button-response","85","570905","0.0-13.0-2.8","19","Low_HMMActual","","","","","","null","","","","Images/BlackBeadChoiceCorrect.png","","null"
"image-button-response","86","572141","0.0-13.0-0.9","19","Low_HMMActual","","","","","","1234.5","","","","Images/NewTrialBC.png","","0"
"image-button-response","87","572443","0.0-13.0-1.9","19","Low_HMMActual","","","","","","null","","","","Images/BlackBeadChoice.png","","null"
"image-button-response","88","572944","0.0-13.0-2.9","19","Low_HMMActual","","","","","","null","","","","Images/BlackBeadChoiceCorrect.png","","null"
"image-button-response","89","573857","0.0-13.0-0.10","19","Low_HMMActual","","","","","","911.4000000059605","","","","Images/NewTrialBC.png","","0"
"image-button-response","90","574158","0.0-13.0-1.10","19","Low_HMMActual","","","","","","null","","","","Images/BlackBeadChoice.png","","null"
"image-button-response","91","574659","0.0-13.0-2.10","19","Low_HMMActual","","","","","","null","","","","Images/BlackBeadChoiceWrong.png","","null"
"image-button-response","92","576570","0.0-13.0-0.11","19","Low_HMMActual","","","","","","1910","","","","Images/NewTrialWC.png","","1"
"image-button-response","93","576871","0.0-13.0-1.11","19","Low_HMMActual","","","","","","null","","","","Images/BlackBeadChoice.png","","null"
"image-button-response","94","577372","0.0-13.0-2.11","19","Low_HMMActual","","","","","","null","","","","Images/BlackBeadChoiceCorrect.png","","null"
"image-button-response","95","579189","0.0-13.0-0.12","19","Low_HMMActual","","","","","","1816.2000000029802","","","","Images/NewTrialBC.png","","0"
"image-button-response","96","579491","0.0-13.0-1.12","19","Low_HMMActual","","","","","","null","","","","Images/BlackBeadChoice.png","","null"
"image-button-response","97","579992","0.0-13.0-2.12","19","Low_HMMActual","","","","","","null","","","","Images/BlackBeadChoiceWrong.png","","null"
"image-button-response","98","581130","0.0-13.0-0.13","19","Low_HMMActual","","","","","","1137.2000000029802","","","","Images/NewTrialWC.png","","2"
"image-button-response","99","581432","0.0-13.0-1.13","19","Low_HMMActual","","","","","","null","","","","Images/WhiteBeadChoice.png","","null"
"image-button-response","100","581934","0.0-13.0-2.13","19","Low_HMMActual","","","","","","null","","","","Images/WhiteBeadChoiceCorrect.png","","null"
"image-button-response","101","583240","0.0-13.0-0.14","19","Low_HMMActual","","","","","","1305.7999999970198","","","","Images/NewTrialWC.png","","2"
"image-button-response","102","583542","0.0-13.0-1.14","19","Low_HMMActual","","","","","","null","","","","Images/WhiteBeadChoice.png","","null"
"image-button-response","103","584043","0.0-13.0-2.14","19","Low_HMMActual","","","","","","null","","","","Images/WhiteBeadChoiceCorrect.png","","null"
"image-button-response","104","586160","0.0-13.0-0.15","19","Low_HMMActual","","","","","","2116.5","","","","Images/NewTrialWC.png","","2"
"image-button-response","105","586462","0.0-13.0-1.15","19","Low_HMMActual","","","","","","null","","","","Images/WhiteBeadChoice.png","","null"
"image-button-response","106","586963","0.0-13.0-2.15","19","Low_HMMActual","","","","","","null","","","","Images/WhiteBeadChoiceCorrect.png","","null"
"image-button-response","107","588020","0.0-13.0-0.16","19","Low_HMMActual","","","","","","1055.8999999985099","","","","Images/NewTrialWC.png","","2"
"image-button-response","108","588322","0.0-13.0-1.16","19","Low_HMMActual","","","","","","null","","","","Images/WhiteBeadChoice.png","","null"
"image-button-response","109","588823","0.0-13.0-2.16","19","Low_HMMActual","","","","","","null","","","","Images/WhiteBeadChoiceWrong.png","","null"
"image-button-response","110","590659","0.0-13.0-0.17","19","Low_HMMActual","","","","","","1835.3999999985099","","","","Images/NewTrialBC.png","","1"
"image-button-response","111","590961","0.0-13.0-1.17","19","Low_HMMActual","","","","","","null","","","","Images/BlackBeadChoice.png","","null"
"image-button-response","112","591462","0.0-13.0-2.17","19","Low_HMMActual","","","","","","null","","","","Images/BlackBeadChoiceCorrect.png","","null"
"image-button-response","113","592587","0.0-13.0-0.18","19","Low_HMMActual","","","","","","1124","","","","Images/NewTrialBC.png","","0"
"image-button-response","114","592889","0.0-13.0-1.18","19","Low_HMMActual","","","","","","null","","","","Images/BlackBeadChoice.png","","null"
"image-button-response","115","593391","0.0-13.0-2.18","19","Low_HMMActual","","","","","","null","","","","Images/BlackBeadChoiceCorrect.png","","null"
"image-button-response","116","594050","0.0-13.0-0.19","19","Low_HMMActual","","","","","","658.5","","","","Images/NewTrialBC.png","","0"
"image-button-response","117","594351","0.0-13.0-1.19","19","Low_HMMActual","","","","","","null","","","","Images/BlackBeadChoice.png","","null"
"image-button-response","118","594853","0.0-13.0-2.19","19","Low_HMMActual","","","","","","null","","","","Images/BlackBeadChoiceCorrect.png","","null"
"image-button-response","119","595980","0.0-13.0-0.20","19","Low_HMMActual","","","","","","1124.3999999985099","","","","Images/NewTrialBC.png","","0"
"image-button-response","120","596282","0.0-13.0-1.20","19","Low_HMMActual","","","","","","null","","","","Images/BlackBeadChoice.png","","null"
"image-button-response","121","596783","0.0-13.0-2.20","19","Low_HMMActual","","","","","","null","","","","Images/BlackBeadChoiceCorrect.png","","null"
"image-button-response","122","597396","0.0-13.0-0.21","19","Low_HMMActual","","","","","","612.3999999985099","","","","Images/NewTrialBC.png","","0"
"image-button-response","123","597697","0.0-13.0-1.21","19","Low_HMMActual","","","","","","null","","","","Images/BlackBeadChoice.png","","null"
"image-button-response","124","598199","0.0-13.0-2.21","19","Low_HMMActual","","","","","","null","","","","Images/BlackBeadChoiceWrong.png","","null"
"image-button-response","125","600158","0.0-13.0-0.22","19","Low_HMMActual","","","","","","1958.2000000029802","","","","Images/NewTrialWC.png","","3"
"image-button-response","126","600459","0.0-13.0-1.22","19","Low_HMMActual","","","","","","null","","","","Images/WhiteBeadChoice.png","","null"
"image-button-response","127","600960","0.0-13.0-2.22","19","Low_HMMActual","","","","","","null","","","","Images/WhiteBeadChoiceWrong.png","","null"
"image-button-response","128","602200","0.0-13.0-0.23","19","Low_HMMActual","","","","","","1238.7999999970198","","","","Images/NewTrialBC.png","","1"
"image-button-response","129","602501","0.0-13.0-1.23","19","Low_HMMActual","","","","","","null","","","","Images/BlackBeadChoice.png","","null"
"image-button-response","130","603002","0.0-13.0-2.23","19","Low_HMMActual","","","","","","null","","","","Images/BlackBeadChoiceWrong.png","","null"
"image-button-response","131","603850","0.0-13.0-0.24","19","Low_HMMActual","","","","","","846.7000000029802","","","","Images/NewTrialWC.png","","2"
"image-button-response","132","604151","0.0-13.0-1.24","19","Low_HMMActual","","","","","","null","","","","Images/WhiteBeadChoice.png","","null"
"image-button-response","133","604652","0.0-13.0-2.24","19","Low_HMMActual","","","","","","null","","","","Images/WhiteBeadChoiceWrong.png","","null"
"image-button-response","134","606081","0.0-13.0-0.25","19","Low_HMMActual","","","","","","1427.3999999985099","","","","Images/NewTrialBC.png","","0"
"image-button-response","135","606382","0.0-13.0-1.25","19","Low_HMMActual","","","","","","null","","","","Images/BlackBeadChoice.png","","null"
"image-button-response","136","606883","0.0-13.0-2.25","19","Low_HMMActual","","","","","","null","","","","Images/BlackBeadChoiceWrong.png","","null"
"image-button-response","137","607840","0.0-13.0-0.26","19","Low_HMMActual","","","","","","955.6999999955297","","","","Images/NewTrialWC.png","","2"
"image-button-response","138","608141","0.0-13.0-1.26","19","Low_HMMActual","","","","","","null","","","","Images/WhiteBeadChoice.png","","null"
"image-button-response","139","608642","0.0-13.0-2.26","19","Low_HMMActual","","","","","","null","","","","Images/WhiteBeadChoiceWrong.png","","null"
"image-button-response","140","609709","0.0-13.0-0.27","19","Low_HMMActual","","","","","","1065.6000000014901","","","","Images/NewTrialBC.png","","1"
"image-button-response","141","610009","0.0-13.0-1.27","19","Low_HMMActual","","","","","","null","","","","Images/BlackBeadChoice.png","","null"
"image-button-response","142","610510","0.0-13.0-2.27","19","Low_HMMActual","","","","","","null","","","","Images/BlackBeadChoiceCorrect.png","","null"
"image-button-response","143","612612","0.0-13.0-0.28","19","Low_HMMActual","","","","","","2100.10000000149","","","","Images/NewTrialBC.png","","1"
"image-button-response","144","612913","0.0-13.0-1.28","19","Low_HMMActual","","","","","","null","","","","Images/BlackBeadChoice.png","","null"
"image-button-response","145","613415","0.0-13.0-2.28","19","Low_HMMActual","","","","","","null","","","","Images/BlackBeadChoiceWrong.png","","null"
"image-button-response","146","614219","0.0-13.0-0.29","19","Low_HMMActual","","","","","","803.8000000044703","","","","Images/NewTrialWC.png","","2"
"image-button-response","147","614520","0.0-13.0-1.29","19","Low_HMMActual","","","","","","null","","","","Images/WhiteBeadChoice.png","","null"
"image-button-response","148","615021","0.0-13.0-2.29","19","Low_HMMActual","","","","","","null","","","","Images/WhiteBeadChoiceWrong.png","","null"
"image-button-response","149","615721","0.0-13.0-0.30","19","Low_HMMActual","","","","","","699.3000000044703","","","","Images/NewTrialBC.png","","0"
"image-button-response","150","616023","0.0-13.0-1.30","19","Low_HMMActual","","","","","","null","","","","Images/BlackBeadChoice.png","","null"
"image-button-response","151","616524","0.0-13.0-2.30","19","Low_HMMActual","","","","","","null","","","","Images/BlackBeadChoiceWrong.png","","null"
"image-button-response","152","618443","0.0-13.0-0.31","19","Low_HMMActual","","","","","","1918.5","","","","Images/NewTrialWC.png","","0"
"image-button-response","153","618745","0.0-13.0-1.31","19","Low_HMMActual","","","","","","null","","","","Images/BlackBeadChoice.png","","null"
"image-button-response","154","619246","0.0-13.0-2.31","19","Low_HMMActual","","","","","","null","","","","Images/BlackBeadChoiceWrong.png","","null"
"image-button-response","155","619798","0.0-13.0-0.32","19","Low_HMMActual","","","","","","551.3999999985099","","","","Images/NewTrialWC.png","","2"
"image-button-response","156","620100","0.0-13.0-1.32","19","Low_HMMActual","","","","","","null","","","","Images/WhiteBeadChoice.png","","null"
"image-button-response","157","620601","0.0-13.0-2.32","19","Low_HMMActual","","","","","","null","","","","Images/WhiteBeadChoiceCorrect.png","","null"
"image-button-response","158","620786","0.0-13.0-0.33","19","Low_HMMActual","","","","","","184.70000000298023","","","","Images/NewTrialWC.png","","2"
"image-button-response","159","621087","0.0-13.0-1.33","19","Low_HMMActual","","","","","","null","","","","Images/WhiteBeadChoice.png","","null"
"image-button-response","160","621588","0.0-13.0-2.33","19","Low_HMMActual","","","","","","null","","","","Images/WhiteBeadChoiceCorrect.png","","null"
"image-button-response","161","622625","0.0-13.0-0.34","19","Low_HMMActual","","","","","","1036","","","","Images/NewTrialWC.png","","2"
"image-button-response","162","622927","0.0-13.0-1.34","19","Low_HMMActual","","","","","","null","","","","Images/WhiteBeadChoice.png","","null"
"image-button-response","163","623428","0.0-13.0-2.34","19","Low_HMMActual","","","","","","null","","","","Images/WhiteBeadChoiceWrong.png","","null"
"image-button-response","164","624220","0.0-13.0-0.35","19","Low_HMMActual","","","","","","791.7999999970198","","","","Images/NewTrialBC.png","","1"
"image-button-response","165","624521","0.0-13.0-1.35","19","Low_HMMActual","","","","","","null","","","","Images/BlackBeadChoice.png","","null"
"image-button-response","166","625022","0.0-13.0-2.35","19","Low_HMMActual","","","","","","null","","","","Images/BlackBeadChoiceWrong.png","","null"
"image-button-response","167","628518","0.0-13.0-0.36","19","Low_HMMActual","","","","","","3495.2999999970198","","","","Images/NewTrialWC.png","","2"
"image-button-response","168","628819","0.0-13.0-1.36","19","Low_HMMActual","","","","","","null","","","","Images/WhiteBeadChoice.png","","null"
"image-button-response","169","629321","0.0-13.0-2.36","19","Low_HMMActual","","","","","","null","","","","Images/WhiteBeadChoiceWrong.png","","null"
"image-button-response","170","629974","0.0-13.0-0.37","19","Low_HMMActual","","","","","","652.4000000059605","","","","Images/NewTrialBC.png","","0"
"image-button-response","171","630275","0.0-13.0-1.37","19","Low_HMMActual","","","","","","null","","","","Images/BlackBeadChoice.png","","null"
"image-button-response","172","630778","0.0-13.0-2.37","19","Low_HMMActual","","","","","","null","","","","Images/BlackBeadChoiceCorrect.png","","null"
"image-button-response","173","631362","0.0-13.0-0.38","19","Low_HMMActual","","","","","","582.6999999955297","","","","Images/NewTrialBC.png","","0"
"image-button-response","174","631664","0.0-13.0-1.38","19","Low_HMMActual","","","","","","null","","","","Images/BlackBeadChoice.png","","null"
"image-button-response","175","632165","0.0-13.0-2.38","19","Low_HMMActual","","","","","","null","","","","Images/BlackBeadChoiceCorrect.png","","null"
"image-button-response","176","634843","0.0-13.0-0.39","19","Low_HMMActual","","","","","","2676.8000000044703","","","","Images/NewTrialBC.png","","0"
"image-button-response","177","635145","0.0-13.0-1.39","19","Low_HMMActual","","","","","","null","","","","Images/BlackBeadChoice.png","","null"
"image-button-response","178","635646","0.0-13.0-2.39","19","Low_HMMActual","","","","","","null","","","","Images/BlackBeadChoiceWrong.png","","null"
"image-button-response","179","637277","0.0-13.0-0.40","19","Low_HMMActual","","","","","","1630.3000000044703","","","","Images/NewTrialWC.png","","2"
"image-button-response","180","637578","0.0-13.0-1.40","19","Low_HMMActual","","","","","","null","","","","Images/WhiteBeadChoice.png","","null"
"image-button-response","181","638079","0.0-13.0-2.40","19","Low_HMMActual","","","","","","null","","","","Images/WhiteBeadChoiceCorrect.png","","null"
"image-button-response","182","639552","0.0-13.0-0.41","19","Low_HMMActual","","","","","","1471.6000000014901","","","","Images/NewTrialWC.png","","3"
"image-button-response","183","639853","0.0-13.0-1.41","19","Low_HMMActual","","","","","","null","","","","Images/WhiteBeadChoice.png","","null"
"image-button-response","184","640355","0.0-13.0-2.41","19","Low_HMMActual","","","","","","null","","","","Images/WhiteBeadChoiceCorrect.png","","null"
"image-button-response","185","643312","0.0-13.0-0.42","19","Low_HMMActual","","","","","","2956.2000000029802","","","","Images/NewTrialWC.png","","3"
"image-button-response","186","643613","0.0-13.0-1.42","19","Low_HMMActual","","","","","","null","","","","Images/WhiteBeadChoice.png","","null"
"image-button-response","187","644113","0.0-13.0-2.42","19","Low_HMMActual","","","","","","null","","","","Images/WhiteBeadChoiceWrong.png","","null"
"image-button-response","188","644964","0.0-13.0-0.43","19","Low_HMMActual","","","","","","849.5","","","","Images/NewTrialBC.png","","0"
"image-button-response","189","645264","0.0-13.0-1.43","19","Low_HMMActual","","","","","","null","","","","Images/BlackBeadChoice.png","","null"
"image-button-response","190","645766","0.0-13.0-2.43","19","Low_HMMActual","","","","","","null","","","","Images/BlackBeadChoiceWrong.png","","null"
"image-button-response","191","646838","0.0-13.0-0.44","19","Low_HMMActual","","","","","","1071.2000000029802","","","","Images/NewTrialWC.png","","2"
"image-button-response","192","647139","0.0-13.0-1.44","19","Low_HMMActual","","","","","","null","","","","Images/WhiteBeadChoice.png","","null"
"image-button-response","193","647640","0.0-13.0-2.44","19","Low_HMMActual","","","","","","null","","","","Images/WhiteBeadChoiceWrong.png","","null"
"image-button-response","194","648390","0.0-13.0-0.45","19","Low_HMMActual","","","","","","748.3999999985099","","","","Images/NewTrialBC.png","","1"
"image-button-response","195","648691","0.0-13.0-1.45","19","Low_HMMActual","","","","","","null","","","","Images/BlackBeadChoice.png","","null"
"image-button-response","196","649192","0.0-13.0-2.45","19","Low_HMMActual","","","","","","null","","","","Images/BlackBeadChoiceCorrect.png","","null"
"image-button-response","197","649907","0.0-13.0-0.46","19","Low_HMMActual","","","","","","713.3999999985099","","","","Images/NewTrialBC.png","","1"
"image-button-response","198","650208","0.0-13.0-1.46","19","Low_HMMActual","","","","","","null","","","","Images/BlackBeadChoice.png","","null"
"image-button-response","199","650711","0.0-13.0-2.46","19","Low_HMMActual","","","","","","null","","","","Images/BlackBeadChoiceWrong.png","","null"
"image-button-response","200","651531","0.0-13.0-0.47","19","Low_HMMActual","","","","","","818.3999999985099","","","","Images/NewTrialWC.png","","2"
"image-button-response","201","651832","0.0-13.0-1.47","19","Low_HMMActual","","","","","","null","","","","Images/WhiteBeadChoice.png","","null"
"image-button-response","202","652333","0.0-13.0-2.47","19","Low_HMMActual","","","","","","null","","","","Images/WhiteBeadChoiceCorrect.png","","null"
"image-button-response","203","652581","0.0-13.0-0.48","19","Low_HMMActual","","","","","","246.39999999850988","","","","Images/NewTrialWC.png","","2"
"image-button-response","204","652882","0.0-13.0-1.48","19","Low_HMMActual","","","","","","null","","","","Images/WhiteBeadChoice.png","","null"
"image-button-response","205","653383","0.0-13.0-2.48","19","Low_HMMActual","","","","","","null","","","","Images/WhiteBeadChoiceCorrect.png","","null"
"image-button-response","206","653536","0.0-13.0-0.49","19","Low_HMMActual","","","","","","152.20000000298023","","","","Images/NewTrialWC.png","","2"
"image-button-response","207","653837","0.0-13.0-1.49","19","Low_HMMActual","","","","","","null","","","","Images/WhiteBeadChoice.png","","null"
"image-button-response","208","654341","0.0-13.0-2.49","19","Low_HMMActual","","","","","","null","","","","Images/WhiteBeadChoiceCorrect.png","","null"
"image-button-response","209","655188","0.0-13.0-0.50","19","Low_HMMActual","","","","","","846.4000000059605","","","","Images/NewTrialWC.png","","2"
"image-button-response","210","655489","0.0-13.0-1.50","19","Low_HMMActual","","","","","","null","","","","Images/WhiteBeadChoice.png","","null"
"image-button-response","211","655991","0.0-13.0-2.50","19","Low_HMMActual","","","","","","null","","","","Images/WhiteBeadChoiceWrong.png","","null"
"image-button-response","212","656764","0.0-13.0-0.51","19","Low_HMMActual","","","","","","772.0999999940395","","","","Images/NewTrialBC.png","","0"
"image-button-response","213","657065","0.0-13.0-1.51","19","Low_HMMActual","","","","","","null","","","","Images/BlackBeadChoice.png","","null"
"image-button-response","214","657566","0.0-13.0-2.51","19","Low_HMMActual","","","","","","null","","","","Images/BlackBeadChoiceCorrect.png","","null"
"image-button-response","215","658414","0.0-13.0-0.52","19","Low_HMMActual","","","","","","847.5","","","","Images/NewTrialBC.png","","0"
"image-button-response","216","658715","0.0-13.0-1.52","19","Low_HMMActual","","","","","","null","","","","Images/BlackBeadChoice.png","","null"
"image-button-response","217","659217","0.0-13.0-2.52","19","Low_HMMActual","","","","","","null","","","","Images/BlackBeadChoiceCorrect.png","","null"
"image-button-response","218","660151","0.0-13.0-0.53","19","Low_HMMActual","","","","","","933.3000000044703","","","","Images/NewTrialBC.png","","0"
"image-button-response","219","660453","0.0-13.0-1.53","19","Low_HMMActual","","","","","","null","","","","Images/BlackBeadChoice.png","","null"
"image-button-response","220","660955","0.0-13.0-2.53","19","Low_HMMActual","","","","","","null","","","","Images/BlackBeadChoiceWrong.png","","null"
"image-button-response","221","662598","0.0-13.0-0.54","19","Low_HMMActual","","","","","","1642.7000000029802","","","","Images/NewTrialWC.png","","3"
"image-button-response","222","662900","0.0-13.0-1.54","19","Low_HMMActual","","","","","","null","","","","Images/WhiteBeadChoice.png","","null"
"image-button-response","223","663401","0.0-13.0-2.54","19","Low_HMMActual","","","","","","null","","","","Images/WhiteBeadChoiceWrong.png","","null"
"image-button-response","224","663918","0.0-13.0-0.55","19","Low_HMMActual","","","","","","516.7000000029802","","","","Images/NewTrialBC.png","","0"
"image-button-response","225","664220","0.0-13.0-1.55","19","Low_HMMActual","","","","","","null","","","","Images/BlackBeadChoice.png","","null"
"image-button-response","226","664721","0.0-13.0-2.55","19","Low_HMMActual","","","","","","null","","","","Images/BlackBeadChoiceCorrect.png","","null"
"image-button-response","227","665046","0.0-13.0-0.56","19","Low_HMMActual","","","","","","324.3999999985099","","","","Images/NewTrialBC.png","","0"
"image-button-response","228","665348","0.0-13.0-1.56","19","Low_HMMActual","","","","","","null","","","","Images/BlackBeadChoice.png","","null"
"image-button-response","229","665850","0.0-13.0-2.56","19","Low_HMMActual","","","","","","null","","","","Images/BlackBeadChoiceCorrect.png","","null"
"image-button-response","230","666437","0.0-13.0-0.57","19","Low_HMMActual","","","","","","586","","","","Images/NewTrialBC.png","","0"
"image-button-response","231","666739","0.0-13.0-1.57","19","Low_HMMActual","","","","","","null","","","","Images/BlackBeadChoice.png","","null"
"image-button-response","232","667240","0.0-13.0-2.57","19","Low_HMMActual","","","","","","null","","","","Images/BlackBeadChoiceCorrect.png","","null"
"image-button-response","233","667805","0.0-13.0-0.58","19","Low_HMMActual","","","","","","564.6000000014901","","","","Images/NewTrialBC.png","","0"
"image-button-response","234","668106","0.0-13.0-1.58","19","Low_HMMActual","","","","","","null","","","","Images/BlackBeadChoice.png","","null"
"image-button-response","235","668607","0.0-13.0-2.58","19","Low_HMMActual","","","","","","null","","","","Images/BlackBeadChoiceCorrect.png","","null"
"image-button-response","236","669847","0.0-13.0-0.59","19","Low_HMMActual","","","","","","1239.2999999970198","","","","Images/NewTrialBC.png","","0"
"image-button-response","237","670148","0.0-13.0-1.59","19","Low_HMMActual","","","","","","null","","","","Images/BlackBeadChoice.png","","null"
"image-button-response","238","670650","0.0-13.0-2.59","19","Low_HMMActual","","","","","","null","","","","Images/BlackBeadChoiceWrong.png","","null"
"image-button-response","239","671508","0.0-13.0-0.60","19","Low_HMMActual","","","","","","857.5","","","","Images/NewTrialWC.png","","2"
"image-button-response","240","671809","0.0-13.0-1.60","19","Low_HMMActual","","","","","","null","","","","Images/WhiteBeadChoice.png","","null"
"image-button-response","241","672310","0.0-13.0-2.60","19","Low_HMMActual","","","","","","null","","","","Images/WhiteBeadChoiceCorrect.png","","null"
"image-button-response","242","672740","0.0-13.0-0.61","19","Low_HMMActual","","","","","","429.3999999985099","","","","Images/NewTrialWC.png","","2"
"image-button-response","243","673041","0.0-13.0-1.61","19","Low_HMMActual","","","","","","null","","","","Images/WhiteBeadChoice.png","","null"
"image-button-response","244","673543","0.0-13.0-2.61","19","Low_HMMActual","","","","","","null","","","","Images/WhiteBeadChoiceCorrect.png","","null"
"image-button-response","245","674909","0.0-13.0-0.62","19","Low_HMMActual","","","","","","1365.1999999955297","","","","Images/NewTrialWC.png","","2"
"image-button-response","246","675211","0.0-13.0-1.62","19","Low_HMMActual","","","","","","null","","","","Images/WhiteBeadChoice.png","","null"
"image-button-response","247","675712","0.0-13.0-2.62","19","Low_HMMActual","","","","","","null","","","","Images/WhiteBeadChoiceWrong.png","","null"
"image-button-response","248","676370","0.0-13.0-0.63","19","Low_HMMActual","","","","","","657.3000000044703","","","","Images/NewTrialBC.png","","0"
"image-button-response","249","676672","0.0-13.0-1.63","19","Low_HMMActual","","","","","","null","","","","Images/BlackBeadChoice.png","","null"
"image-button-response","250","677173","0.0-13.0-2.63","19","Low_HMMActual","","","","","","null","","","","Images/BlackBeadChoiceCorrect.png","","null"
"image-button-response","251","677628","0.0-13.0-0.64","19","Low_HMMActual","","","","","","453.3999999985099","","","","Images/NewTrialBC.png","","0"
"image-button-response","252","677929","0.0-13.0-1.64","19","Low_HMMActual","","","","","","null","","","","Images/BlackBeadChoice.png","","null"
"image-button-response","253","678430","0.0-13.0-2.64","19","Low_HMMActual","","","","","","null","","","","Images/BlackBeadChoiceWrong.png","","null"
"image-button-response","254","679129","0.0-13.0-0.65","19","Low_HMMActual","","","","","","697.8000000044703","","","","Images/NewTrialWC.png","","2"
"image-button-response","255","679430","0.0-13.0-1.65","19","Low_HMMActual","","","","","","null","","","","Images/WhiteBeadChoice.png","","null"
"image-button-response","256","679931","0.0-13.0-2.65","19","Low_HMMActual","","","","","","null","","","","Images/WhiteBeadChoiceWrong.png","","null"
"image-button-response","257","680720","0.0-13.0-0.66","19","Low_HMMActual","","","","","","787.5","","","","Images/NewTrialBC.png","","0"
"image-button-response","258","681021","0.0-13.0-1.66","19","Low_HMMActual","","","","","","null","","","","Images/BlackBeadChoice.png","","null"
"image-button-response","259","681522","0.0-13.0-2.66","19","Low_HMMActual","","","","","","null","","","","Images/BlackBeadChoiceCorrect.png","","null"
"image-button-response","260","681827","0.0-13.0-0.67","19","Low_HMMActual","","","","","","303.6000000014901","","","","Images/NewTrialBC.png","","0"
"image-button-response","261","682128","0.0-13.0-1.67","19","Low_HMMActual","","","","","","null","","","","Images/BlackBeadChoice.png","","null"
"image-button-response","262","682630","0.0-13.0-2.67","19","Low_HMMActual","","","","","","null","","","","Images/BlackBeadChoiceCorrect.png","","null"
"image-button-response","263","682940","0.0-13.0-0.68","19","Low_HMMActual","","","","","","308.8999999985099","","","","Images/NewTrialBC.png","","0"
"image-button-response","264","683242","0.0-13.0-1.68","19","Low_HMMActual","","","","","","null","","","","Images/BlackBeadChoice.png","","null"
"image-button-response","265","683743","0.0-13.0-2.68","19","Low_HMMActual","","","","","","null","","","","Images/BlackBeadChoiceWrong.png","","null"
"image-button-response","266","685341","0.0-13.0-0.69","19","Low_HMMActual","","","","","","1596.6000000014901","","","","Images/NewTrialWC.png","","3"
"image-button-response","267","685642","0.0-13.0-1.69","19","Low_HMMActual","","","","","","null","","","","Images/WhiteBeadChoice.png","","null"
"image-button-response","268","686143","0.0-13.0-2.69","19","Low_HMMActual","","","","","","null","","","","Images/WhiteBeadChoiceWrong.png","","null"
"image-button-response","269","686591","0.0-13.0-0.70","19","Low_HMMActual","","","","","","446.69999999552965","","","","Images/NewTrialBC.png","","0"
"image-button-response","270","686892","0.0-13.0-1.70","19","Low_HMMActual","","","","","","null","","","","Images/BlackBeadChoice.png","","null"
"image-button-response","271","687394","0.0-13.0-2.70","19","Low_HMMActual","","","","","","null","","","","Images/BlackBeadChoiceWrong.png","","null"
"image-button-response","272","688265","0.0-13.0-0.71","19","Low_HMMActual","","","","","","870.1000000014901","","","","Images/NewTrialWC.png","","2"
"image-button-response","273","688567","0.0-13.0-1.71","19","Low_HMMActual","","","","","","null","","","","Images/WhiteBeadChoice.png","","null"
"image-button-response","274","689068","0.0-13.0-2.71","19","Low_HMMActual","","","","","","null","","","","Images/WhiteBeadChoiceWrong.png","","null"
"image-button-response","275","689946","0.0-13.0-0.72","19","Low_HMMActual","","","","","","875.8999999985099","","","","Images/NewTrialBC.png","","2"
"image-button-response","276","690247","0.0-13.0-1.72","19","Low_HMMActual","","","","","","null","","","","Images/WhiteBeadChoice.png","","null"
"image-button-response","277","690748","0.0-13.0-2.72","19","Low_HMMActual","","","","","","null","","","","Images/WhiteBeadChoiceWrong.png","","null"
"image-button-response","278","691747","0.0-13.0-0.73","19","Low_HMMActual","","","","","","997.8999999985099","","","","Images/NewTrialBC.png","","1"
"image-button-response","279","692048","0.0-13.0-1.73","19","Low_HMMActual","","","","","","null","","","","Images/BlackBeadChoice.png","","null"
"image-button-response","280","692548","0.0-13.0-2.73","19","Low_HMMActual","","","","","","null","","","","Images/BlackBeadChoiceCorrect.png","","null"
"image-button-response","281","693682","0.0-13.0-0.74","19","Low_HMMActual","","","","","","1132.4000000059605","","","","Images/NewTrialBC.png","","1"
"image-button-response","282","693983","0.0-13.0-1.74","19","Low_HMMActual","","","","","","null","","","","Images/BlackBeadChoice.png","","null"
"image-button-response","283","694484","0.0-13.0-2.74","19","Low_HMMActual","","","","","","null","","","","Images/BlackBeadChoiceCorrect.png","","null"
"image-button-response","284","695182","0.0-13.0-0.75","19","Low_HMMActual","","","","","","697.6000000014901","","","","Images/NewTrialBC.png","","0"
"image-button-response","285","695484","0.0-13.0-1.75","19","Low_HMMActual","","","","","","null","","","","Images/BlackBeadChoice.png","","null"
"image-button-response","286","695985","0.0-13.0-2.75","19","Low_HMMActual","","","","","","null","","","","Images/BlackBeadChoiceCorrect.png","","null"
"image-button-response","287","699268","0.0-13.0-0.76","19","Low_HMMActual","","","","","","3282.60000000149","","","","Images/NewTrialBC.png","","0"
"image-button-response","288","699570","0.0-13.0-1.76","19","Low_HMMActual","","","","","","null","","","","Images/BlackBeadChoice.png","","null"
"image-button-response","289","700071","0.0-13.0-2.76","19","Low_HMMActual","","","","","","null","","","","Images/BlackBeadChoiceCorrect.png","","null"
"image-button-response","290","701862","0.0-13.0-0.77","19","Low_HMMActual","","","","","","1790.3999999985099","","","","Images/NewTrialBC.png","","1"
"image-button-response","291","702163","0.0-13.0-1.77","19","Low_HMMActual","","","","","","null","","","","Images/BlackBeadChoice.png","","null"
"image-button-response","292","702665","0.0-13.0-2.77","19","Low_HMMActual","","","","","","null","","","","Images/BlackBeadChoiceWrong.png","","null"
"image-button-response","293","703810","0.0-13.0-0.78","19","Low_HMMActual","","","","","","1144.8000000044703","","","","Images/NewTrialWC.png","","3"
"image-button-response","294","704112","0.0-13.0-1.78","19","Low_HMMActual","","","","","","null","","","","Images/WhiteBeadChoice.png","","null"
"image-button-response","295","704613","0.0-13.0-2.78","19","Low_HMMActual","","","","","","null","","","","Images/WhiteBeadChoiceWrong.png","","null"
"image-button-response","296","705251","0.0-13.0-0.79","19","Low_HMMActual","","","","","","637.5","","","","Images/NewTrialBC.png","","1"
"image-button-response","297","705552","0.0-13.0-1.79","19","Low_HMMActual","","","","","","null","","","","Images/BlackBeadChoice.png","","null"
"image-button-response","298","706052","0.0-13.0-2.79","19","Low_HMMActual","","","","","","null","","","","Images/BlackBeadChoiceCorrect.png","","null"
"image-button-response","299","707427","0.0-13.0-0.80","19","Low_HMMActual","","","","","","1373.7999999970198","","","","Images/NewTrialBC.png","","1"
"image-button-response","300","707728","0.0-13.0-1.80","19","Low_HMMActual","","","","","","null","","","","Images/BlackBeadChoice.png","","null"
"image-button-response","301","708229","0.0-13.0-2.80","19","Low_HMMActual","","","","","","null","","","","Images/BlackBeadChoiceWrong.png","","null"
"image-button-response","302","709203","0.0-13.0-0.81","19","Low_HMMActual","","","","","","973","","","","Images/NewTrialWC.png","","3"
"image-button-response","303","709504","0.0-13.0-1.81","19","Low_HMMActual","","","","","","null","","","","Images/WhiteBeadChoice.png","","null"
"image-button-response","304","710005","0.0-13.0-2.81","19","Low_HMMActual","","","","","","null","","","","Images/WhiteBeadChoiceCorrect.png","","null"
"image-button-response","305","710723","0.0-13.0-0.82","19","Low_HMMActual","","","","","","717","","","","Images/NewTrialWC.png","","2"
"image-button-response","306","711024","0.0-13.0-1.82","19","Low_HMMActual","","","","","","null","","","","Images/WhiteBeadChoice.png","","null"
"image-button-response","307","711526","0.0-13.0-2.82","19","Low_HMMActual","","","","","","null","","","","Images/WhiteBeadChoiceWrong.png","","null"
"image-button-response","308","712648","0.0-13.0-0.83","19","Low_HMMActual","","","","","","1121.0999999940395","","","","Images/NewTrialBC.png","","0"
"image-button-response","309","712950","0.0-13.0-1.83","19","Low_HMMActual","","","","","","null","","","","Images/BlackBeadChoice.png","","null"
"image-button-response","310","713451","0.0-13.0-2.83","19","Low_HMMActual","","","","","","null","","","","Images/BlackBeadChoiceCorrect.png","","null"
"image-button-response","311","714276","0.0-13.0-0.84","19","Low_HMMActual","","","","","","824.2999999970198","","","","Images/NewTrialBC.png","","1"
"image-button-response","312","714577","0.0-13.0-1.84","19","Low_HMMActual","","","","","","null","","","","Images/BlackBeadChoice.png","","null"
"image-button-response","313","715078","0.0-13.0-2.84","19","Low_HMMActual","","","","","","null","","","","Images/BlackBeadChoiceCorrect.png","","null"
"image-button-response","314","716280","0.0-13.0-0.85","19","Low_HMMActual","","","","","","1200.9000000059605","","","","Images/NewTrialBC.png","","1"
"image-button-response","315","716581","0.0-13.0-1.85","19","Low_HMMActual","","","","","","null","","","","Images/BlackBeadChoice.png","","null"
"image-button-response","316","717082","0.0-13.0-2.85","19","Low_HMMActual","","","","","","null","","","","Images/BlackBeadChoiceCorrect.png","","null"
"image-button-response","317","717691","0.0-13.0-0.86","19","Low_HMMActual","","","","","","607.6000000014901","","","","Images/NewTrialBC.png","","0"
"image-button-response","318","717993","0.0-13.0-1.86","19","Low_HMMActual","","","","","","null","","","","Images/BlackBeadChoice.png","","null"
"image-button-response","319","718495","0.0-13.0-2.86","19","Low_HMMActual","","","","","","null","","","","Images/BlackBeadChoiceWrong.png","","null"
"image-button-response","320","719558","0.0-13.0-0.87","19","Low_HMMActual","","","","","","1062.5","","","","Images/NewTrialWC.png","","3"
"image-button-response","321","719859","0.0-13.0-1.87","19","Low_HMMActual","","","","","","null","","","","Images/WhiteBeadChoice.png","","null"
"image-button-response","322","720361","0.0-13.0-2.87","19","Low_HMMActual","","","","","","null","","","","Images/WhiteBeadChoiceCorrect.png","","null"
"image-button-response","323","723332","0.0-13.0-0.88","19","Low_HMMActual","","","","","","2969.7999999970198","","","","Images/NewTrialWC.png","","3"
"image-button-response","324","723633","0.0-13.0-1.88","19","Low_HMMActual","","","","","","null","","","","Images/WhiteBeadChoice.png","","null"
"image-button-response","325","724135","0.0-13.0-2.88","19","Low_HMMActual","","","","","","null","","","","Images/WhiteBeadChoiceCorrect.png","","null"
"image-button-response","326","724578","0.0-13.0-0.89","19","Low_HMMActual","","","","","","442.1000000014901","","","","Images/NewTrialWC.png","","3"
"image-button-response","327","724880","0.0-13.0-1.89","19","Low_HMMActual","","","","","","null","","","","Images/WhiteBeadChoice.png","","null"
"image-button-response","328","725381","0.0-13.0-2.89","19","Low_HMMActual","","","","","","null","","","","Images/WhiteBeadChoiceWrong.png","","null"
"image-button-response","329","726214","0.0-13.0-0.90","19","Low_HMMActual","","","","","","831.5","","","","Images/NewTrialBC.png","","0"
"image-button-response","330","726514","0.0-13.0-1.90","19","Low_HMMActual","","","","","","null","","","","Images/BlackBeadChoice.png","","null"
"image-button-response","331","727016","0.0-13.0-2.90","19","Low_HMMActual","","","","","","null","","","","Images/BlackBeadChoiceCorrect.png","","null"
"image-button-response","332","727896","0.0-13.0-0.91","19","Low_HMMActual","","","","","","878.5","","","","Images/NewTrialBC.png","","0"
"image-button-response","333","728197","0.0-13.0-1.91","19","Low_HMMActual","","","","","","null","","","","Images/BlackBeadChoice.png","","null"
"image-button-response","334","728699","0.0-13.0-2.91","19","Low_HMMActual","","","","","","null","","","","Images/BlackBeadChoiceCorrect.png","","null"
"image-button-response","335","731158","0.0-13.0-0.92","19","Low_HMMActual","","","","","","2457.89999999851","","","","Images/NewTrialBC.png","","0"
"image-button-response","336","731460","0.0-13.0-1.92","19","Low_HMMActual","","","","","","null","","","","Images/BlackBeadChoice.png","","null"
"image-button-response","337","731961","0.0-13.0-2.92","19","Low_HMMActual","","","","","","null","","","","Images/BlackBeadChoiceWrong.png","","null"
"image-button-response","338","732739","0.0-13.0-0.93","19","Low_HMMActual","","","","","","777.0999999940395","","","","Images/NewTrialWC.png","","3"
"image-button-response","339","733041","0.0-13.0-1.93","19","Low_HMMActual","","","","","","null","","","","Images/WhiteBeadChoice.png","","null"
"image-button-response","340","733543","0.0-13.0-2.93","19","Low_HMMActual","","","","","","null","","","","Images/WhiteBeadChoiceCorrect.png","","null"
"image-button-response","341","734191","0.0-13.0-0.94","19","Low_HMMActual","","","","","","647","","","","Images/NewTrialWC.png","","3"
"image-button-response","342","734492","0.0-13.0-1.94","19","Low_HMMActual","","","","","","null","","","","Images/WhiteBeadChoice.png","","null"
"image-button-response","343","734993","0.0-13.0-2.94","19","Low_HMMActual","","","","","","null","","","","Images/WhiteBeadChoiceWrong.png","","null"
"image-button-response","344","736547","0.0-13.0-0.95","19","Low_HMMActual","","","","","","1553.5999999940395","","","","Images/NewTrialBC.png","","3"
"image-button-response","345","736850","0.0-13.0-1.95","19","Low_HMMActual","","","","","","null","","","","Images/WhiteBeadChoice.png","","null"
"image-button-response","346","737351","0.0-13.0-2.95","19","Low_HMMActual","","","","","","null","","","","Images/WhiteBeadChoiceWrong.png","","null"
"image-button-response","347","737919","0.0-13.0-0.96","19","Low_HMMActual","","","","","","567.6000000014901","","","","Images/NewTrialBC.png","","1"
"image-button-response","348","738221","0.0-13.0-1.96","19","Low_HMMActual","","","","","","null","","","","Images/BlackBeadChoice.png","","null"
"image-button-response","349","738722","0.0-13.0-2.96","19","Low_HMMActual","","","","","","null","","","","Images/BlackBeadChoiceCorrect.png","","null"
"image-button-response","350","739707","0.0-13.0-0.97","19","Low_HMMActual","","","","","","984.2000000029802","","","","Images/NewTrialBC.png","","0"
"image-button-response","351","740008","0.0-13.0-1.97","19","Low_HMMActual","","","","","","null","","","","Images/BlackBeadChoice.png","","null"
"image-button-response","352","740510","0.0-13.0-2.97","19","Low_HMMActual","","","","","","null","","","","Images/BlackBeadChoiceCorrect.png","","null"
"image-button-response","353","742422","0.0-13.0-0.98","19","Low_HMMActual","","","","","","1910.7000000029802","","","","Images/NewTrialBC.png","","0"
"image-button-response","354","742723","0.0-13.0-1.98","19","Low_HMMActual","","","","","","null","","","","Images/BlackBeadChoice.png","","null"
"image-button-response","355","743225","0.0-13.0-2.98","19","Low_HMMActual","","","","","","null","","","","Images/BlackBeadChoiceWrong.png","","null"
"image-button-response","356","744337","0.0-13.0-0.99","19","Low_HMMActual","","","","","","1111.6000000014901","","","","Images/NewTrialWC.png","","3"
"image-button-response","357","744638","0.0-13.0-1.99","19","Low_HMMActual","","","","","","null","","","","Images/WhiteBeadChoice.png","","null"
"image-button-response","358","745140","0.0-13.0-2.99","19","Low_HMMActual","","","","","","null","","","","Images/WhiteBeadChoiceWrong.png","","null"
"image-button-response","359","746288","0.0-13.0-0.100","19","Low_HMMActual","","","","","","1147.3999999985099","","","","Images/NewTrialBC.png","","1"
"image-button-response","360","746589","0.0-13.0-1.100","19","Low_HMMActual","","","","","","null","","","","Images/BlackBeadChoice.png","","null"
"image-button-response","361","747091","0.0-13.0-2.100","19","Low_HMMActual","","","","","","null","","","","Images/BlackBeadChoiceWrong.png","","null"
"image-button-response","362","748083","0.0-13.0-0.101","19","Low_HMMActual","","","","","","990.2999999970198","","","","Images/NewTrialWC.png","","3"
"image-button-response","363","748384","0.0-13.0-1.101","19","Low_HMMActual","","","","","","null","","","","Images/WhiteBeadChoice.png","","null"
"image-button-response","364","748887","0.0-13.0-2.101","19","Low_HMMActual","","","","","","null","","","","Images/WhiteBeadChoiceCorrect.png","","null"
"image-button-response","365","750121","0.0-13.0-0.102","19","Low_HMMActual","","","","","","1233.1999999955297","","","","Images/NewTrialWC.png","","3"
"image-button-response","366","750423","0.0-13.0-1.102","19","Low_HMMActual","","","","","","null","","","","Images/WhiteBeadChoice.png","","null"
"image-button-response","367","750924","0.0-13.0-2.102","19","Low_HMMActual","","","","","","null","","","","Images/WhiteBeadChoiceCorrect.png","","null"
"image-button-response","368","751666","0.0-13.0-0.103","19","Low_HMMActual","","","","","","741","","","","Images/NewTrialWC.png","","2"
"image-button-response","369","751967","0.0-13.0-1.103","19","Low_HMMActual","","","","","","null","","","","Images/WhiteBeadChoice.png","","null"
"image-button-response","370","752469","0.0-13.0-2.103","19","Low_HMMActual","","","","","","null","","","","Images/WhiteBeadChoiceWrong.png","","null"
"image-button-response","371","753411","0.0-13.0-0.104","19","Low_HMMActual","","","","","","941.3999999985099","","","","Images/NewTrialBC.png","","1"
"image-button-response","372","753713","0.0-13.0-1.104","19","Low_HMMActual","","","","","","null","","","","Images/BlackBeadChoice.png","","null"
"image-button-response","373","754214","0.0-13.0-2.104","19","Low_HMMActual","","","","","","null","","","","Images/BlackBeadChoiceWrong.png","","null"
"image-button-response","374","755050","0.0-13.0-0.105","19","Low_HMMActual","","","","","","835.1999999955297","","","","Images/NewTrialWC.png","","3"
"image-button-response","375","755351","0.0-13.0-1.105","19","Low_HMMActual","","","","","","null","","","","Images/WhiteBeadChoice.png","","null"
"image-button-response","376","755852","0.0-13.0-2.105","19","Low_HMMActual","","","","","","null","","","","Images/WhiteBeadChoiceCorrect.png","","null"
"image-button-response","377","756889","0.0-13.0-0.106","19","Low_HMMActual","","","","","","1035.3000000044703","","","","Images/NewTrialWC.png","","3"
"image-button-response","378","757191","0.0-13.0-1.106","19","Low_HMMActual","","","","","","null","","","","Images/WhiteBeadChoice.png","","null"
"image-button-response","379","757692","0.0-13.0-2.106","19","Low_HMMActual","","","","","","null","","","","Images/WhiteBeadChoiceCorrect.png","","null"
"image-button-response","380","758253","0.0-13.0-0.107","19","Low_HMMActual","","","","","","559.6000000014901","","","","Images/NewTrialWC.png","","2"
"image-button-response","381","758554","0.0-13.0-1.107","19","Low_HMMActual","","","","","","null","","","","Images/WhiteBeadChoice.png","","null"
"image-button-response","382","759055","0.0-13.0-2.107","19","Low_HMMActual","","","","","","null","","","","Images/WhiteBeadChoiceCorrect.png","","null"
"image-button-response","383","760046","0.0-13.0-0.108","19","Low_HMMActual","","","","","","989.8000000044703","","","","Images/NewTrialWC.png","","2"
"image-button-response","384","760347","0.0-13.0-1.108","19","Low_HMMActual","","","","","","null","","","","Images/WhiteBeadChoice.png","","null"
"image-button-response","385","760848","0.0-13.0-2.108","19","Low_HMMActual","","","","","","null","","","","Images/WhiteBeadChoiceCorrect.png","","null"
"image-button-response","386","762221","0.0-13.0-0.109","19","Low_HMMActual","","","","","","1370.7000000029802","","","","Images/NewTrialWC.png","","2"
"image-button-response","387","762522","0.0-13.0-1.109","19","Low_HMMActual","","","","","","null","","","","Images/WhiteBeadChoice.png","","null"
"image-button-response","388","763023","0.0-13.0-2.109","19","Low_HMMActual","","","","","","null","","","","Images/WhiteBeadChoiceCorrect.png","","null"
"image-button-response","389","763817","0.0-13.0-0.110","19","Low_HMMActual","","","","","","792.6000000014901","","","","Images/NewTrialWC.png","","2"
"image-button-response","390","764118","0.0-13.0-1.110","19","Low_HMMActual","","","","","","null","","","","Images/WhiteBeadChoice.png","","null"
"image-button-response","391","764620","0.0-13.0-2.110","19","Low_HMMActual","","","","","","null","","","","Images/WhiteBeadChoiceWrong.png","","null"
"image-button-response","392","766060","0.0-13.0-0.111","19","Low_HMMActual","","","","","","1437.1000000014901","","","","Images/NewTrialBC.png","","1"
"image-button-response","393","766361","0.0-13.0-1.111","19","Low_HMMActual","","","","","","null","","","","Images/BlackBeadChoice.png","","null"
"image-button-response","394","766863","0.0-13.0-2.111","19","Low_HMMActual","","","","","","null","","","","Images/BlackBeadChoiceCorrect.png","","null"
"image-button-response","395","767858","0.0-13.0-0.112","19","Low_HMMActual","","","","","","993.7000000029802","","","","Images/NewTrialBC.png","","1"
"image-button-response","396","768159","0.0-13.0-1.112","19","Low_HMMActual","","","","","","null","","","","Images/BlackBeadChoice.png","","null"
"image-button-response","397","768660","0.0-13.0-2.112","19","Low_HMMActual","","","","","","null","","","","Images/BlackBeadChoiceWrong.png","","null"
"image-button-response","398","770133","0.0-13.0-0.113","19","Low_HMMActual","","","","","","1470.7000000029802","","","","Images/NewTrialWC.png","","3"
"image-button-response","399","770434","0.0-13.0-1.113","19","Low_HMMActual","","","","","","null","","","","Images/WhiteBeadChoice.png","","null"
"image-button-response","400","770936","0.0-13.0-2.113","19","Low_HMMActual","","","","","","null","","","","Images/WhiteBeadChoiceCorrect.png","","null"
"image-button-response","401","771527","0.0-13.0-0.114","19","Low_HMMActual","","","","","","590","","","","Images/NewTrialWC.png","","2"
"image-button-response","402","771828","0.0-13.0-1.114","19","Low_HMMActual","","","","","","null","","","","Images/WhiteBeadChoice.png","","null"
"image-button-response","403","772329","0.0-13.0-2.114","19","Low_HMMActual","","","","","","null","","","","Images/WhiteBeadChoiceCorrect.png","","null"
"image-button-response","404","773139","0.0-13.0-0.115","19","Low_HMMActual","","","","","","809","","","","Images/NewTrialWC.png","","2"
"image-button-response","405","773441","0.0-13.0-1.115","19","Low_HMMActual","","","","","","null","","","","Images/WhiteBeadChoice.png","","null"
"image-button-response","406","773942","0.0-13.0-2.115","19","Low_HMMActual","","","","","","null","","","","Images/WhiteBeadChoiceCorrect.png","","null"
"image-button-response","407","774621","0.0-13.0-0.116","19","Low_HMMActual","","","","","","677.1000000014901","","","","Images/NewTrialWC.png","","2"
"image-button-response","408","774922","0.0-13.0-1.116","19","Low_HMMActual","","","","","","null","","","","Images/WhiteBeadChoice.png","","null"
"image-button-response","409","775423","0.0-13.0-2.116","19","Low_HMMActual","","","","","","null","","","","Images/WhiteBeadChoiceWrong.png","","null"
"image-button-response","410","776514","0.0-13.0-0.117","19","Low_HMMActual","","","","","","1090.2999999970198","","","","Images/NewTrialBC.png","","1"
"image-button-response","411","776816","0.0-13.0-1.117","19","Low_HMMActual","","","","","","null","","","","Images/BlackBeadChoice.png","","null"
"image-button-response","412","777317","0.0-13.0-2.117","19","Low_HMMActual","","","","","","null","","","","Images/BlackBeadChoiceCorrect.png","","null"
"image-button-response","413","778400","0.0-13.0-0.118","19","Low_HMMActual","","","","","","1082.6999999955297","","","","Images/NewTrialBC.png","","1"
"image-button-response","414","778702","0.0-13.0-1.118","19","Low_HMMActual","","","","","","null","","","","Images/BlackBeadChoice.png","","null"
"image-button-response","415","779203","0.0-13.0-2.118","19","Low_HMMActual","","","","","","null","","","","Images/BlackBeadChoiceCorrect.png","","null"
"image-button-response","416","779783","0.0-13.0-0.119","19","Low_HMMActual","","","","","","578.5999999940395","","","","Images/NewTrialBC.png","","0"
"image-button-response","417","780084","0.0-13.0-1.119","19","Low_HMMActual","","","","","","null","","","","Images/BlackBeadChoice.png","","null"
"image-button-response","418","780586","0.0-13.0-2.119","19","Low_HMMActual","","","","","","null","","","","Images/BlackBeadChoiceCorrect.png","","null"
"image-button-response","419","781686","0.0-13.0-0.120","19","Low_HMMActual","","","","","","1097.6000000014901","","","","Images/NewTrialBC.png","","0"
"image-button-response","420","781988","0.0-13.0-1.120","19","Low_HMMActual","","","","","","null","","","","Images/BlackBeadChoice.png","","null"
"image-button-response","421","782490","0.0-13.0-2.120","19","Low_HMMActual","","","","","","null","","","","Images/BlackBeadChoiceWrong.png","","null"
"image-button-response","422","783395","0.0-13.0-0.121","19","Low_HMMActual","","","","","","904.8000000044703","","","","Images/NewTrialWC.png","","3"
"image-button-response","423","783696","0.0-13.0-1.121","19","Low_HMMActual","","","","","","null","","","","Images/WhiteBeadChoice.png","","null"
"image-button-response","424","784198","0.0-13.0-2.121","19","Low_HMMActual","","","","","","null","","","","Images/WhiteBeadChoiceCorrect.png","","null"
"image-button-response","425","785075","0.0-13.0-0.122","19","Low_HMMActual","","","","","","875.5","","","","Images/NewTrialWC.png","","2"
"image-button-response","426","785376","0.0-13.0-1.122","19","Low_HMMActual","","","","","","null","","","","Images/WhiteBeadChoice.png","","null"
"image-button-response","427","785878","0.0-13.0-2.122","19","Low_HMMActual","","","","","","null","","","","Images/WhiteBeadChoiceCorrect.png","","null"
"image-button-response","428","787703","0.0-13.0-0.123","19","Low_HMMActual","","","","","","1822.6000000014901","","","","Images/NewTrialWC.png","","2"
"image-button-response","429","788005","0.0-13.0-1.123","19","Low_HMMActual","","","","","","null","","","","Images/WhiteBeadChoice.png","","null"
"image-button-response","430","788506","0.0-13.0-2.123","19","Low_HMMActual","","","","","","null","","","","Images/WhiteBeadChoiceWrong.png","","null"
"image-button-response","431","789292","0.0-13.0-0.124","19","Low_HMMActual","","","","","","785.2000000029802","","","","Images/NewTrialBC.png","","1"
"image-button-response","432","789593","0.0-13.0-1.124","19","Low_HMMActual","","","","","","null","","","","Images/BlackBeadChoice.png","","null"
"image-button-response","433","790095","0.0-13.0-2.124","19","Low_HMMActual","","","","","","null","","","","Images/BlackBeadChoiceCorrect.png","","null"
"image-button-response","434","790633","0.0-13.0-0.125","19","Low_HMMActual","","","","","","537.2000000029802","","","","Images/NewTrialBC.png","","0"
"image-button-response","435","790937","0.0-13.0-1.125","19","Low_HMMActual","","","","","","null","","","","Images/BlackBeadChoice.png","","null"
"image-button-response","436","791438","0.0-13.0-2.125","19","Low_HMMActual","","","","","","null","","","","Images/BlackBeadChoiceWrong.png","","null"
"image-button-response","437","792025","0.0-13.0-0.126","19","Low_HMMActual","","","","","","586.7000000029802","","","","Images/NewTrialWC.png","","3"
"image-button-response","438","792326","0.0-13.0-1.126","19","Low_HMMActual","","","","","","null","","","","Images/WhiteBeadChoice.png","","null"
"image-button-response","439","792827","0.0-13.0-2.126","19","Low_HMMActual","","","","","","null","","","","Images/WhiteBeadChoiceWrong.png","","null"
"image-button-response","440","793383","0.0-13.0-0.127","19","Low_HMMActual","","","","","","555","","","","Images/NewTrialBC.png","","1"
"image-button-response","441","793685","0.0-13.0-1.127","19","Low_HMMActual","","","","","","null","","","","Images/BlackBeadChoice.png","","null"
"image-button-response","442","794187","0.0-13.0-2.127","19","Low_HMMActual","","","","","","null","","","","Images/BlackBeadChoiceCorrect.png","","null"
"image-button-response","443","794584","0.0-13.0-0.128","19","Low_HMMActual","","","","","","395.69999999552965","","","","Images/NewTrialBC.png","","0"
"image-button-response","444","794885","0.0-13.0-1.128","19","Low_HMMActual","","","","","","null","","","","Images/BlackBeadChoice.png","","null"
"image-button-response","445","795387","0.0-13.0-2.128","19","Low_HMMActual","","","","","","null","","","","Images/BlackBeadChoiceCorrect.png","","null"
"image-button-response","446","795716","0.0-13.0-0.129","19","Low_HMMActual","","","","","","328","","","","Images/NewTrialBC.png","","0"
"image-button-response","447","796018","0.0-13.0-1.129","19","Low_HMMActual","","","","","","null","","","","Images/BlackBeadChoice.png","","null"
"image-button-response","448","796520","0.0-13.0-2.129","19","Low_HMMActual","","","","","","null","","","","Images/BlackBeadChoiceCorrect.png","","null"
"image-button-response","449","797056","0.0-13.0-0.130","19","Low_HMMActual","","","","","","535.2999999970198","","","","Images/NewTrialBC.png","","0"
"image-button-response","450","797357","0.0-13.0-1.130","19","Low_HMMActual","","","","","","null","","","","Images/BlackBeadChoice.png","","null"
"image-button-response","451","797858","0.0-13.0-2.130","19","Low_HMMActual","","","","","","null","","","","Images/BlackBeadChoiceCorrect.png","","null"
"image-button-response","452","798431","0.0-13.0-0.131","19","Low_HMMActual","","","","","","571.7999999970198","","","","Images/NewTrialBC.png","","0"
"image-button-response","453","798732","0.0-13.0-1.131","19","Low_HMMActual","","","","","","null","","","","Images/BlackBeadChoice.png","","null"
"image-button-response","454","799233","0.0-13.0-2.131","19","Low_HMMActual","","","","","","null","","","","Images/BlackBeadChoiceCorrect.png","","null"
"image-button-response","455","800557","0.0-13.0-0.132","19","Low_HMMActual","","","","","","1322.9000000059605","","","","Images/NewTrialBC.png","","0"
"image-button-response","456","800860","0.0-13.0-1.132","19","Low_HMMActual","","","","","","null","","","","Images/BlackBeadChoice.png","","null"
"image-button-response","457","801361","0.0-13.0-2.132","19","Low_HMMActual","","","","","","null","","","","Images/BlackBeadChoiceCorrect.png","","null"
"image-button-response","458","803377","0.0-13.0-0.133","19","Low_HMMActual","","","","","","2014.3000000044703","","","","Images/NewTrialBC.png","","0"
"image-button-response","459","803678","0.0-13.0-1.133","19","Low_HMMActual","","","","","","null","","","","Images/BlackBeadChoice.png","","null"
"image-button-response","460","804179","0.0-13.0-2.133","19","Low_HMMActual","","","","","","null","","","","Images/BlackBeadChoiceCorrect.png","","null"
"image-button-response","461","805327","0.0-13.0-0.134","19","Low_HMMActual","","","","","","1145.5","","","","Images/NewTrialBC.png","","0"
"image-button-response","462","805628","0.0-13.0-1.134","19","Low_HMMActual","","","","","","null","","","","Images/BlackBeadChoice.png","","null"
"image-button-response","463","806130","0.0-13.0-2.134","19","Low_HMMActual","","","","","","null","","","","Images/BlackBeadChoiceCorrect.png","","null"
"image-button-response","464","808054","0.0-13.0-0.135","19","Low_HMMActual","","","","","","1923","","","","Images/NewTrialBC.png","","0"
"image-button-response","465","808355","0.0-13.0-1.135","19","Low_HMMActual","","","","","","null","","","","Images/BlackBeadChoice.png","","null"
"image-button-response","466","808857","0.0-13.0-2.135","19","Low_HMMActual","","","","","","null","","","","Images/BlackBeadChoiceWrong.png","","null"
"image-button-response","467","809663","0.0-13.0-0.136","19","Low_HMMActual","","","","","","805.1000000014901","","","","Images/NewTrialWC.png","","3"
"image-button-response","468","809963","0.0-13.0-1.136","19","Low_HMMActual","","","","","","null","","","","Images/WhiteBeadChoice.png","","null"
"image-button-response","469","810466","0.0-13.0-2.136","19","Low_HMMActual","","","","","","null","","","","Images/WhiteBeadChoiceCorrect.png","","null"
"image-button-response","470","811191","0.0-13.0-0.137","19","Low_HMMActual","","","","","","724","","","","Images/NewTrialWC.png","","2"
"image-button-response","471","811492","0.0-13.0-1.137","19","Low_HMMActual","","","","","","null","","","","Images/WhiteBeadChoice.png","","null"
"image-button-response","472","811994","0.0-13.0-2.137","19","Low_HMMActual","","","","","","null","","","","Images/WhiteBeadChoiceCorrect.png","","null"
"image-button-response","473","812562","0.0-13.0-0.138","19","Low_HMMActual","","","","","","566.1999999955297","","","","Images/NewTrialWC.png","","2"
"image-button-response","474","812862","0.0-13.0-1.138","19","Low_HMMActual","","","","","","null","","","","Images/WhiteBeadChoice.png","","null"
"image-button-response","475","813364","0.0-13.0-2.138","19","Low_HMMActual","","","","","","null","","","","Images/WhiteBeadChoiceCorrect.png","","null"
"image-button-response","476","815301","0.0-13.0-0.139","19","Low_HMMActual","","","","","","1936.8999999985099","","","","Images/NewTrialWC.png","","2"
"image-button-response","477","815603","0.0-13.0-1.139","19","Low_HMMActual","","","","","","null","","","","Images/WhiteBeadChoice.png","","null"
"image-button-response","478","816104","0.0-13.0-2.139","19","Low_HMMActual","","","","","","null","","","","Images/WhiteBeadChoiceCorrect.png","","null"
"image-button-response","479","816835","0.0-13.0-0.140","19","Low_HMMActual","","","","","","729.3999999985099","","","","Images/NewTrialWC.png","","2"
"image-button-response","480","817136","0.0-13.0-1.140","19","Low_HMMActual","","","","","","null","","","","Images/WhiteBeadChoice.png","","null"
"image-button-response","481","817638","0.0-13.0-2.140","19","Low_HMMActual","","","","","","null","","","","Images/WhiteBeadChoiceCorrect.png","","null"
"image-button-response","482","819035","0.0-13.0-0.141","19","Low_HMMActual","","","","","","1396.0999999940395","","","","Images/NewTrialWC.png","","2"
"image-button-response","483","819337","0.0-13.0-1.141","19","Low_HMMActual","","","","","","null","","","","Images/WhiteBeadChoice.png","","null"
"image-button-response","484","819839","0.0-13.0-2.141","19","Low_HMMActual","","","","","","null","","","","Images/WhiteBeadChoiceCorrect.png","","null"
"image-button-response","485","821418","0.0-13.0-0.142","19","Low_HMMActual","","","","","","1578.7000000029802","","","","Images/NewTrialWC.png","","2"
"image-button-response","486","821720","0.0-13.0-1.142","19","Low_HMMActual","","","","","","null","","","","Images/WhiteBeadChoice.png","","null"
"image-button-response","487","822222","0.0-13.0-2.142","19","Low_HMMActual","","","","","","null","","","","Images/WhiteBeadChoiceWrong.png","","null"
"image-button-response","488","823162","0.0-13.0-0.143","19","Low_HMMActual","","","","","","939.8000000044703","","","","Images/NewTrialBC.png","","1"
"image-button-response","489","823463","0.0-13.0-1.143","19","Low_HMMActual","","","","","","null","","","","Images/BlackBeadChoice.png","","null"
"image-button-response","490","823965","0.0-13.0-2.143","19","Low_HMMActual","","","","","","null","","","","Images/BlackBeadChoiceWrong.png","","null"
"image-button-response","491","824841","0.0-13.0-0.144","19","Low_HMMActual","","","","","","875.3999999985099","","","","Images/NewTrialWC.png","","3"
"image-button-response","492","825142","0.0-13.0-1.144","19","Low_HMMActual","","","","","","null","","","","Images/WhiteBeadChoice.png","","null"
"image-button-response","493","825643","0.0-13.0-2.144","19","Low_HMMActual","","","","","","null","","","","Images/WhiteBeadChoiceCorrect.png","","null"
"image-button-response","494","827551","0.0-13.0-0.145","19","Low_HMMActual","","","","","","1907.2000000029802","","","","Images/NewTrialWC.png","","2"
"image-button-response","495","827853","0.0-13.0-1.145","19","Low_HMMActual","","","","","","null","","","","Images/WhiteBeadChoice.png","","null"
"image-button-response","496","828354","0.0-13.0-2.145","19","Low_HMMActual","","","","","","null","","","","Images/WhiteBeadChoiceCorrect.png","","null"
"image-button-response","497","830803","0.0-13.0-0.146","19","Low_HMMActual","","","","","","2448.5","","","","Images/NewTrialWC.png","","2"
"image-button-response","498","831106","0.0-13.0-1.146","19","Low_HMMActual","","","","","","null","","","","Images/WhiteBeadChoice.png","","null"
"image-button-response","499","831607","0.0-13.0-2.146","19","Low_HMMActual","","","","","","null","","","","Images/WhiteBeadChoiceWrong.png","","null"
"image-button-response","500","832675","0.0-13.0-0.147","19","Low_HMMActual","","","","","","1067.3000000044703","","","","Images/NewTrialBC.png","","1"
"image-button-response","501","832976","0.0-13.0-1.147","19","Low_HMMActual","","","","","","null","","","","Images/BlackBeadChoice.png","","null"
"image-button-response","502","833480","0.0-13.0-2.147","19","Low_HMMActual","","","","","","null","","","","Images/BlackBeadChoiceWrong.png","","null"
"image-button-response","503","834722","0.0-13.0-0.148","19","Low_HMMActual","","","","","","1241.6999999955297","","","","Images/NewTrialWC.png","","3"
"image-button-response","504","835023","0.0-13.0-1.148","19","Low_HMMActual","","","","","","null","","","","Images/WhiteBeadChoice.png","","null"
"image-button-response","505","835525","0.0-13.0-2.148","19","Low_HMMActual","","","","","","null","","","","Images/WhiteBeadChoiceCorrect.png","","null"
"image-button-response","506","836922","0.0-13.0-0.149","19","Low_HMMActual","","","","","","1396","","","","Images/NewTrialWC.png","","3"
"image-button-response","507","837225","0.0-13.0-1.149","19","Low_HMMActual","","","","","","null","","","","Images/WhiteBeadChoice.png","","null"
"image-button-response","508","837725","0.0-13.0-2.149","19","Low_HMMActual","","","","","","null","","","","Images/WhiteBeadChoiceWrong.png","","null"
"image-button-response","509","838323","0.0-13.0-0.150","19","Low_HMMActual","","","","","","596.6999999955297","","","","Images/NewTrialBC.png","","1"
"image-button-response","510","838624","0.0-13.0-1.150","19","Low_HMMActual","","","","","","null","","","","Images/BlackBeadChoice.png","","null"
"image-button-response","511","839126","0.0-13.0-2.150","19","Low_HMMActual","","","","","","null","","","","Images/BlackBeadChoiceWrong.png","","null"
"image-button-response","512","839912","0.0-13.0-0.151","19","Low_HMMActual","","","","","","784.8000000044703","","","","Images/NewTrialWC.png","","3"
"image-button-response","513","840213","0.0-13.0-1.151","19","Low_HMMActual","","","","","","null","","","","Images/WhiteBeadChoice.png","","null"
"image-button-response","514","840714","0.0-13.0-2.151","19","Low_HMMActual","","","","","","null","","","","Images/WhiteBeadChoiceCorrect.png","","null"
"image-button-response","515","842447","0.0-13.0-0.152","19","Low_HMMActual","","","","","","1730.6000000014901","","","","Images/NewTrialWC.png","","3"
"image-button-response","516","842748","0.0-13.0-1.152","19","Low_HMMActual","","","","","","null","","","","Images/WhiteBeadChoice.png","","null"
"image-button-response","517","843249","0.0-13.0-2.152","19","Low_HMMActual","","","","","","null","","","","Images/WhiteBeadChoiceCorrect.png","","null"
"image-button-response","518","843753","0.0-13.0-0.153","19","Low_HMMActual","","","","","","502.70000000298023","","","","Images/NewTrialWC.png","","2"
"image-button-response","519","844054","0.0-13.0-1.153","19","Low_HMMActual","","","","","","null","","","","Images/WhiteBeadChoice.png","","null"
"image-button-response","520","844555","0.0-13.0-2.153","19","Low_HMMActual","","","","","","null","","","","Images/WhiteBeadChoiceCorrect.png","","null"
"image-button-response","521","846192","0.0-13.0-0.154","19","Low_HMMActual","","","","","","1635.2000000029802","","","","Images/NewTrialWC.png","","2"
"image-button-response","522","846494","0.0-13.0-1.154","19","Low_HMMActual","","","","","","null","","","","Images/WhiteBeadChoice.png","","null"
"image-button-response","523","846996","0.0-13.0-2.154","19","Low_HMMActual","","","","","","null","","","","Images/WhiteBeadChoiceCorrect.png","","null"
"image-button-response","524","849750","0.0-13.0-0.155","19","Low_HMMActual","","","","","","2752.89999999851","","","","Images/NewTrialWC.png","","2"
"image-button-response","525","850051","0.0-13.0-1.155","19","Low_HMMActual","","","","","","null","","","","Images/WhiteBeadChoice.png","","null"
"image-button-response","526","850555","0.0-13.0-2.155","19","Low_HMMActual","","","","","","null","","","","Images/WhiteBeadChoiceWrong.png","","null"
"image-button-response","527","851113","0.0-13.0-0.156","19","Low_HMMActual","","","","","","556.7999999970198","","","","Images/NewTrialBC.png","","1"
"image-button-response","528","851414","0.0-13.0-1.156","19","Low_HMMActual","","","","","","null","","","","Images/BlackBeadChoice.png","","null"
"image-button-response","529","851915","0.0-13.0-2.156","19","Low_HMMActual","","","","","","null","","","","Images/BlackBeadChoiceCorrect.png","","null"
"image-button-response","530","852543","0.0-13.0-0.157","19","Low_HMMActual","","","","","","627.7999999970198","","","","Images/NewTrialBC.png","","0"
"image-button-response","531","852845","0.0-13.0-1.157","19","Low_HMMActual","","","","","","null","","","","Images/BlackBeadChoice.png","","null"
"image-button-response","532","853347","0.0-13.0-2.157","19","Low_HMMActual","","","","","","null","","","","Images/BlackBeadChoiceCorrect.png","","null"
"image-button-response","533","853989","0.0-13.0-0.158","19","Low_HMMActual","","","","","","641","","","","Images/NewTrialBC.png","","0"
"image-button-response","534","854291","0.0-13.0-1.158","19","Low_HMMActual","","","","","","null","","","","Images/BlackBeadChoice.png","","null"
"image-button-response","535","854792","0.0-13.0-2.158","19","Low_HMMActual","","","","","","null","","","","Images/BlackBeadChoiceCorrect.png","","null"
"image-button-response","536","855096","0.0-13.0-0.159","19","Low_HMMActual","","","","","","303.3999999985099","","","","Images/NewTrialBC.png","","0"
"image-button-response","537","855398","0.0-13.0-1.159","19","Low_HMMActual","","","","","","null","","","","Images/BlackBeadChoice.png","","null"
"image-button-response","538","855899","0.0-13.0-2.159","19","Low_HMMActual","","","","","","null","","","","Images/BlackBeadChoiceCorrect.png","","null"
"image-button-response","539","856402","0.0-13.0-0.160","19","Low_HMMActual","","","","","","502.5","","","","Images/NewTrialBC.png","","0"
"image-button-response","540","856705","0.0-13.0-1.160","19","Low_HMMActual","","","","","","null","","","","Images/BlackBeadChoice.png","","null"
"image-button-response","541","857207","0.0-13.0-2.160","19","Low_HMMActual","","","","","","null","","","","Images/BlackBeadChoiceCorrect.png","","null"
"image-button-response","542","857748","0.0-13.0-0.161","19","Low_HMMActual","","","","","","541","","","","Images/NewTrialBC.png","","0"
"image-button-response","543","858050","0.0-13.0-1.161","19","Low_HMMActual","","","","","","null","","","","Images/BlackBeadChoice.png","","null"
"image-button-response","544","858551","0.0-13.0-2.161","19","Low_HMMActual","","","","","","null","","","","Images/BlackBeadChoiceWrong.png","","null"
"image-button-response","545","859434","0.0-13.0-0.162","19","Low_HMMActual","","","","","","882.3000000044703","","","","Images/NewTrialWC.png","","3"
"image-button-response","546","859736","0.0-13.0-1.162","19","Low_HMMActual","","","","","","null","","","","Images/WhiteBeadChoice.png","","null"
"image-button-response","547","860237","0.0-13.0-2.162","19","Low_HMMActual","","","","","","null","","","","Images/WhiteBeadChoiceCorrect.png","","null"
"image-button-response","548","860901","0.0-13.0-0.163","19","Low_HMMActual","","","","","","663.2000000029802","","","","Images/NewTrialWC.png","","3"
"image-button-response","549","861203","0.0-13.0-1.163","19","Low_HMMActual","","","","","","null","","","","Images/WhiteBeadChoice.png","","null"
"image-button-response","550","861705","0.0-13.0-2.163","19","Low_HMMActual","","","","","","null","","","","Images/WhiteBeadChoiceCorrect.png","","null"
"image-button-response","551","862130","0.0-13.0-0.164","19","Low_HMMActual","","","","","","424","","","","Images/NewTrialWC.png","","2"
"image-button-response","552","862432","0.0-13.0-1.164","19","Low_HMMActual","","","","","","null","","","","Images/WhiteBeadChoice.png","","null"
"image-button-response","553","862935","0.0-13.0-2.164","19","Low_HMMActual","","","","","","null","","","","Images/WhiteBeadChoiceCorrect.png","","null"
"image-button-response","554","863470","0.0-13.0-0.165","19","Low_HMMActual","","","","","","533.6000000014901","","","","Images/NewTrialWC.png","","2"
"image-button-response","555","863771","0.0-13.0-1.165","19","Low_HMMActual","","","","","","null","","","","Images/WhiteBeadChoice.png","","null"
"image-button-response","556","864273","0.0-13.0-2.165","19","Low_HMMActual","","","","","","null","","","","Images/WhiteBeadChoiceCorrect.png","","null"
"image-button-response","557","864510","0.0-13.0-0.166","19","Low_HMMActual","","","","","","236.5","","","","Images/NewTrialWC.png","","2"
"image-button-response","558","864812","0.0-13.0-1.166","19","Low_HMMActual","","","","","","null","","","","Images/WhiteBeadChoice.png","","null"
"image-button-response","559","865313","0.0-13.0-2.166","19","Low_HMMActual","","","","","","null","","","","Images/WhiteBeadChoiceCorrect.png","","null"
"image-button-response","560","866220","0.0-13.0-0.167","19","Low_HMMActual","","","","","","905.8999999985099","","","","Images/NewTrialWC.png","","2"
"image-button-response","561","866521","0.0-13.0-1.167","19","Low_HMMActual","","","","","","null","","","","Images/WhiteBeadChoice.png","","null"
"image-button-response","562","867023","0.0-13.0-2.167","19","Low_HMMActual","","","","","","null","","","","Images/WhiteBeadChoiceCorrect.png","","null"
"image-button-response","563","867546","0.0-13.0-0.168","19","Low_HMMActual","","","","","","520.2999999970198","","","","Images/NewTrialWC.png","","2"
"image-button-response","564","867847","0.0-13.0-1.168","19","Low_HMMActual","","","","","","null","","","","Images/WhiteBeadChoice.png","","null"
"image-button-response","565","868349","0.0-13.0-2.168","19","Low_HMMActual","","","","","","null","","","","Images/WhiteBeadChoiceWrong.png","","null"
"image-button-response","566","869121","0.0-13.0-0.169","19","Low_HMMActual","","","","","","771.2999999970198","","","","Images/NewTrialBC.png","","1"
"image-button-response","567","869423","0.0-13.0-1.169","19","Low_HMMActual","","","","","","null","","","","Images/BlackBeadChoice.png","","null"
"image-button-response","568","869925","0.0-13.0-2.169","19","Low_HMMActual","","","","","","null","","","","Images/BlackBeadChoiceWrong.png","","null"
"image-button-response","569","870441","0.0-13.0-0.170","19","Low_HMMActual","","","","","","515.2999999970198","","","","Images/NewTrialWC.png","","3"
"image-button-response","570","870742","0.0-13.0-1.170","19","Low_HMMActual","","","","","","null","","","","Images/WhiteBeadChoice.png","","null"
"image-button-response","571","871243","0.0-13.0-2.170","19","Low_HMMActual","","","","","","null","","","","Images/WhiteBeadChoiceCorrect.png","","null"
"image-button-response","572","872019","0.0-13.0-0.171","19","Low_HMMActual","","","","","","775","","","","Images/NewTrialWC.png","","3"
"image-button-response","573","872321","0.0-13.0-1.171","19","Low_HMMActual","","","","","","null","","","","Images/WhiteBeadChoice.png","","null"
"image-button-response","574","872822","0.0-13.0-2.171","19","Low_HMMActual","","","","","","null","","","","Images/WhiteBeadChoiceCorrect.png","","null"
"image-button-response","575","873447","0.0-13.0-0.172","19","Low_HMMActual","","","","","","623.3999999985099","","","","Images/NewTrialWC.png","","2"
"image-button-response","576","873748","0.0-13.0-1.172","19","Low_HMMActual","","","","","","null","","","","Images/WhiteBeadChoice.png","","null"
"image-button-response","577","874249","0.0-13.0-2.172","19","Low_HMMActual","","","","","","null","","","","Images/WhiteBeadChoiceCorrect.png","","null"
"image-button-response","578","874482","0.0-13.0-0.173","19","Low_HMMActual","","","","","","231.39999999850988","","","","Images/NewTrialWC.png","","2"
"image-button-response","579","874784","0.0-13.0-1.173","19","Low_HMMActual","","","","","","null","","","","Images/WhiteBeadChoice.png","","null"
"image-button-response","580","875285","0.0-13.0-2.173","19","Low_HMMActual","","","","","","null","","","","Images/WhiteBeadChoiceCorrect.png","","null"
"image-button-response","581","875449","0.0-13.0-0.174","19","Low_HMMActual","","","","","","163.19999999552965","","","","Images/NewTrialWC.png","","2"
"image-button-response","582","875751","0.0-13.0-1.174","19","Low_HMMActual","","","","","","null","","","","Images/WhiteBeadChoice.png","","null"
"image-button-response","583","876252","0.0-13.0-2.174","19","Low_HMMActual","","","","","","null","","","","Images/WhiteBeadChoiceCorrect.png","","null"
"image-button-response","584","877758","0.0-13.0-0.175","19","Low_HMMActual","","","","","","1504.5999999940395","","","","Images/NewTrialWC.png","","2"
"image-button-response","585","878059","0.0-13.0-1.175","19","Low_HMMActual","","","","","","null","","","","Images/WhiteBeadChoice.png","","null"
"image-button-response","586","878560","0.0-13.0-2.175","19","Low_HMMActual","","","","","","null","","","","Images/WhiteBeadChoiceWrong.png","","null"
"image-button-response","587","879421","0.0-13.0-0.176","19","Low_HMMActual","","","","","","859.8999999985099","","","","Images/NewTrialBC.png","","1"
"image-button-response","588","879722","0.0-13.0-1.176","19","Low_HMMActual","","","","","","null","","","","Images/BlackBeadChoice.png","","null"
"image-button-response","589","880223","0.0-13.0-2.176","19","Low_HMMActual","","","","","","null","","","","Images/BlackBeadChoiceCorrect.png","","null"
"image-button-response","590","880471","0.0-13.0-0.177","19","Low_HMMActual","","","","","","246.60000000149012","","","","Images/NewTrialBC.png","","1"
"image-button-response","591","880773","0.0-13.0-1.177","19","Low_HMMActual","","","","","","null","","","","Images/BlackBeadChoice.png","","null"
"image-button-response","592","881275","0.0-13.0-2.177","19","Low_HMMActual","","","","","","null","","","","Images/BlackBeadChoiceCorrect.png","","null"
"image-button-response","593","885366","0.0-13.0-0.178","19","Low_HMMActual","","","","","","4089.60000000149","","","","Images/NewTrialBC.png","","1"
"image-button-response","594","885668","0.0-13.0-1.178","19","Low_HMMActual","","","","","","null","","","","Images/BlackBeadChoice.png","","null"
"image-button-response","595","886168","0.0-13.0-2.178","19","Low_HMMActual","","","","","","null","","","","Images/BlackBeadChoiceWrong.png","","null"
"image-button-response","596","886839","0.0-13.0-0.179","19","Low_HMMActual","","","","","","669.8000000044703","","","","Images/NewTrialWC.png","","3"
"image-button-response","597","887140","0.0-13.0-1.179","19","Low_HMMActual","","","","","","null","","","","Images/WhiteBeadChoice.png","","null"
"image-button-response","598","887641","0.0-13.0-2.179","19","Low_HMMActual","","","","","","null","","","","Images/WhiteBeadChoiceWrong.png","","null"
"image-button-response","599","888276","0.0-13.0-0.180","19","Low_HMMActual","","","","","","633.3000000044703","","","","Images/NewTrialBC.png","","0"
"image-button-response","600","888578","0.0-13.0-1.180","19","Low_HMMActual","","","","","","null","","","","Images/BlackBeadChoice.png","","null"
"image-button-response","601","889080","0.0-13.0-2.180","19","Low_HMMActual","","","","","","null","","","","Images/BlackBeadChoiceCorrect.png","","null"
"image-button-response","602","890299","0.0-13.0-0.181","19","Low_HMMActual","","","","","","1218.1000000014901","","","","Images/NewTrialBC.png","","0"
"image-button-response","603","890600","0.0-13.0-1.181","19","Low_HMMActual","","","","","","null","","","","Images/BlackBeadChoice.png","","null"
"image-button-response","604","891101","0.0-13.0-2.181","19","Low_HMMActual","","","","","","null","","","","Images/BlackBeadChoiceCorrect.png","","null"
"image-button-response","605","892187","0.0-13.0-0.182","19","Low_HMMActual","","","","","","1084.2999999970198","","","","Images/NewTrialBC.png","","0"
"image-button-response","606","892488","0.0-13.0-1.182","19","Low_HMMActual","","","","","","null","","","","Images/BlackBeadChoice.png","","null"
"image-button-response","607","892989","0.0-13.0-2.182","19","Low_HMMActual","","","","","","null","","","","Images/BlackBeadChoiceCorrect.png","","null"
"image-button-response","608","894590","0.0-13.0-0.183","19","Low_HMMActual","","","","","","1600.1000000014901","","","","Images/NewTrialBC.png","","0"
"image-button-response","609","894893","0.0-13.0-1.183","19","Low_HMMActual","","","","","","null","","","","Images/BlackBeadChoice.png","","null"
"image-button-response","610","895394","0.0-13.0-2.183","19","Low_HMMActual","","","","","","null","","","","Images/BlackBeadChoiceCorrect.png","","null"
"image-button-response","611","895694","0.0-13.0-0.184","19","Low_HMMActual","","","","","","299.3999999985099","","","","Images/NewTrialBC.png","","0"
"image-button-response","612","895995","0.0-13.0-1.184","19","Low_HMMActual","","","","","","null","","","","Images/BlackBeadChoice.png","","null"
"image-button-response","613","896496","0.0-13.0-2.184","19","Low_HMMActual","","","","","","null","","","","Images/BlackBeadChoiceCorrect.png","","null"
"image-button-response","614","896896","0.0-13.0-0.185","19","Low_HMMActual","","","","","","399.19999999552965","","","","Images/NewTrialBC.png","","0"
"image-button-response","615","897198","0.0-13.0-1.185","19","Low_HMMActual","","","","","","null","","","","Images/BlackBeadChoice.png","","null"
"image-button-response","616","897699","0.0-13.0-2.185","19","Low_HMMActual","","","","","","null","","","","Images/BlackBeadChoiceCorrect.png","","null"
"image-button-response","617","898010","0.0-13.0-0.186","19","Low_HMMActual","","","","","","310.79999999701977","","","","Images/NewTrialBC.png","","0"
"image-button-response","618","898313","0.0-13.0-1.186","19","Low_HMMActual","","","","","","null","","","","Images/BlackBeadChoice.png","","null"
"image-button-response","619","898814","0.0-13.0-2.186","19","Low_HMMActual","","","","","","null","","","","Images/BlackBeadChoiceCorrect.png","","null"
"image-button-response","620","899849","0.0-13.0-0.187","19","Low_HMMActual","","","","","","1034.1999999955297","","","","Images/NewTrialBC.png","","0"
"image-button-response","621","900151","0.0-13.0-1.187","19","Low_HMMActual","","","","","","null","","","","Images/BlackBeadChoice.png","","null"
"image-button-response","622","900653","0.0-13.0-2.187","19","Low_HMMActual","","","","","","null","","","","Images/BlackBeadChoiceWrong.png","","null"
"image-button-response","623","901573","0.0-13.0-0.188","19","Low_HMMActual","","","","","","920","","","","Images/NewTrialWC.png","","3"
"image-button-response","624","901875","0.0-13.0-1.188","19","Low_HMMActual","","","","","","null","","","","Images/WhiteBeadChoice.png","","null"
"image-button-response","625","902376","0.0-13.0-2.188","19","Low_HMMActual","","","","","","null","","","","Images/WhiteBeadChoiceCorrect.png","","null"
"image-button-response","626","903720","0.0-13.0-0.189","19","Low_HMMActual","","","","","","1343.4000000059605","","","","Images/NewTrialWC.png","","2"
"image-button-response","627","904022","0.0-13.0-1.189","19","Low_HMMActual","","","","","","null","","","","Images/WhiteBeadChoice.png","","null"
"image-button-response","628","904525","0.0-13.0-2.189","19","Low_HMMActual","","","","","","null","","","","Images/WhiteBeadChoiceCorrect.png","","null"
"image-button-response","629","904827","0.0-13.0-0.190","19","Low_HMMActual","","","","","","301.5","","","","Images/NewTrialWC.png","","2"
"image-button-response","630","905129","0.0-13.0-1.190","19","Low_HMMActual","","","","","","null","","","","Images/WhiteBeadChoice.png","","null"
"image-button-response","631","905631","0.0-13.0-2.190","19","Low_HMMActual","","","","","","null","","","","Images/WhiteBeadChoiceCorrect.png","","null"
"image-button-response","632","906830","0.0-13.0-0.191","19","Low_HMMActual","","","","","","1198.7000000029802","","","","Images/NewTrialWC.png","","2"
"image-button-response","633","907131","0.0-13.0-1.191","19","Low_HMMActual","","","","","","null","","","","Images/WhiteBeadChoice.png","","null"
"image-button-response","634","907633","0.0-13.0-2.191","19","Low_HMMActual","","","","","","null","","","","Images/WhiteBeadChoiceCorrect.png","","null"
"image-button-response","635","907814","0.0-13.0-0.192","19","Low_HMMActual","","","","","","178.39999999850988","","","","Images/NewTrialWC.png","","2"
"image-button-response","636","908116","0.0-13.0-1.192","19","Low_HMMActual","","","","","","null","","","","Images/WhiteBeadChoice.png","","null"
"image-button-response","637","908618","0.0-13.0-2.192","19","Low_HMMActual","","","","","","null","","","","Images/WhiteBeadChoiceCorrect.png","","null"
"image-button-response","638","908816","0.0-13.0-0.193","19","Low_HMMActual","","","","","","197.60000000149012","","","","Images/NewTrialWC.png","","2"
"image-button-response","639","909119","0.0-13.0-1.193","19","Low_HMMActual","","","","","","null","","","","Images/WhiteBeadChoice.png","","null"
"image-button-response","640","909620","0.0-13.0-2.193","19","Low_HMMActual","","","","","","null","","","","Images/WhiteBeadChoiceCorrect.png","","null"
"image-button-response","641","910931","0.0-13.0-0.194","19","Low_HMMActual","","","","","","1310.6000000014901","","","","Images/NewTrialWC.png","","2"
"image-button-response","642","911233","0.0-13.0-1.194","19","Low_HMMActual","","","","","","null","","","","Images/WhiteBeadChoice.png","","null"
"image-button-response","643","911735","0.0-13.0-2.194","19","Low_HMMActual","","","","","","null","","","","Images/WhiteBeadChoiceCorrect.png","","null"
"image-button-response","644","912346","0.0-13.0-0.195","19","Low_HMMActual","","","","","","610.7000000029802","","","","Images/NewTrialWC.png","","2"
"image-button-response","645","912648","0.0-13.0-1.195","19","Low_HMMActual","","","","","","null","","","","Images/WhiteBeadChoice.png","","null"
"image-button-response","646","913149","0.0-13.0-2.195","19","Low_HMMActual","","","","","","null","","","","Images/WhiteBeadChoiceCorrect.png","","null"
"image-button-response","647","913612","0.0-13.0-0.196","19","Low_HMMActual","","","","","","461.6000000014901","","","","Images/NewTrialWC.png","","2"
"image-button-response","648","913914","0.0-13.0-1.196","19","Low_HMMActual","","","","","","null","","","","Images/WhiteBeadChoice.png","","null"
"image-button-response","649","914416","0.0-13.0-2.196","19","Low_HMMActual","","","","","","null","","","","Images/WhiteBeadChoiceCorrect.png","","null"
"image-button-response","650","915101","0.0-13.0-0.197","19","Low_HMMActual","","","","","","684.1000000014901","","","","Images/NewTrialWC.png","","2"
"image-button-response","651","915403","0.0-13.0-1.197","19","Low_HMMActual","","","","","","null","","","","Images/WhiteBeadChoice.png","","null"
"image-button-response","652","915904","0.0-13.0-2.197","19","Low_HMMActual","","","","","","null","","","","Images/WhiteBeadChoiceCorrect.png","","null"
"image-button-response","653","916731","0.0-13.0-0.198","19","Low_HMMActual","","","","","","825.7999999970198","","","","Images/NewTrialWC.png","","2"
"image-button-response","654","917033","0.0-13.0-1.198","19","Low_HMMActual","","","","","","null","","","","Images/WhiteBeadChoice.png","","null"
"image-button-response","655","917534","0.0-13.0-2.198","19","Low_HMMActual","","","","","","null","","","","Images/WhiteBeadChoiceWrong.png","","null"
"image-button-response","656","918507","0.0-13.0-0.199","19","Low_HMMActual","","","","","","972.3999999985099","","","","Images/NewTrialBC.png","","1"
"image-button-response","657","918808","0.0-13.0-1.199","19","Low_HMMActual","","","","","","null","","","","Images/BlackBeadChoice.png","","null"
"image-button-response","658","919310","0.0-13.0-2.199","19","Low_HMMActual","","","","","","null","","","","Images/BlackBeadChoiceWrong.png","","null"
"image-button-response","659","919923","0.0-13.0-0.200","19","Low_HMMActual","","","","","","612.5999999940395","","","","Images/NewTrialWC.png","","3"
"image-button-response","660","920224","0.0-13.0-1.200","19","Low_HMMActual","","","","","","null","","","","Images/WhiteBeadChoice.png","","null"
"image-button-response","661","920725","0.0-13.0-2.200","19","Low_HMMActual","","","","","","null","","","","Images/WhiteBeadChoiceCorrect.png","","null"
"image-button-response","662","921035","0.0-13.0-0.201","19","Low_HMMActual","","","","","","309.19999999552965","","","","Images/NewTrialWC.png","","2"
"image-button-response","663","921336","0.0-13.0-1.201","19","Low_HMMActual","","","","","","null","","","","Images/WhiteBeadChoice.png","","null"
"image-button-response","664","921837","0.0-13.0-2.201","19","Low_HMMActual","","","","","","null","","","","Images/WhiteBeadChoiceWrong.png","","null"
"image-button-response","665","922394","0.0-13.0-0.202","19","Low_HMMActual","","","","","","555.7000000029802","","","","Images/NewTrialBC.png","","1"
