"trial_type","trial_index","time_elapsed","internal_node_id","Script_Picker","Block_Type","success","timeout","failed_images","failed_audio","failed_video","rt","url","responses","question_order","stimulus","key_press","response"
"pavlovia","0","22","0.0-0.0","17","Low_HMMActual","","","","","","","","","","","",""
"preload","1","23","0.0-1.0","17","Low_HMMActual","true","false","[]","[]","[]","","","","","","",""
"external-html","2","5391","0.0-2.0-0.0","17","Low_HMMActual","","","","","","5215.5","consent.html","","","","",""
"survey-multi-choice","3","10927","0.0-2.0-1.0","17","Low_HMMActual","","","","","","5533","","{""Q0"":""Female"",""Q1"":""Black or African American""}","[0,1]","","",""
"survey-text","4","13051","0.0-2.0-2.0","17","Low_HMMActual","","","","","","2119.800000011921","","{""Q0"":""46""}","","","",""
"survey-text","5","18086","0.0-2.0-3.0","17","Low_HMMActual","","","","","","4922.699999988079","","{""Q0"":""54a7516dfdf99b7cd759d22b""}","","","",""
"image-keyboard-response","6","40369","0.0-3.0-0.0","17","Low_HMMActual","","","","","","22169.80000001192","","","","tutorial/tutorial1.png"," ",""
"image-keyboard-response","7","63496","0.0-3.0-0.1","17","Low_HMMActual","","","","","","23125.399999976158","","","","tutorial/tutorial2.png"," ",""
"image-keyboard-response","8","64174","0.0-3.0-0.2","17","Low_HMMActual","","","","","","676.6999999880791","","","","tutorial/tutorial3.png"," ",""
"image-keyboard-response","9","116490","0.0-3.0-0.3","17","Low_HMMActual","","","","","","52314.30000001192","","","","tutorial/tutorial4.png"," ",""
"image-keyboard-response","10","118562","0.0-3.0-0.4","17","Low_HMMActual","","","","","","2070.600000023842","","","","tutorial/tutorial5.png"," ",""
"image-keyboard-response","11","125832","0.0-3.0-0.5","17","Low_HMMActual","","","","","","7268.099999964237","","","","tutorial/tutorial6.png"," ",""
"image-keyboard-response","12","131938","0.0-3.0-0.6","17","Low_HMMActual","","","","","","6105.199999988079","","","","tutorial/tutorial7.png"," ",""
"image-keyboard-response","13","174367","0.0-3.0-0.7","17","Low_HMMActual","","","","","","42427.5","","","","tutorial/tutorial8.png"," ",""
"image-keyboard-response","14","187033","0.0-3.0-0.8","17","Low_HMMActual","","","","","","12664.599999964237","","","","tutorial/tutorial9.png"," ",""
"image-keyboard-response","15","194426","0.0-3.0-0.9","17","Low_HMMActual","","","","","","7392","","","","tutorial/tutorial10.png"," ",""
"image-keyboard-response","16","208189","0.0-3.0-0.10","17","Low_HMMActual","","","","","","13761.5","","","","tutorial/tutorial11.png"," ",""
"image-keyboard-response","17","217158","0.0-3.0-0.11","17","Low_HMMActual","","","","","","8967.199999988079","","","","tutorial/tutorial12.png"," ",""
"image-keyboard-response","18","233749","0.0-3.0-0.12","17","Low_HMMActual","","","","","","16589.69999998808","","","","tutorial/tutorial13.png"," ",""
"image-keyboard-response","19","244490","0.0-3.0-0.13","17","Low_HMMActual","","","","","","10739.400000035763","","","","tutorial/tutorial14.png"," ",""
"image-keyboard-response","20","246354","0.0-3.0-0.14","17","Low_HMMActual","","","","","","1862.800000011921","","","","tutorial/tutorial15.png"," ",""
"image-keyboard-response","21","261361","0.0-4.0","17","Low_HMMActual","","","","","","15005.100000023842","","","","tutorial/tutorial16.png","arrowup",""
"image-keyboard-response","22","273829","0.0-5.0","17","Low_HMMActual","","","","","","9578.599999964237","","","","tutorial/tutorial17.png","arrowright",""
"image-keyboard-response","23","282795","0.0-6.0","17","Low_HMMActual","","","","","","7145.399999976158","","","","tutorial/tutorial18.png","arrowleft",""
"image-keyboard-response","24","307442","0.0-7.0","17","Low_HMMActual","","","","","","22747.599999964237","","","","tutorial/tutorial19.png"," ",""
"html-keyboard-response","25","313682","0.0-8.0","18","Low_HMMActual","","","","","","6236.700000047684","","","","<div class=""container"" style=""height:800px;width:800px;display:flex;flex-direction:column;justify-content:center;align-items:center;text-align:center;font-weight:normal;font-family:Arial;font-size:20px""><p>Loading episode&hellip;</p><div>"," ",""
"image-button-response","26","335173","0.0-9.0-0.0","18","Low_HMMActual","","","","","","21481.700000047684","","","","Images/NoChoice.png","","0"
"image-button-response","27","335484","0.0-9.0-1.0","18","Low_HMMActual","","","","","","null","","","","Images/BlackBeadChoice.png","","null"
"image-button-response","28","335994","0.0-9.0-2.0","18","Low_HMMActual","","","","","","null","","","","Images/BlackBeadChoiceWrong.png","","null"
"image-button-response","29","346140","0.0-9.0-0.1","18","Low_HMMActual","","","","","","10142.599999964237","","","","Images/NewTrialWC.png","","2"
"image-button-response","30","346457","0.0-9.0-1.1","18","Low_HMMActual","","","","","","null","","","","Images/WhiteBeadChoice.png","","null"
"image-button-response","31","346968","0.0-9.0-2.1","18","Low_HMMActual","","","","","","null","","","","Images/WhiteBeadChoiceCorrect.png","","null"
"image-button-response","32","354669","0.0-9.0-0.2","18","Low_HMMActual","","","","","","7696","","","","Images/NewTrialWC.png","","2"
"image-button-response","33","354975","0.0-9.0-1.2","18","Low_HMMActual","","","","","","null","","","","Images/WhiteBeadChoice.png","","null"
"image-button-response","34","355491","0.0-9.0-2.2","18","Low_HMMActual","","","","","","null","","","","Images/WhiteBeadChoiceCorrect.png","","null"
"image-button-response","35","360557","0.0-9.0-0.3","18","Low_HMMActual","","","","","","5060.300000011921","","","","Images/NewTrialWC.png","","2"
"image-button-response","36","360870","0.0-9.0-1.3","18","Low_HMMActual","","","","","","null","","","","Images/WhiteBeadChoice.png","","null"
"image-button-response","37","361381","0.0-9.0-2.3","18","Low_HMMActual","","","","","","null","","","","Images/WhiteBeadChoiceWrong.png","","null"
"image-button-response","38","364844","0.0-9.0-0.4","18","Low_HMMActual","","","","","","3459.399999976158","","","","Images/NewTrialBC.png","","0"
"image-button-response","39","365160","0.0-9.0-1.4","18","Low_HMMActual","","","","","","null","","","","Images/BlackBeadChoice.png","","null"
"image-button-response","40","365671","0.0-9.0-2.4","18","Low_HMMActual","","","","","","null","","","","Images/BlackBeadChoiceWrong.png","","null"
"image-button-response","41","368036","0.0-9.0-0.5","18","Low_HMMActual","","","","","","2359.899999976158","","","","Images/NewTrialWC.png","","2"
"image-button-response","42","368354","0.0-9.0-1.5","18","Low_HMMActual","","","","","","null","","","","Images/WhiteBeadChoice.png","","null"
"image-button-response","43","368864","0.0-9.0-2.5","18","Low_HMMActual","","","","","","null","","","","Images/WhiteBeadChoiceCorrect.png","","null"
"image-button-response","44","370795","0.0-9.0-0.6","18","Low_HMMActual","","","","","","1926.3999999761581","","","","Images/NewTrialWC.png","","2"
"image-button-response","45","371104","0.0-9.0-1.6","18","Low_HMMActual","","","","","","null","","","","Images/WhiteBeadChoice.png","","null"
"image-button-response","46","371623","0.0-9.0-2.6","18","Low_HMMActual","","","","","","null","","","","Images/WhiteBeadChoiceWrong.png","","null"
"image-button-response","47","373321","0.0-9.0-0.7","18","Low_HMMActual","","","","","","1693.5","","","","Images/NewTrialBC.png","","0"
"image-button-response","48","373634","0.0-9.0-1.7","18","Low_HMMActual","","","","","","null","","","","Images/BlackBeadChoice.png","","null"
"image-button-response","49","374153","0.0-9.0-2.7","18","Low_HMMActual","","","","","","null","","","","Images/BlackBeadChoiceWrong.png","","null"
"image-button-response","50","375576","0.0-9.0-0.8","18","Low_HMMActual","","","","","","1419.5","","","","Images/NewTrialWC.png","","2"
"image-button-response","51","375884","0.0-9.0-1.8","18","Low_HMMActual","","","","","","null","","","","Images/WhiteBeadChoice.png","","null"
"image-button-response","52","376394","0.0-9.0-2.8","18","Low_HMMActual","","","","","","null","","","","Images/WhiteBeadChoiceCorrect.png","","null"
"image-button-response","53","377553","0.0-9.0-0.9","18","Low_HMMActual","","","","","","1152.3999999761581","","","","Images/NewTrialWC.png","","2"
"image-button-response","54","377874","0.0-9.0-1.9","18","Low_HMMActual","","","","","","null","","","","Images/WhiteBeadChoice.png","","null"
"image-button-response","55","378380","0.0-9.0-2.9","18","Low_HMMActual","","","","","","null","","","","Images/WhiteBeadChoiceWrong.png","","null"
"html-keyboard-response","56","381492","0.0-10.0","18","Low_HMMActual","","","","","","3109.099999964237","","","",""," ",""
"image-keyboard-response","57","384404","0.0-11.0","18","Low_HMMActual","","","","","","2910.699999988079","","","","tutorial/tutorial20.png"," ",""
"html-keyboard-response","58","403003","0.0-12.0","19","Low_HMMActual","","","","","","18594.600000023842","","","","<div class=""container"" style=""height:800px;width:800px;display:flex;flex-direction:column;justify-content:center;align-items:center;text-align:center;font-weight:normal;font-family:Arial;font-size:20px""><p>Loading episode&hellip;</p><div>"," ",""
"image-button-response","59","406699","0.0-13.0-0.0","19","Low_HMMActual","","","","","","3695","","","","Images/NoChoice.png","","0"
"image-button-response","60","407009","0.0-13.0-1.0","19","Low_HMMActual","","","","","","null","","","","Images/BlackBeadChoice.png","","null"
"image-button-response","61","407520","0.0-13.0-2.0","19","Low_HMMActual","","","","","","null","","","","Images/BlackBeadChoiceWrong.png","","null"
"image-button-response","62","413911","0.0-13.0-0.1","19","Low_HMMActual","","","","","","6384.699999988079","","","","Images/NewTrialWC.png","","0"
"image-button-response","63","414224","0.0-13.0-1.1","19","Low_HMMActual","","","","","","null","","","","Images/BlackBeadChoice.png","","null"
"image-button-response","64","414738","0.0-13.0-2.1","19","Low_HMMActual","","","","","","null","","","","Images/BlackBeadChoiceWrong.png","","null"
"image-button-response","65","416712","0.0-13.0-0.2","19","Low_HMMActual","","","","","","1970.1000000238419","","","","Images/NewTrialWC.png","","2"
"image-button-response","66","417023","0.0-13.0-1.2","19","Low_HMMActual","","","","","","null","","","","Images/WhiteBeadChoice.png","","null"
"image-button-response","67","417534","0.0-13.0-2.2","19","Low_HMMActual","","","","","","null","","","","Images/WhiteBeadChoiceCorrect.png","","null"
"image-button-response","68","419535","0.0-13.0-0.3","19","Low_HMMActual","","","","","","1995.1000000238419","","","","Images/NewTrialWC.png","","2"
"image-button-response","69","419847","0.0-13.0-1.3","19","Low_HMMActual","","","","","","null","","","","Images/WhiteBeadChoice.png","","null"
"image-button-response","70","420361","0.0-13.0-2.3","19","Low_HMMActual","","","","","","null","","","","Images/WhiteBeadChoiceCorrect.png","","null"
"image-button-response","71","422920","0.0-13.0-0.4","19","Low_HMMActual","","","","","","2556.300000011921","","","","Images/NewTrialWC.png","","2"
"image-button-response","72","423232","0.0-13.0-1.4","19","Low_HMMActual","","","","","","null","","","","Images/WhiteBeadChoice.png","","null"
"image-button-response","73","423746","0.0-13.0-2.4","19","Low_HMMActual","","","","","","null","","","","Images/WhiteBeadChoiceCorrect.png","","null"
"image-button-response","74","425390","0.0-13.0-0.5","19","Low_HMMActual","","","","","","1636.3999999761581","","","","Images/NewTrialWC.png","","2"
"image-button-response","75","425700","0.0-13.0-1.5","19","Low_HMMActual","","","","","","null","","","","Images/WhiteBeadChoice.png","","null"
"image-button-response","76","426216","0.0-13.0-2.5","19","Low_HMMActual","","","","","","null","","","","Images/WhiteBeadChoiceWrong.png","","null"
"image-button-response","77","427750","0.0-13.0-0.6","19","Low_HMMActual","","","","","","1529.6000000238419","","","","Images/NewTrialBC.png","","0"
"image-button-response","78","428067","0.0-13.0-1.6","19","Low_HMMActual","","","","","","null","","","","Images/BlackBeadChoice.png","","null"
"image-button-response","79","428573","0.0-13.0-2.6","19","Low_HMMActual","","","","","","null","","","","Images/BlackBeadChoiceCorrect.png","","null"
"image-button-response","80","430164","0.0-13.0-0.7","19","Low_HMMActual","","","","","","1582.199999988079","","","","Images/NewTrialBC.png","","0"
"image-button-response","81","430469","0.0-13.0-1.7","19","Low_HMMActual","","","","","","null","","","","Images/BlackBeadChoice.png","","null"
"image-button-response","82","430984","0.0-13.0-2.7","19","Low_HMMActual","","","","","","null","","","","Images/BlackBeadChoiceCorrect.png","","null"
"image-button-response","83","431779","0.0-13.0-0.8","19","Low_HMMActual","","","","","","789.3999999761581","","","","Images/NewTrialBC.png","","0"
"image-button-response","84","432084","0.0-13.0-1.8","19","Low_HMMActual","","","","","","null","","","","Images/BlackBeadChoice.png","","null"
"image-button-response","85","432598","0.0-13.0-2.8","19","Low_HMMActual","","","","","","null","","","","Images/BlackBeadChoiceCorrect.png","","null"
"image-button-response","86","433544","0.0-13.0-0.9","19","Low_HMMActual","","","","","","940.1999999880791","","","","Images/NewTrialBC.png","","0"
"image-button-response","87","433854","0.0-13.0-1.9","19","Low_HMMActual","","","","","","null","","","","Images/BlackBeadChoice.png","","null"
"image-button-response","88","434367","0.0-13.0-2.9","19","Low_HMMActual","","","","","","null","","","","Images/BlackBeadChoiceCorrect.png","","null"
"image-button-response","89","435103","0.0-13.0-0.10","19","Low_HMMActual","","","","","","734.3000000119209","","","","Images/NewTrialBC.png","","0"
"image-button-response","90","435409","0.0-13.0-1.10","19","Low_HMMActual","","","","","","null","","","","Images/BlackBeadChoice.png","","null"
"image-button-response","91","435923","0.0-13.0-2.10","19","Low_HMMActual","","","","","","null","","","","Images/BlackBeadChoiceWrong.png","","null"
"image-button-response","92","436865","0.0-13.0-0.11","19","Low_HMMActual","","","","","","936.6000000238419","","","","Images/NewTrialWC.png","","2"
"image-button-response","93","437183","0.0-13.0-1.11","19","Low_HMMActual","","","","","","null","","","","Images/WhiteBeadChoice.png","","null"
"image-button-response","94","437688","0.0-13.0-2.11","19","Low_HMMActual","","","","","","null","","","","Images/WhiteBeadChoiceWrong.png","","null"
"image-button-response","95","438731","0.0-13.0-0.12","19","Low_HMMActual","","","","","","1035.5","","","","Images/NewTrialBC.png","","0"
"image-button-response","96","439037","0.0-13.0-1.12","19","Low_HMMActual","","","","","","null","","","","Images/BlackBeadChoice.png","","null"
"image-button-response","97","439553","0.0-13.0-2.12","19","Low_HMMActual","","","","","","null","","","","Images/BlackBeadChoiceWrong.png","","null"
"image-button-response","98","440544","0.0-13.0-0.13","19","Low_HMMActual","","","","","","980.8000000119209","","","","Images/NewTrialWC.png","","2"
"image-button-response","99","440852","0.0-13.0-1.13","19","Low_HMMActual","","","","","","null","","","","Images/WhiteBeadChoice.png","","null"
"image-button-response","100","441362","0.0-13.0-2.13","19","Low_HMMActual","","","","","","null","","","","Images/WhiteBeadChoiceCorrect.png","","null"
"image-button-response","101","441930","0.0-13.0-0.14","19","Low_HMMActual","","","","","","564.6000000238419","","","","Images/NewTrialWC.png","","2"
"image-button-response","102","442254","0.0-13.0-1.14","19","Low_HMMActual","","","","","","null","","","","Images/WhiteBeadChoice.png","","null"
"image-button-response","103","442764","0.0-13.0-2.14","19","Low_HMMActual","","","","","","null","","","","Images/WhiteBeadChoiceCorrect.png","","null"
"image-button-response","104","443395","0.0-13.0-0.15","19","Low_HMMActual","","","","","","625.7000000476837","","","","Images/NewTrialWC.png","","2"
"image-button-response","105","443704","0.0-13.0-1.15","19","Low_HMMActual","","","","","","null","","","","Images/WhiteBeadChoice.png","","null"
"image-button-response","106","444213","0.0-13.0-2.15","19","Low_HMMActual","","","","","","null","","","","Images/WhiteBeadChoiceCorrect.png","","null"
"image-button-response","107","444862","0.0-13.0-0.16","19","Low_HMMActual","","","","","","623.5999999642372","","","","Images/NewTrialWC.png","","2"
"image-button-response","108","445173","0.0-13.0-1.16","19","Low_HMMActual","","","","","","null","","","","Images/WhiteBeadChoice.png","","null"
"image-button-response","109","445677","0.0-13.0-2.16","19","Low_HMMActual","","","","","","null","","","","Images/WhiteBeadChoiceWrong.png","","null"
"image-button-response","110","446845","0.0-13.0-0.17","19","Low_HMMActual","","","","","","1165","","","","Images/NewTrialBC.png","","0"
"image-button-response","111","447154","0.0-13.0-1.17","19","Low_HMMActual","","","","","","null","","","","Images/BlackBeadChoice.png","","null"
"image-button-response","112","447673","0.0-13.0-2.17","19","Low_HMMActual","","","","","","null","","","","Images/BlackBeadChoiceCorrect.png","","null"
"image-button-response","113","448561","0.0-13.0-0.18","19","Low_HMMActual","","","","","","879.8999999761581","","","","Images/NewTrialBC.png","","0"
"image-button-response","114","448873","0.0-13.0-1.18","19","Low_HMMActual","","","","","","null","","","","Images/BlackBeadChoice.png","","null"
"image-button-response","115","449393","0.0-13.0-2.18","19","Low_HMMActual","","","","","","null","","","","Images/BlackBeadChoiceCorrect.png","","null"
"image-button-response","116","450239","0.0-13.0-0.19","19","Low_HMMActual","","","","","","842.6999999880791","","","","Images/NewTrialBC.png","","0"
"image-button-response","117","450564","0.0-13.0-1.19","19","Low_HMMActual","","","","","","null","","","","Images/BlackBeadChoice.png","","null"
"image-button-response","118","451083","0.0-13.0-2.19","19","Low_HMMActual","","","","","","null","","","","Images/BlackBeadChoiceCorrect.png","","null"
"image-button-response","119","452365","0.0-13.0-0.20","19","Low_HMMActual","","","","","","1274.699999988079","","","","Images/NewTrialBC.png","","0"
"image-button-response","120","452678","0.0-13.0-1.20","19","Low_HMMActual","","","","","","null","","","","Images/BlackBeadChoice.png","","null"
"image-button-response","121","453184","0.0-13.0-2.20","19","Low_HMMActual","","","","","","null","","","","Images/BlackBeadChoiceCorrect.png","","null"
"image-button-response","122","454072","0.0-13.0-0.21","19","Low_HMMActual","","","","","","880","","","","Images/NewTrialBC.png","","0"
"image-button-response","123","454384","0.0-13.0-1.21","19","Low_HMMActual","","","","","","null","","","","Images/BlackBeadChoice.png","","null"
"image-button-response","124","454903","0.0-13.0-2.21","19","Low_HMMActual","","","","","","null","","","","Images/BlackBeadChoiceWrong.png","","null"
"image-button-response","125","457608","0.0-13.0-0.22","19","Low_HMMActual","","","","","","2696.099999964237","","","","Images/NewTrialWC.png","","2"
"image-button-response","126","457923","0.0-13.0-1.22","19","Low_HMMActual","","","","","","null","","","","Images/WhiteBeadChoice.png","","null"
"image-button-response","127","458428","0.0-13.0-2.22","19","Low_HMMActual","","","","","","null","","","","Images/WhiteBeadChoiceWrong.png","","null"
"image-button-response","128","459434","0.0-13.0-0.23","19","Low_HMMActual","","","","","","993","","","","Images/NewTrialBC.png","","0"
"image-button-response","129","459744","0.0-13.0-1.23","19","Low_HMMActual","","","","","","null","","","","Images/BlackBeadChoice.png","","null"
"image-button-response","130","460256","0.0-13.0-2.23","19","Low_HMMActual","","","","","","null","","","","Images/BlackBeadChoiceWrong.png","","null"
"image-button-response","131","461275","0.0-13.0-0.24","19","Low_HMMActual","","","","","","1013.5","","","","Images/NewTrialWC.png","","2"
"image-button-response","132","461578","0.0-13.0-1.24","19","Low_HMMActual","","","","","","null","","","","Images/WhiteBeadChoice.png","","null"
"image-button-response","133","462083","0.0-13.0-2.24","19","Low_HMMActual","","","","","","null","","","","Images/WhiteBeadChoiceWrong.png","","null"
"image-button-response","134","463156","0.0-13.0-0.25","19","Low_HMMActual","","","","","","1067.9000000357628","","","","Images/NewTrialBC.png","","0"
"image-button-response","135","463472","0.0-13.0-1.25","19","Low_HMMActual","","","","","","null","","","","Images/BlackBeadChoice.png","","null"
"image-button-response","136","463986","0.0-13.0-2.25","19","Low_HMMActual","","","","","","null","","","","Images/BlackBeadChoiceWrong.png","","null"
"image-button-response","137","465061","0.0-13.0-0.26","19","Low_HMMActual","","","","","","1069.0999999642372","","","","Images/NewTrialWC.png","","2"
"image-button-response","138","465365","0.0-13.0-1.26","19","Low_HMMActual","","","","","","null","","","","Images/WhiteBeadChoice.png","","null"
"image-button-response","139","465868","0.0-13.0-2.26","19","Low_HMMActual","","","","","","null","","","","Images/WhiteBeadChoiceWrong.png","","null"
"image-button-response","140","467083","0.0-13.0-0.27","19","Low_HMMActual","","","","","","1209.300000011921","","","","Images/NewTrialBC.png","","0"
"image-button-response","141","467396","0.0-13.0-1.27","19","Low_HMMActual","","","","","","null","","","","Images/BlackBeadChoice.png","","null"
"image-button-response","142","467909","0.0-13.0-2.27","19","Low_HMMActual","","","","","","null","","","","Images/BlackBeadChoiceCorrect.png","","null"
"image-button-response","143","468549","0.0-13.0-0.28","19","Low_HMMActual","","","","","","634.6000000238419","","","","Images/NewTrialBC.png","","0"
"image-button-response","144","468856","0.0-13.0-1.28","19","Low_HMMActual","","","","","","null","","","","Images/BlackBeadChoice.png","","null"
"image-button-response","145","469365","0.0-13.0-2.28","19","Low_HMMActual","","","","","","null","","","","Images/BlackBeadChoiceWrong.png","","null"
"image-button-response","146","470845","0.0-13.0-0.29","19","Low_HMMActual","","","","","","1469.199999988079","","","","Images/NewTrialWC.png","","2"
"image-button-response","147","471153","0.0-13.0-1.29","19","Low_HMMActual","","","","","","null","","","","Images/WhiteBeadChoice.png","","null"
"image-button-response","148","471662","0.0-13.0-2.29","19","Low_HMMActual","","","","","","null","","","","Images/WhiteBeadChoiceWrong.png","","null"
"image-button-response","149","472937","0.0-13.0-0.30","19","Low_HMMActual","","","","","","1269.9000000357628","","","","Images/NewTrialBC.png","","0"
"image-button-response","150","473247","0.0-13.0-1.30","19","Low_HMMActual","","","","","","null","","","","Images/BlackBeadChoice.png","","null"
"image-button-response","151","473757","0.0-13.0-2.30","19","Low_HMMActual","","","","","","null","","","","Images/BlackBeadChoiceWrong.png","","null"
"image-button-response","152","474648","0.0-13.0-0.31","19","Low_HMMActual","","","","","","888.1999999880791","","","","Images/NewTrialWC.png","","2"
"image-button-response","153","474957","0.0-13.0-1.31","19","Low_HMMActual","","","","","","null","","","","Images/WhiteBeadChoice.png","","null"
"image-button-response","154","475468","0.0-13.0-2.31","19","Low_HMMActual","","","","","","null","","","","Images/WhiteBeadChoiceCorrect.png","","null"
"image-button-response","155","476262","0.0-13.0-0.32","19","Low_HMMActual","","","","","","788.1999999880791","","","","Images/NewTrialWC.png","","2"
"image-button-response","156","476571","0.0-13.0-1.32","19","Low_HMMActual","","","","","","null","","","","Images/WhiteBeadChoice.png","","null"
"image-button-response","157","477082","0.0-13.0-2.32","19","Low_HMMActual","","","","","","null","","","","Images/WhiteBeadChoiceCorrect.png","","null"
"image-button-response","158","477790","0.0-13.0-0.33","19","Low_HMMActual","","","","","","702","","","","Images/NewTrialWC.png","","2"
"image-button-response","159","478106","0.0-13.0-1.33","19","Low_HMMActual","","","","","","null","","","","Images/WhiteBeadChoice.png","","null"
"image-button-response","160","478619","0.0-13.0-2.33","19","Low_HMMActual","","","","","","null","","","","Images/WhiteBeadChoiceCorrect.png","","null"
"image-button-response","161","480580","0.0-13.0-0.34","19","Low_HMMActual","","","","","","1955.4000000357628","","","","Images/NewTrialWC.png","","3"
"image-button-response","162","480885","0.0-13.0-1.34","19","Low_HMMActual","","","","","","null","","","","Images/WhiteBeadChoice.png","","null"
"image-button-response","163","481389","0.0-13.0-2.34","19","Low_HMMActual","","","","","","null","","","","Images/WhiteBeadChoiceWrong.png","","null"
"image-button-response","164","482993","0.0-13.0-0.35","19","Low_HMMActual","","","","","","1602.2000000476837","","","","Images/NewTrialBC.png","","0"
"image-button-response","165","483311","0.0-13.0-1.35","19","Low_HMMActual","","","","","","null","","","","Images/BlackBeadChoice.png","","null"
"image-button-response","166","483817","0.0-13.0-2.35","19","Low_HMMActual","","","","","","null","","","","Images/BlackBeadChoiceWrong.png","","null"
"image-button-response","167","485064","0.0-13.0-0.36","19","Low_HMMActual","","","","","","1234.800000011921","","","","Images/NewTrialWC.png","","2"
"image-button-response","168","485375","0.0-13.0-1.36","19","Low_HMMActual","","","","","","null","","","","Images/WhiteBeadChoice.png","","null"
"image-button-response","169","485880","0.0-13.0-2.36","19","Low_HMMActual","","","","","","null","","","","Images/WhiteBeadChoiceWrong.png","","null"
"image-button-response","170","486952","0.0-13.0-0.37","19","Low_HMMActual","","","","","","1069.3999999761581","","","","Images/NewTrialBC.png","","0"
"image-button-response","171","487270","0.0-13.0-1.37","19","Low_HMMActual","","","","","","null","","","","Images/BlackBeadChoice.png","","null"
"image-button-response","172","487784","0.0-13.0-2.37","19","Low_HMMActual","","","","","","null","","","","Images/BlackBeadChoiceCorrect.png","","null"
"image-button-response","173","488378","0.0-13.0-0.38","19","Low_HMMActual","","","","","","588.1000000238419","","","","Images/NewTrialBC.png","","0"
"image-button-response","174","488698","0.0-13.0-1.38","19","Low_HMMActual","","","","","","null","","","","Images/BlackBeadChoice.png","","null"
"image-button-response","175","489211","0.0-13.0-2.38","19","Low_HMMActual","","","","","","null","","","","Images/BlackBeadChoiceCorrect.png","","null"
"image-button-response","176","489869","0.0-13.0-0.39","19","Low_HMMActual","","","","","","652.8999999761581","","","","Images/NewTrialBC.png","","0"
"image-button-response","177","490176","0.0-13.0-1.39","19","Low_HMMActual","","","","","","null","","","","Images/BlackBeadChoice.png","","null"
"image-button-response","178","490686","0.0-13.0-2.39","19","Low_HMMActual","","","","","","null","","","","Images/BlackBeadChoiceWrong.png","","null"
"image-button-response","179","491882","0.0-13.0-0.40","19","Low_HMMActual","","","","","","1192.4000000357628","","","","Images/NewTrialWC.png","","2"
"image-button-response","180","492187","0.0-13.0-1.40","19","Low_HMMActual","","","","","","null","","","","Images/WhiteBeadChoice.png","","null"
"image-button-response","181","492701","0.0-13.0-2.40","19","Low_HMMActual","","","","","","null","","","","Images/WhiteBeadChoiceCorrect.png","","null"
"image-button-response","182","493340","0.0-13.0-0.41","19","Low_HMMActual","","","","","","629.5","","","","Images/NewTrialWC.png","","2"
"image-button-response","183","493659","0.0-13.0-1.41","19","Low_HMMActual","","","","","","null","","","","Images/WhiteBeadChoice.png","","null"
"image-button-response","184","494172","0.0-13.0-2.41","19","Low_HMMActual","","","","","","null","","","","Images/WhiteBeadChoiceCorrect.png","","null"
"image-button-response","185","494940","0.0-13.0-0.42","19","Low_HMMActual","","","","","","764.1000000238419","","","","Images/NewTrialWC.png","","2"
"image-button-response","186","495258","0.0-13.0-1.42","19","Low_HMMActual","","","","","","null","","","","Images/WhiteBeadChoice.png","","null"
"image-button-response","187","495771","0.0-13.0-2.42","19","Low_HMMActual","","","","","","null","","","","Images/WhiteBeadChoiceWrong.png","","null"
"image-button-response","188","497024","0.0-13.0-0.43","19","Low_HMMActual","","","","","","1247.4000000357628","","","","Images/NewTrialBC.png","","0"
"image-button-response","189","497343","0.0-13.0-1.43","19","Low_HMMActual","","","","","","null","","","","Images/BlackBeadChoice.png","","null"
"image-button-response","190","497856","0.0-13.0-2.43","19","Low_HMMActual","","","","","","null","","","","Images/BlackBeadChoiceWrong.png","","null"
"image-button-response","191","498960","0.0-13.0-0.44","19","Low_HMMActual","","","","","","1095.800000011921","","","","Images/NewTrialWC.png","","2"
"image-button-response","192","499274","0.0-13.0-1.44","19","Low_HMMActual","","","","","","null","","","","Images/WhiteBeadChoice.png","","null"
"image-button-response","193","499780","0.0-13.0-2.44","19","Low_HMMActual","","","","","","null","","","","Images/WhiteBeadChoiceWrong.png","","null"
"image-button-response","194","500920","0.0-13.0-0.45","19","Low_HMMActual","","","","","","1137.3999999761581","","","","Images/NewTrialBC.png","","0"
"image-button-response","195","501244","0.0-13.0-1.45","19","Low_HMMActual","","","","","","null","","","","Images/BlackBeadChoice.png","","null"
"image-button-response","196","501764","0.0-13.0-2.45","19","Low_HMMActual","","","","","","null","","","","Images/BlackBeadChoiceCorrect.png","","null"
"image-button-response","197","502378","0.0-13.0-0.46","19","Low_HMMActual","","","","","","607.9000000357628","","","","Images/NewTrialBC.png","","0"
"image-button-response","198","502684","0.0-13.0-1.46","19","Low_HMMActual","","","","","","null","","","","Images/BlackBeadChoice.png","","null"
"image-button-response","199","503194","0.0-13.0-2.46","19","Low_HMMActual","","","","","","null","","","","Images/BlackBeadChoiceWrong.png","","null"
"image-button-response","200","504519","0.0-13.0-0.47","19","Low_HMMActual","","","","","","1311.0999999642372","","","","Images/NewTrialWC.png","","2"
"image-button-response","201","504825","0.0-13.0-1.47","19","Low_HMMActual","","","","","","null","","","","Images/WhiteBeadChoice.png","","null"
"image-button-response","202","505343","0.0-13.0-2.47","19","Low_HMMActual","","","","","","null","","","","Images/WhiteBeadChoiceCorrect.png","","null"
"image-button-response","203","505991","0.0-13.0-0.48","19","Low_HMMActual","","","","","","644.6000000238419","","","","Images/NewTrialWC.png","","2"
"image-button-response","204","506314","0.0-13.0-1.48","19","Low_HMMActual","","","","","","null","","","","Images/WhiteBeadChoice.png","","null"
"image-button-response","205","506834","0.0-13.0-2.48","19","Low_HMMActual","","","","","","null","","","","Images/WhiteBeadChoiceCorrect.png","","null"
"image-button-response","206","508100","0.0-13.0-0.49","19","Low_HMMActual","","","","","","1256.6000000238419","","","","Images/NewTrialWC.png","","2"
"image-button-response","207","508404","0.0-13.0-1.49","19","Low_HMMActual","","","","","","null","","","","Images/WhiteBeadChoice.png","","null"
"image-button-response","208","508924","0.0-13.0-2.49","19","Low_HMMActual","","","","","","null","","","","Images/WhiteBeadChoiceCorrect.png","","null"
"image-button-response","209","518006","0.0-13.0-0.50","19","Low_HMMActual","","","","","","9077.699999988079","","","","Images/NewTrialWC.png","","0"
"image-button-response","210","518314","0.0-13.0-1.50","19","Low_HMMActual","","","","","","null","","","","Images/BlackBeadChoice.png","","null"
"image-button-response","211","518820","0.0-13.0-2.50","19","Low_HMMActual","","","","","","null","","","","Images/BlackBeadChoiceCorrect.png","","null"
"image-button-response","212","519644","0.0-13.0-0.51","19","Low_HMMActual","","","","","","819.8999999761581","","","","Images/NewTrialBC.png","","0"
"image-button-response","213","519960","0.0-13.0-1.51","19","Low_HMMActual","","","","","","null","","","","Images/BlackBeadChoice.png","","null"
"image-button-response","214","520471","0.0-13.0-2.51","19","Low_HMMActual","","","","","","null","","","","Images/BlackBeadChoiceCorrect.png","","null"
"image-button-response","215","521086","0.0-13.0-0.52","19","Low_HMMActual","","","","","","610.6999999880791","","","","Images/NewTrialBC.png","","0"
"image-button-response","216","521402","0.0-13.0-1.52","19","Low_HMMActual","","","","","","null","","","","Images/BlackBeadChoice.png","","null"
"image-button-response","217","521912","0.0-13.0-2.52","19","Low_HMMActual","","","","","","null","","","","Images/BlackBeadChoiceCorrect.png","","null"
"image-button-response","218","522912","0.0-13.0-0.53","19","Low_HMMActual","","","","","","994.6000000238419","","","","Images/NewTrialBC.png","","0"
"image-button-response","219","523230","0.0-13.0-1.53","19","Low_HMMActual","","","","","","null","","","","Images/BlackBeadChoice.png","","null"
"image-button-response","220","523736","0.0-13.0-2.53","19","Low_HMMActual","","","","","","null","","","","Images/BlackBeadChoiceWrong.png","","null"
"image-button-response","221","525373","0.0-13.0-0.54","19","Low_HMMActual","","","","","","1627.199999988079","","","","Images/NewTrialWC.png","","2"
"image-button-response","222","525685","0.0-13.0-1.54","19","Low_HMMActual","","","","","","null","","","","Images/WhiteBeadChoice.png","","null"
"image-button-response","223","526187","0.0-13.0-2.54","19","Low_HMMActual","","","","","","null","","","","Images/WhiteBeadChoiceWrong.png","","null"
"image-button-response","224","527020","0.0-13.0-0.55","19","Low_HMMActual","","","","","","829.6999999880791","","","","Images/NewTrialBC.png","","0"
"image-button-response","225","527323","0.0-13.0-1.55","19","Low_HMMActual","","","","","","null","","","","Images/BlackBeadChoice.png","","null"
"image-button-response","226","527836","0.0-13.0-2.55","19","Low_HMMActual","","","","","","null","","","","Images/BlackBeadChoiceCorrect.png","","null"
"image-button-response","227","528494","0.0-13.0-0.56","19","Low_HMMActual","","","","","","650.1999999880791","","","","Images/NewTrialBC.png","","0"
"image-button-response","228","528804","0.0-13.0-1.56","19","Low_HMMActual","","","","","","null","","","","Images/BlackBeadChoice.png","","null"
"image-button-response","229","529317","0.0-13.0-2.56","19","Low_HMMActual","","","","","","null","","","","Images/BlackBeadChoiceCorrect.png","","null"
"image-button-response","230","530290","0.0-13.0-0.57","19","Low_HMMActual","","","","","","967.5","","","","Images/NewTrialBC.png","","0"
"image-button-response","231","530606","0.0-13.0-1.57","19","Low_HMMActual","","","","","","null","","","","Images/BlackBeadChoice.png","","null"
"image-button-response","232","531112","0.0-13.0-2.57","19","Low_HMMActual","","","","","","null","","","","Images/BlackBeadChoiceCorrect.png","","null"
"image-button-response","233","532444","0.0-13.0-0.58","19","Low_HMMActual","","","","","","1323.5","","","","Images/NewTrialBC.png","","3"
"image-button-response","234","532752","0.0-13.0-1.58","19","Low_HMMActual","","","","","","null","","","","Images/WhiteBeadChoice.png","","null"
"image-button-response","235","533268","0.0-13.0-2.58","19","Low_HMMActual","","","","","","null","","","","Images/WhiteBeadChoiceWrong.png","","null"
"image-button-response","236","534520","0.0-13.0-0.59","19","Low_HMMActual","","","","","","1246.5","","","","Images/NewTrialBC.png","","3"
"image-button-response","237","534833","0.0-13.0-1.59","19","Low_HMMActual","","","","","","null","","","","Images/WhiteBeadChoice.png","","null"
"image-button-response","238","535347","0.0-13.0-2.59","19","Low_HMMActual","","","","","","null","","","","Images/WhiteBeadChoiceCorrect.png","","null"
"image-button-response","239","536732","0.0-13.0-0.60","19","Low_HMMActual","","","","","","1380.1000000238419","","","","Images/NewTrialWC.png","","2"
"image-button-response","240","537044","0.0-13.0-1.60","19","Low_HMMActual","","","","","","null","","","","Images/WhiteBeadChoice.png","","null"
"image-button-response","241","537554","0.0-13.0-2.60","19","Low_HMMActual","","","","","","null","","","","Images/WhiteBeadChoiceCorrect.png","","null"
"image-button-response","242","538322","0.0-13.0-0.61","19","Low_HMMActual","","","","","","762","","","","Images/NewTrialWC.png","","2"
"image-button-response","243","538634","0.0-13.0-1.61","19","Low_HMMActual","","","","","","null","","","","Images/WhiteBeadChoice.png","","null"
"image-button-response","244","539144","0.0-13.0-2.61","19","Low_HMMActual","","","","","","null","","","","Images/WhiteBeadChoiceCorrect.png","","null"
"image-button-response","245","541208","0.0-13.0-0.62","19","Low_HMMActual","","","","","","2059","","","","Images/NewTrialWC.png","","3"
"image-button-response","246","541513","0.0-13.0-1.62","19","Low_HMMActual","","","","","","null","","","","Images/WhiteBeadChoice.png","","null"
"image-button-response","247","542028","0.0-13.0-2.62","19","Low_HMMActual","","","","","","null","","","","Images/WhiteBeadChoiceWrong.png","","null"
"image-button-response","248","543504","0.0-13.0-0.63","19","Low_HMMActual","","","","","","1474.199999988079","","","","Images/NewTrialBC.png","","0"
"image-button-response","249","543814","0.0-13.0-1.63","19","Low_HMMActual","","","","","","null","","","","Images/BlackBeadChoice.png","","null"
"image-button-response","250","544334","0.0-13.0-2.63","19","Low_HMMActual","","","","","","null","","","","Images/BlackBeadChoiceCorrect.png","","null"
"image-button-response","251","544940","0.0-13.0-0.64","19","Low_HMMActual","","","","","","597.9000000357628","","","","Images/NewTrialBC.png","","0"
"image-button-response","252","545254","0.0-13.0-1.64","19","Low_HMMActual","","","","","","null","","","","Images/BlackBeadChoice.png","","null"
"image-button-response","253","545774","0.0-13.0-2.64","19","Low_HMMActual","","","","","","null","","","","Images/BlackBeadChoiceWrong.png","","null"
"image-button-response","254","546804","0.0-13.0-0.65","19","Low_HMMActual","","","","","","1021.3999999761581","","","","Images/NewTrialWC.png","","2"
"image-button-response","255","547114","0.0-13.0-1.65","19","Low_HMMActual","","","","","","null","","","","Images/WhiteBeadChoice.png","","null"
"image-button-response","256","547623","0.0-13.0-2.65","19","Low_HMMActual","","","","","","null","","","","Images/WhiteBeadChoiceWrong.png","","null"
"image-button-response","257","549014","0.0-13.0-0.66","19","Low_HMMActual","","","","","","1381.300000011921","","","","Images/NewTrialBC.png","","0"
"image-button-response","258","549334","0.0-13.0-1.66","19","Low_HMMActual","","","","","","null","","","","Images/BlackBeadChoice.png","","null"
"image-button-response","259","549844","0.0-13.0-2.66","19","Low_HMMActual","","","","","","null","","","","Images/BlackBeadChoiceCorrect.png","","null"
"image-button-response","260","550331","0.0-13.0-0.67","19","Low_HMMActual","","","","","","481.7000000476837","","","","Images/NewTrialBC.png","","0"
"image-button-response","261","550654","0.0-13.0-1.67","19","Low_HMMActual","","","","","","null","","","","Images/BlackBeadChoice.png","","null"
"image-button-response","262","551174","0.0-13.0-2.67","19","Low_HMMActual","","","","","","null","","","","Images/BlackBeadChoiceCorrect.png","","null"
"image-button-response","263","551655","0.0-13.0-0.68","19","Low_HMMActual","","","","","","471.30000001192093","","","","Images/NewTrialBC.png","","0"
"image-button-response","264","551959","0.0-13.0-1.68","19","Low_HMMActual","","","","","","null","","","","Images/BlackBeadChoice.png","","null"
"image-button-response","265","552463","0.0-13.0-2.68","19","Low_HMMActual","","","","","","null","","","","Images/BlackBeadChoiceWrong.png","","null"
"image-button-response","266","553568","0.0-13.0-0.69","19","Low_HMMActual","","","","","","1098.4000000357628","","","","Images/NewTrialWC.png","","2"
"image-button-response","267","553874","0.0-13.0-1.69","19","Low_HMMActual","","","","","","null","","","","Images/WhiteBeadChoice.png","","null"
"image-button-response","268","554393","0.0-13.0-2.69","19","Low_HMMActual","","","","","","null","","","","Images/WhiteBeadChoiceWrong.png","","null"
"image-button-response","269","555463","0.0-13.0-0.70","19","Low_HMMActual","","","","","","1065","","","","Images/NewTrialBC.png","","0"
"image-button-response","270","555783","0.0-13.0-1.70","19","Low_HMMActual","","","","","","null","","","","Images/BlackBeadChoice.png","","null"
"image-button-response","271","556304","0.0-13.0-2.70","19","Low_HMMActual","","","","","","null","","","","Images/BlackBeadChoiceWrong.png","","null"
"image-button-response","272","557456","0.0-13.0-0.71","19","Low_HMMActual","","","","","","1147.3999999761581","","","","Images/NewTrialWC.png","","2"
"image-button-response","273","557774","0.0-13.0-1.71","19","Low_HMMActual","","","","","","null","","","","Images/WhiteBeadChoice.png","","null"
"image-button-response","274","558278","0.0-13.0-2.71","19","Low_HMMActual","","","","","","null","","","","Images/WhiteBeadChoiceWrong.png","","null"
"image-button-response","275","559179","0.0-13.0-0.72","19","Low_HMMActual","","","","","","893.6000000238419","","","","Images/NewTrialBC.png","","0"
"image-button-response","276","559484","0.0-13.0-1.72","19","Low_HMMActual","","","","","","null","","","","Images/BlackBeadChoice.png","","null"
"image-button-response","277","559993","0.0-13.0-2.72","19","Low_HMMActual","","","","","","null","","","","Images/BlackBeadChoiceCorrect.png","","null"
"image-button-response","278","560512","0.0-13.0-0.73","19","Low_HMMActual","","","","","","513.5","","","","Images/NewTrialBC.png","","0"
"image-button-response","279","560833","0.0-13.0-1.73","19","Low_HMMActual","","","","","","null","","","","Images/BlackBeadChoice.png","","null"
"image-button-response","280","561341","0.0-13.0-2.73","19","Low_HMMActual","","","","","","null","","","","Images/BlackBeadChoiceCorrect.png","","null"
"image-button-response","281","561875","0.0-13.0-0.74","19","Low_HMMActual","","","","","","529.0999999642372","","","","Images/NewTrialBC.png","","0"
"image-button-response","282","562183","0.0-13.0-1.74","19","Low_HMMActual","","","","","","null","","","","Images/BlackBeadChoice.png","","null"
"image-button-response","283","562690","0.0-13.0-2.74","19","Low_HMMActual","","","","","","null","","","","Images/BlackBeadChoiceCorrect.png","","null"
"image-button-response","284","563771","0.0-13.0-0.75","19","Low_HMMActual","","","","","","1073.9000000357628","","","","Images/NewTrialBC.png","","3"
"image-button-response","285","564083","0.0-13.0-1.75","19","Low_HMMActual","","","","","","null","","","","Images/WhiteBeadChoice.png","","null"
"image-button-response","286","564590","0.0-13.0-2.75","19","Low_HMMActual","","","","","","null","","","","Images/WhiteBeadChoiceWrong.png","","null"
"image-button-response","287","565762","0.0-13.0-0.76","19","Low_HMMActual","","","","","","1162.9000000357628","","","","Images/NewTrialBC.png","","3"
"image-button-response","288","566074","0.0-13.0-1.76","19","Low_HMMActual","","","","","","null","","","","Images/WhiteBeadChoice.png","","null"
"image-button-response","289","566581","0.0-13.0-2.76","19","Low_HMMActual","","","","","","null","","","","Images/WhiteBeadChoiceWrong.png","","null"
"image-button-response","290","568372","0.0-13.0-0.77","19","Low_HMMActual","","","","","","1788","","","","Images/NewTrialBC.png","","1"
"image-button-response","291","568677","0.0-13.0-1.77","19","Low_HMMActual","","","","","","null","","","","Images/BlackBeadChoice.png","","null"
"image-button-response","292","569180","0.0-13.0-2.77","19","Low_HMMActual","","","","","","null","","","","Images/BlackBeadChoiceWrong.png","","null"
"image-button-response","293","570058","0.0-13.0-0.78","19","Low_HMMActual","","","","","","869.6999999880791","","","","Images/NewTrialWC.png","","2"
"image-button-response","294","570373","0.0-13.0-1.78","19","Low_HMMActual","","","","","","null","","","","Images/WhiteBeadChoice.png","","null"
"image-button-response","295","570883","0.0-13.0-2.78","19","Low_HMMActual","","","","","","null","","","","Images/WhiteBeadChoiceWrong.png","","null"
"image-button-response","296","572565","0.0-13.0-0.79","19","Low_HMMActual","","","","","","1670.7999999523163","","","","Images/NewTrialBC.png","","1"
"image-button-response","297","572874","0.0-13.0-1.79","19","Low_HMMActual","","","","","","null","","","","Images/BlackBeadChoice.png","","null"
"image-button-response","298","573393","0.0-13.0-2.79","19","Low_HMMActual","","","","","","null","","","","Images/BlackBeadChoiceCorrect.png","","null"
"image-button-response","299","574518","0.0-13.0-0.80","19","Low_HMMActual","","","","","","1119.800000011921","","","","Images/NewTrialBC.png","","0"
"image-button-response","300","574824","0.0-13.0-1.80","19","Low_HMMActual","","","","","","null","","","","Images/BlackBeadChoice.png","","null"
"image-button-response","301","575327","0.0-13.0-2.80","19","Low_HMMActual","","","","","","null","","","","Images/BlackBeadChoiceWrong.png","","null"
"image-button-response","302","578052","0.0-13.0-0.81","19","Low_HMMActual","","","","","","2721.300000011921","","","","Images/NewTrialWC.png","","3"
"image-button-response","303","578373","0.0-13.0-1.81","19","Low_HMMActual","","","","","","null","","","","Images/WhiteBeadChoice.png","","null"
"image-button-response","304","578883","0.0-13.0-2.81","19","Low_HMMActual","","","","","","null","","","","Images/WhiteBeadChoiceCorrect.png","","null"
"image-button-response","305","579861","0.0-13.0-0.82","19","Low_HMMActual","","","","","","975","","","","Images/NewTrialWC.png","","2"
"image-button-response","306","580175","0.0-13.0-1.82","19","Low_HMMActual","","","","","","null","","","","Images/WhiteBeadChoice.png","","null"
"image-button-response","307","580680","0.0-13.0-2.82","19","Low_HMMActual","","","","","","null","","","","Images/WhiteBeadChoiceWrong.png","","null"
"image-button-response","308","582198","0.0-13.0-0.83","19","Low_HMMActual","","","","","","1512.300000011921","","","","Images/NewTrialBC.png","","0"
"image-button-response","309","582503","0.0-13.0-1.83","19","Low_HMMActual","","","","","","null","","","","Images/BlackBeadChoice.png","","null"
"image-button-response","310","583015","0.0-13.0-2.83","19","Low_HMMActual","","","","","","null","","","","Images/BlackBeadChoiceCorrect.png","","null"
"image-button-response","311","583567","0.0-13.0-0.84","19","Low_HMMActual","","","","","","545.5","","","","Images/NewTrialBC.png","","0"
"image-button-response","312","583882","0.0-13.0-1.84","19","Low_HMMActual","","","","","","null","","","","Images/BlackBeadChoice.png","","null"
"image-button-response","313","584392","0.0-13.0-2.84","19","Low_HMMActual","","","","","","null","","","","Images/BlackBeadChoiceCorrect.png","","null"
"image-button-response","314","584939","0.0-13.0-0.85","19","Low_HMMActual","","","","","","538.5","","","","Images/NewTrialBC.png","","0"
"image-button-response","315","585251","0.0-13.0-1.85","19","Low_HMMActual","","","","","","null","","","","Images/BlackBeadChoice.png","","null"
"image-button-response","316","585767","0.0-13.0-2.85","19","Low_HMMActual","","","","","","null","","","","Images/BlackBeadChoiceCorrect.png","","null"
"image-button-response","317","586735","0.0-13.0-0.86","19","Low_HMMActual","","","","","","963","","","","Images/NewTrialBC.png","","1"
"image-button-response","318","587041","0.0-13.0-1.86","19","Low_HMMActual","","","","","","null","","","","Images/BlackBeadChoice.png","","null"
"image-button-response","319","587544","0.0-13.0-2.86","19","Low_HMMActual","","","","","","null","","","","Images/BlackBeadChoiceWrong.png","","null"
"image-button-response","320","589626","0.0-13.0-0.87","19","Low_HMMActual","","","","","","2080.5","","","","Images/NewTrialWC.png","","1"
"image-button-response","321","589936","0.0-13.0-1.87","19","Low_HMMActual","","","","","","null","","","","Images/BlackBeadChoice.png","","null"
"image-button-response","322","590448","0.0-13.0-2.87","19","Low_HMMActual","","","","","","null","","","","Images/BlackBeadChoiceWrong.png","","null"
"image-button-response","323","591170","0.0-13.0-0.88","19","Low_HMMActual","","","","","","714","","","","Images/NewTrialWC.png","","2"
"image-button-response","324","591481","0.0-13.0-1.88","19","Low_HMMActual","","","","","","null","","","","Images/WhiteBeadChoice.png","","null"
"image-button-response","325","591990","0.0-13.0-2.88","19","Low_HMMActual","","","","","","null","","","","Images/WhiteBeadChoiceCorrect.png","","null"
"image-button-response","326","592737","0.0-13.0-0.89","19","Low_HMMActual","","","","","","741.2999999523163","","","","Images/NewTrialWC.png","","2"
"image-button-response","327","593043","0.0-13.0-1.89","19","Low_HMMActual","","","","","","null","","","","Images/WhiteBeadChoice.png","","null"
"image-button-response","328","593546","0.0-13.0-2.89","19","Low_HMMActual","","","","","","null","","","","Images/WhiteBeadChoiceWrong.png","","null"
"image-button-response","329","595128","0.0-13.0-0.90","19","Low_HMMActual","","","","","","1576.6000000238419","","","","Images/NewTrialBC.png","","1"
"image-button-response","330","595433","0.0-13.0-1.90","19","Low_HMMActual","","","","","","null","","","","Images/BlackBeadChoice.png","","null"
"image-button-response","331","595935","0.0-13.0-2.90","19","Low_HMMActual","","","","","","null","","","","Images/BlackBeadChoiceCorrect.png","","null"
"image-button-response","332","597095","0.0-13.0-0.91","19","Low_HMMActual","","","","","","1154.300000011921","","","","Images/NewTrialBC.png","","0"
"image-button-response","333","597401","0.0-13.0-1.91","19","Low_HMMActual","","","","","","null","","","","Images/BlackBeadChoice.png","","null"
"image-button-response","334","597913","0.0-13.0-2.91","19","Low_HMMActual","","","","","","null","","","","Images/BlackBeadChoiceCorrect.png","","null"
"image-button-response","335","598881","0.0-13.0-0.92","19","Low_HMMActual","","","","","","958.6000000238419","","","","Images/NewTrialBC.png","","0"
"image-button-response","336","599198","0.0-13.0-1.92","19","Low_HMMActual","","","","","","null","","","","Images/BlackBeadChoice.png","","null"
"image-button-response","337","599702","0.0-13.0-2.92","19","Low_HMMActual","","","","","","null","","","","Images/BlackBeadChoiceWrong.png","","null"
"image-button-response","338","602103","0.0-13.0-0.93","19","Low_HMMActual","","","","","","2392","","","","Images/NewTrialWC.png","","2"
"image-button-response","339","602423","0.0-13.0-1.93","19","Low_HMMActual","","","","","","null","","","","Images/WhiteBeadChoice.png","","null"
"image-button-response","340","602933","0.0-13.0-2.93","19","Low_HMMActual","","","","","","null","","","","Images/WhiteBeadChoiceCorrect.png","","null"
"image-button-response","341","603882","0.0-13.0-0.94","19","Low_HMMActual","","","","","","946.1999999880791","","","","Images/NewTrialWC.png","","2"
"image-button-response","342","604194","0.0-13.0-1.94","19","Low_HMMActual","","","","","","null","","","","Images/WhiteBeadChoice.png","","null"
"image-button-response","343","604698","0.0-13.0-2.94","19","Low_HMMActual","","","","","","null","","","","Images/WhiteBeadChoiceWrong.png","","null"
"image-button-response","344","606161","0.0-13.0-0.95","19","Low_HMMActual","","","","","","1462.300000011921","","","","Images/NewTrialBC.png","","1"
"image-button-response","345","606476","0.0-13.0-1.95","19","Low_HMMActual","","","","","","null","","","","Images/BlackBeadChoice.png","","null"
"image-button-response","346","606983","0.0-13.0-2.95","19","Low_HMMActual","","","","","","null","","","","Images/BlackBeadChoiceCorrect.png","","null"
"image-button-response","347","607847","0.0-13.0-0.96","19","Low_HMMActual","","","","","","857.7000000476837","","","","Images/NewTrialBC.png","","0"
"image-button-response","348","608165","0.0-13.0-1.96","19","Low_HMMActual","","","","","","null","","","","Images/BlackBeadChoice.png","","null"
"image-button-response","349","608684","0.0-13.0-2.96","19","Low_HMMActual","","","","","","null","","","","Images/BlackBeadChoiceCorrect.png","","null"
"image-button-response","350","609588","0.0-13.0-0.97","19","Low_HMMActual","","","","","","898.1000000238419","","","","Images/NewTrialBC.png","","0"
"image-button-response","351","609894","0.0-13.0-1.97","19","Low_HMMActual","","","","","","null","","","","Images/BlackBeadChoice.png","","null"
"image-button-response","352","610414","0.0-13.0-2.97","19","Low_HMMActual","","","","","","null","","","","Images/BlackBeadChoiceCorrect.png","","null"
"image-button-response","353","611828","0.0-13.0-0.98","19","Low_HMMActual","","","","","","1408.699999988079","","","","Images/NewTrialBC.png","","0"
"image-button-response","354","612133","0.0-13.0-1.98","19","Low_HMMActual","","","","","","null","","","","Images/BlackBeadChoice.png","","null"
"image-button-response","355","612636","0.0-13.0-2.98","19","Low_HMMActual","","","","","","null","","","","Images/BlackBeadChoiceWrong.png","","null"
"image-button-response","356","614016","0.0-13.0-0.99","19","Low_HMMActual","","","","","","1372","","","","Images/NewTrialWC.png","","2"
"image-button-response","357","614325","0.0-13.0-1.99","19","Low_HMMActual","","","","","","null","","","","Images/WhiteBeadChoice.png","","null"
"image-button-response","358","614830","0.0-13.0-2.99","19","Low_HMMActual","","","","","","null","","","","Images/WhiteBeadChoiceWrong.png","","null"
"image-button-response","359","616836","0.0-13.0-0.100","19","Low_HMMActual","","","","","","1999.300000011921","","","","Images/NewTrialBC.png","","1"
"image-button-response","360","617149","0.0-13.0-1.100","19","Low_HMMActual","","","","","","null","","","","Images/BlackBeadChoice.png","","null"
"image-button-response","361","617654","0.0-13.0-2.100","19","Low_HMMActual","","","","","","null","","","","Images/BlackBeadChoiceWrong.png","","null"
"image-button-response","362","619508","0.0-13.0-0.101","19","Low_HMMActual","","","","","","1848.300000011921","","","","Images/NewTrialWC.png","","3"
"image-button-response","363","619814","0.0-13.0-1.101","19","Low_HMMActual","","","","","","null","","","","Images/WhiteBeadChoice.png","","null"
"image-button-response","364","620316","0.0-13.0-2.101","19","Low_HMMActual","","","","","","null","","","","Images/WhiteBeadChoiceCorrect.png","","null"
"image-button-response","365","620998","0.0-13.0-0.102","19","Low_HMMActual","","","","","","674.5999999642372","","","","Images/NewTrialWC.png","","2"
"image-button-response","366","621304","0.0-13.0-1.102","19","Low_HMMActual","","","","","","null","","","","Images/WhiteBeadChoice.png","","null"
"image-button-response","367","621814","0.0-13.0-2.102","19","Low_HMMActual","","","","","","null","","","","Images/WhiteBeadChoiceCorrect.png","","null"
"image-button-response","368","622541","0.0-13.0-0.103","19","Low_HMMActual","","","","","","725.1999999880791","","","","Images/NewTrialWC.png","","2"
"image-button-response","369","622844","0.0-13.0-1.103","19","Low_HMMActual","","","","","","null","","","","Images/WhiteBeadChoice.png","","null"
"image-button-response","370","623348","0.0-13.0-2.103","19","Low_HMMActual","","","","","","null","","","","Images/WhiteBeadChoiceWrong.png","","null"
"image-button-response","371","624767","0.0-13.0-0.104","19","Low_HMMActual","","","","","","1414.800000011921","","","","Images/NewTrialBC.png","","1"
"image-button-response","372","625085","0.0-13.0-1.104","19","Low_HMMActual","","","","","","null","","","","Images/BlackBeadChoice.png","","null"
"image-button-response","373","625599","0.0-13.0-2.104","19","Low_HMMActual","","","","","","null","","","","Images/BlackBeadChoiceWrong.png","","null"
"image-button-response","374","627918","0.0-13.0-0.105","19","Low_HMMActual","","","","","","2314.100000023842","","","","Images/NewTrialWC.png","","2"
"image-button-response","375","628235","0.0-13.0-1.105","19","Low_HMMActual","","","","","","null","","","","Images/WhiteBeadChoice.png","","null"
"image-button-response","376","628754","0.0-13.0-2.105","19","Low_HMMActual","","","","","","null","","","","Images/WhiteBeadChoiceCorrect.png","","null"
"image-button-response","377","629288","0.0-13.0-0.106","19","Low_HMMActual","","","","","","528.5999999642372","","","","Images/NewTrialWC.png","","2"
"image-button-response","378","629604","0.0-13.0-1.106","19","Low_HMMActual","","","","","","null","","","","Images/WhiteBeadChoice.png","","null"
"image-button-response","379","630114","0.0-13.0-2.106","19","Low_HMMActual","","","","","","null","","","","Images/WhiteBeadChoiceCorrect.png","","null"
"image-button-response","380","630692","0.0-13.0-0.107","19","Low_HMMActual","","","","","","569.5","","","","Images/NewTrialWC.png","","2"
"image-button-response","381","631005","0.0-13.0-1.107","19","Low_HMMActual","","","","","","null","","","","Images/WhiteBeadChoice.png","","null"
"image-button-response","382","631510","0.0-13.0-2.107","19","Low_HMMActual","","","","","","null","","","","Images/WhiteBeadChoiceCorrect.png","","null"
"image-button-response","383","634750","0.0-13.0-0.108","19","Low_HMMActual","","","","","","3230.599999964237","","","","Images/NewTrialWC.png","","3"
"image-button-response","384","635064","0.0-13.0-1.108","19","Low_HMMActual","","","","","","null","","","","Images/WhiteBeadChoice.png","","null"
"image-button-response","385","635581","0.0-13.0-2.108","19","Low_HMMActual","","","","","","null","","","","Images/WhiteBeadChoiceCorrect.png","","null"
"image-button-response","386","636820","0.0-13.0-0.109","19","Low_HMMActual","","","","","","1235.6000000238419","","","","Images/NewTrialWC.png","","3"
"image-button-response","387","637122","0.0-13.0-1.109","19","Low_HMMActual","","","","","","null","","","","Images/WhiteBeadChoice.png","","null"
"image-button-response","388","637633","0.0-13.0-2.109","19","Low_HMMActual","","","","","","null","","","","Images/WhiteBeadChoiceCorrect.png","","null"
"image-button-response","389","639045","0.0-13.0-0.110","19","Low_HMMActual","","","","","","1405.3999999761581","","","","Images/NewTrialWC.png","","1"
"image-button-response","390","639357","0.0-13.0-1.110","19","Low_HMMActual","","","","","","null","","","","Images/BlackBeadChoice.png","","null"
"image-button-response","391","639861","0.0-13.0-2.110","19","Low_HMMActual","","","","","","null","","","","Images/BlackBeadChoiceCorrect.png","","null"
"image-button-response","392","640816","0.0-13.0-0.111","19","Low_HMMActual","","","","","","951.5","","","","Images/NewTrialBC.png","","0"
"image-button-response","393","641131","0.0-13.0-1.111","19","Low_HMMActual","","","","","","null","","","","Images/BlackBeadChoice.png","","null"
"image-button-response","394","641645","0.0-13.0-2.111","19","Low_HMMActual","","","","","","null","","","","Images/BlackBeadChoiceCorrect.png","","null"
"image-button-response","395","642400","0.0-13.0-0.112","19","Low_HMMActual","","","","","","748.8000000119209","","","","Images/NewTrialBC.png","","0"
"image-button-response","396","642719","0.0-13.0-1.112","19","Low_HMMActual","","","","","","null","","","","Images/BlackBeadChoice.png","","null"
"image-button-response","397","643229","0.0-13.0-2.112","19","Low_HMMActual","","","","","","null","","","","Images/BlackBeadChoiceWrong.png","","null"
"image-button-response","398","645222","0.0-13.0-0.113","19","Low_HMMActual","","","","","","1990.800000011921","","","","Images/NewTrialWC.png","","1"
"image-button-response","399","645535","0.0-13.0-1.113","19","Low_HMMActual","","","","","","null","","","","Images/BlackBeadChoice.png","","null"
"image-button-response","400","646042","0.0-13.0-2.113","19","Low_HMMActual","","","","","","null","","","","Images/BlackBeadChoiceWrong.png","","null"
"image-button-response","401","646946","0.0-13.0-0.114","19","Low_HMMActual","","","","","","895.3999999761581","","","","Images/NewTrialWC.png","","2"
"image-button-response","402","647249","0.0-13.0-1.114","19","Low_HMMActual","","","","","","null","","","","Images/WhiteBeadChoice.png","","null"
"image-button-response","403","647759","0.0-13.0-2.114","19","Low_HMMActual","","","","","","null","","","","Images/WhiteBeadChoiceCorrect.png","","null"
"image-button-response","404","648834","0.0-13.0-0.115","19","Low_HMMActual","","","","","","1070","","","","Images/NewTrialWC.png","","2"
"image-button-response","405","649145","0.0-13.0-1.115","19","Low_HMMActual","","","","","","null","","","","Images/WhiteBeadChoice.png","","null"
"image-button-response","406","649658","0.0-13.0-2.115","19","Low_HMMActual","","","","","","null","","","","Images/WhiteBeadChoiceCorrect.png","","null"
"image-button-response","407","651224","0.0-13.0-0.116","19","Low_HMMActual","","","","","","1561.800000011921","","","","Images/NewTrialWC.png","","1"
"image-button-response","408","651535","0.0-13.0-1.116","19","Low_HMMActual","","","","","","null","","","","Images/BlackBeadChoice.png","","null"
"image-button-response","409","652047","0.0-13.0-2.116","19","Low_HMMActual","","","","","","null","","","","Images/BlackBeadChoiceCorrect.png","","null"
"image-button-response","410","653818","0.0-13.0-0.117","19","Low_HMMActual","","","","","","1765.5","","","","Images/NewTrialBC.png","","0"
"image-button-response","411","654129","0.0-13.0-1.117","19","Low_HMMActual","","","","","","null","","","","Images/BlackBeadChoice.png","","null"
"image-button-response","412","654659","0.0-13.0-2.117","19","Low_HMMActual","","","","","","null","","","","Images/BlackBeadChoiceCorrect.png","","null"
"image-button-response","413","655482","0.0-13.0-0.118","19","Low_HMMActual","","","","","","817.8000000119209","","","","Images/NewTrialBC.png","","0"
"image-button-response","414","655792","0.0-13.0-1.118","19","Low_HMMActual","","","","","","null","","","","Images/BlackBeadChoice.png","","null"
"image-button-response","415","656298","0.0-13.0-2.118","19","Low_HMMActual","","","","","","null","","","","Images/BlackBeadChoiceCorrect.png","","null"
"image-button-response","416","657109","0.0-13.0-0.119","19","Low_HMMActual","","","","","","802.9000000357628","","","","Images/NewTrialBC.png","","0"
"image-button-response","417","657412","0.0-13.0-1.119","19","Low_HMMActual","","","","","","null","","","","Images/BlackBeadChoice.png","","null"
"image-button-response","418","657918","0.0-13.0-2.119","19","Low_HMMActual","","","","","","null","","","","Images/BlackBeadChoiceCorrect.png","","null"
"image-button-response","419","659736","0.0-13.0-0.120","19","Low_HMMActual","","","","","","1808.7999999523163","","","","Images/NewTrialBC.png","","1"
"image-button-response","420","660040","0.0-13.0-1.120","19","Low_HMMActual","","","","","","null","","","","Images/BlackBeadChoice.png","","null"
"image-button-response","421","660543","0.0-13.0-2.120","19","Low_HMMActual","","","","","","null","","","","Images/BlackBeadChoiceWrong.png","","null"
"image-button-response","422","662164","0.0-13.0-0.121","19","Low_HMMActual","","","","","","1615.300000011921","","","","Images/NewTrialWC.png","","3"
"image-button-response","423","662470","0.0-13.0-1.121","19","Low_HMMActual","","","","","","null","","","","Images/WhiteBeadChoice.png","","null"
"image-button-response","424","662983","0.0-13.0-2.121","19","Low_HMMActual","","","","","","null","","","","Images/WhiteBeadChoiceCorrect.png","","null"
"image-button-response","425","663842","0.0-13.0-0.122","19","Low_HMMActual","","","","","","853.6999999880791","","","","Images/NewTrialWC.png","","2"
"image-button-response","426","664150","0.0-13.0-1.122","19","Low_HMMActual","","","","","","null","","","","Images/WhiteBeadChoice.png","","null"
"image-button-response","427","664664","0.0-13.0-2.122","19","Low_HMMActual","","","","","","null","","","","Images/WhiteBeadChoiceCorrect.png","","null"
"image-button-response","428","665448","0.0-13.0-0.123","19","Low_HMMActual","","","","","","779.6999999880791","","","","Images/NewTrialWC.png","","2"
"image-button-response","429","665766","0.0-13.0-1.123","19","Low_HMMActual","","","","","","null","","","","Images/WhiteBeadChoice.png","","null"
"image-button-response","430","666271","0.0-13.0-2.123","19","Low_HMMActual","","","","","","null","","","","Images/WhiteBeadChoiceWrong.png","","null"
"image-button-response","431","667456","0.0-13.0-0.124","19","Low_HMMActual","","","","","","1175.699999988079","","","","Images/NewTrialBC.png","","1"
"image-button-response","432","667762","0.0-13.0-1.124","19","Low_HMMActual","","","","","","null","","","","Images/BlackBeadChoice.png","","null"
"image-button-response","433","668269","0.0-13.0-2.124","19","Low_HMMActual","","","","","","null","","","","Images/BlackBeadChoiceCorrect.png","","null"
"image-button-response","434","669102","0.0-13.0-0.125","19","Low_HMMActual","","","","","","824.5","","","","Images/NewTrialBC.png","","0"
"image-button-response","435","669419","0.0-13.0-1.125","19","Low_HMMActual","","","","","","null","","","","Images/BlackBeadChoice.png","","null"
"image-button-response","436","669923","0.0-13.0-2.125","19","Low_HMMActual","","","","","","null","","","","Images/BlackBeadChoiceWrong.png","","null"
"image-button-response","437","671680","0.0-13.0-0.126","19","Low_HMMActual","","","","","","1752.699999988079","","","","Images/NewTrialWC.png","","2"
"image-button-response","438","671993","0.0-13.0-1.126","19","Low_HMMActual","","","","","","null","","","","Images/WhiteBeadChoice.png","","null"
"image-button-response","439","672505","0.0-13.0-2.126","19","Low_HMMActual","","","","","","null","","","","Images/WhiteBeadChoiceWrong.png","","null"
"image-button-response","440","674956","0.0-13.0-0.127","19","Low_HMMActual","","","","","","2441.800000011921","","","","Images/NewTrialBC.png","","1"
"image-button-response","441","675263","0.0-13.0-1.127","19","Low_HMMActual","","","","","","null","","","","Images/BlackBeadChoice.png","","null"
"image-button-response","442","675771","0.0-13.0-2.127","19","Low_HMMActual","","","","","","null","","","","Images/BlackBeadChoiceCorrect.png","","null"
"image-button-response","443","676578","0.0-13.0-0.128","19","Low_HMMActual","","","","","","802.6000000238419","","","","Images/NewTrialBC.png","","0"
"image-button-response","444","676887","0.0-13.0-1.128","19","Low_HMMActual","","","","","","null","","","","Images/BlackBeadChoice.png","","null"
"image-button-response","445","677391","0.0-13.0-2.128","19","Low_HMMActual","","","","","","null","","","","Images/BlackBeadChoiceCorrect.png","","null"
"image-button-response","446","678240","0.0-13.0-0.129","19","Low_HMMActual","","","","","","845.6000000238419","","","","Images/NewTrialBC.png","","0"
"image-button-response","447","678545","0.0-13.0-1.129","19","Low_HMMActual","","","","","","null","","","","Images/BlackBeadChoice.png","","null"
"image-button-response","448","679055","0.0-13.0-2.129","19","Low_HMMActual","","","","","","null","","","","Images/BlackBeadChoiceCorrect.png","","null"
"image-button-response","449","680222","0.0-13.0-0.130","19","Low_HMMActual","","","","","","1158.6000000238419","","","","Images/NewTrialBC.png","","1"
"image-button-response","450","680526","0.0-13.0-1.130","19","Low_HMMActual","","","","","","null","","","","Images/BlackBeadChoice.png","","null"
"image-button-response","451","681033","0.0-13.0-2.130","19","Low_HMMActual","","","","","","null","","","","Images/BlackBeadChoiceCorrect.png","","null"
"image-button-response","452","682534","0.0-13.0-0.131","19","Low_HMMActual","","","","","","1492.199999988079","","","","Images/NewTrialBC.png","","3"
"image-button-response","453","682844","0.0-13.0-1.131","19","Low_HMMActual","","","","","","null","","","","Images/WhiteBeadChoice.png","","null"
"image-button-response","454","683354","0.0-13.0-2.131","19","Low_HMMActual","","","","","","null","","","","Images/WhiteBeadChoiceWrong.png","","null"
"image-button-response","455","684610","0.0-13.0-0.132","19","Low_HMMActual","","","","","","1246.699999988079","","","","Images/NewTrialBC.png","","3"
"image-button-response","456","684934","0.0-13.0-1.132","19","Low_HMMActual","","","","","","null","","","","Images/WhiteBeadChoice.png","","null"
"image-button-response","457","685437","0.0-13.0-2.132","19","Low_HMMActual","","","","","","null","","","","Images/WhiteBeadChoiceWrong.png","","null"
"image-button-response","458","686374","0.0-13.0-0.133","19","Low_HMMActual","","","","","","928.2000000476837","","","","Images/NewTrialBC.png","","1"
"image-button-response","459","686678","0.0-13.0-1.133","19","Low_HMMActual","","","","","","null","","","","Images/BlackBeadChoice.png","","null"
"image-button-response","460","687182","0.0-13.0-2.133","19","Low_HMMActual","","","","","","null","","","","Images/BlackBeadChoiceCorrect.png","","null"
"image-button-response","461","688498","0.0-13.0-0.134","19","Low_HMMActual","","","","","","1309.0999999642372","","","","Images/NewTrialBC.png","","1"
"image-button-response","462","688802","0.0-13.0-1.134","19","Low_HMMActual","","","","","","null","","","","Images/BlackBeadChoice.png","","null"
"image-button-response","463","689309","0.0-13.0-2.134","19","Low_HMMActual","","","","","","null","","","","Images/BlackBeadChoiceCorrect.png","","null"
"image-button-response","464","690910","0.0-13.0-0.135","19","Low_HMMActual","","","","","","1589.0999999642372","","","","Images/NewTrialBC.png","","3"
"image-button-response","465","691224","0.0-13.0-1.135","19","Low_HMMActual","","","","","","null","","","","Images/WhiteBeadChoice.png","","null"
"image-button-response","466","691744","0.0-13.0-2.135","19","Low_HMMActual","","","","","","null","","","","Images/WhiteBeadChoiceCorrect.png","","null"
"image-button-response","467","693004","0.0-13.0-0.136","19","Low_HMMActual","","","","","","1258.800000011921","","","","Images/NewTrialWC.png","","2"
"image-button-response","468","693314","0.0-13.0-1.136","19","Low_HMMActual","","","","","","null","","","","Images/WhiteBeadChoice.png","","null"
"image-button-response","469","693824","0.0-13.0-2.136","19","Low_HMMActual","","","","","","null","","","","Images/WhiteBeadChoiceCorrect.png","","null"
"image-button-response","470","694540","0.0-13.0-0.137","19","Low_HMMActual","","","","","","707.8000000119209","","","","Images/NewTrialWC.png","","2"
"image-button-response","471","694854","0.0-13.0-1.137","19","Low_HMMActual","","","","","","null","","","","Images/WhiteBeadChoice.png","","null"
"image-button-response","472","695363","0.0-13.0-2.137","19","Low_HMMActual","","","","","","null","","","","Images/WhiteBeadChoiceCorrect.png","","null"
"image-button-response","473","696718","0.0-13.0-0.138","19","Low_HMMActual","","","","","","1349","","","","Images/NewTrialWC.png","","3"
"image-button-response","474","697024","0.0-13.0-1.138","19","Low_HMMActual","","","","","","null","","","","Images/WhiteBeadChoice.png","","null"
"image-button-response","475","697528","0.0-13.0-2.138","19","Low_HMMActual","","","","","","null","","","","Images/WhiteBeadChoiceCorrect.png","","null"
"image-button-response","476","698426","0.0-13.0-0.139","19","Low_HMMActual","","","","","","889.5","","","","Images/NewTrialWC.png","","2"
"image-button-response","477","698733","0.0-13.0-1.139","19","Low_HMMActual","","","","","","null","","","","Images/WhiteBeadChoice.png","","null"
"image-button-response","478","699243","0.0-13.0-2.139","19","Low_HMMActual","","","","","","null","","","","Images/WhiteBeadChoiceCorrect.png","","null"
"image-button-response","479","700464","0.0-13.0-0.140","19","Low_HMMActual","","","","","","1214.8999999761581","","","","Images/NewTrialWC.png","","3"
"image-button-response","480","700769","0.0-13.0-1.140","19","Low_HMMActual","","","","","","null","","","","Images/WhiteBeadChoice.png","","null"
"image-button-response","481","701279","0.0-13.0-2.140","19","Low_HMMActual","","","","","","null","","","","Images/WhiteBeadChoiceCorrect.png","","null"
"image-button-response","482","702233","0.0-13.0-0.141","19","Low_HMMActual","","","","","","944","","","","Images/NewTrialWC.png","","1"
"image-button-response","483","702538","0.0-13.0-1.141","19","Low_HMMActual","","","","","","null","","","","Images/BlackBeadChoice.png","","null"
"image-button-response","484","703043","0.0-13.0-2.141","19","Low_HMMActual","","","","","","null","","","","Images/BlackBeadChoiceWrong.png","","null"
"image-button-response","485","703904","0.0-13.0-0.142","19","Low_HMMActual","","","","","","851.7999999523163","","","","Images/NewTrialWC.png","","3"
"image-button-response","486","704217","0.0-13.0-1.142","19","Low_HMMActual","","","","","","null","","","","Images/WhiteBeadChoice.png","","null"
"image-button-response","487","704725","0.0-13.0-2.142","19","Low_HMMActual","","","","","","null","","","","Images/WhiteBeadChoiceWrong.png","","null"
"image-button-response","488","705611","0.0-13.0-0.143","19","Low_HMMActual","","","","","","884","","","","Images/NewTrialBC.png","","1"
"image-button-response","489","705923","0.0-13.0-1.143","19","Low_HMMActual","","","","","","null","","","","Images/BlackBeadChoice.png","","null"
"image-button-response","490","706431","0.0-13.0-2.143","19","Low_HMMActual","","","","","","null","","","","Images/BlackBeadChoiceWrong.png","","null"
"image-button-response","491","708112","0.0-13.0-0.144","19","Low_HMMActual","","","","","","1672.1000000238419","","","","Images/NewTrialWC.png","","1"
"image-button-response","492","708423","0.0-13.0-1.144","19","Low_HMMActual","","","","","","null","","","","Images/BlackBeadChoice.png","","null"
"image-button-response","493","708928","0.0-13.0-2.144","19","Low_HMMActual","","","","","","null","","","","Images/BlackBeadChoiceWrong.png","","null"
"image-button-response","494","710024","0.0-13.0-0.145","19","Low_HMMActual","","","","","","1087","","","","Images/NewTrialWC.png","","3"
"image-button-response","495","710335","0.0-13.0-1.145","19","Low_HMMActual","","","","","","null","","","","Images/WhiteBeadChoice.png","","null"
"image-button-response","496","710846","0.0-13.0-2.145","19","Low_HMMActual","","","","","","null","","","","Images/WhiteBeadChoiceCorrect.png","","null"
"image-button-response","497","711552","0.0-13.0-0.146","19","Low_HMMActual","","","","","","698.5","","","","Images/NewTrialWC.png","","2"
"image-button-response","498","711858","0.0-13.0-1.146","19","Low_HMMActual","","","","","","null","","","","Images/WhiteBeadChoice.png","","null"
"image-button-response","499","712364","0.0-13.0-2.146","19","Low_HMMActual","","","","","","null","","","","Images/WhiteBeadChoiceWrong.png","","null"
"image-button-response","500","713698","0.0-13.0-0.147","19","Low_HMMActual","","","","","","1325.300000011921","","","","Images/NewTrialBC.png","","1"
"image-button-response","501","714016","0.0-13.0-1.147","19","Low_HMMActual","","","","","","null","","","","Images/BlackBeadChoice.png","","null"
"image-button-response","502","714527","0.0-13.0-2.147","19","Low_HMMActual","","","","","","null","","","","Images/BlackBeadChoiceWrong.png","","null"
"image-button-response","503","716238","0.0-13.0-0.148","19","Low_HMMActual","","","","","","1701.199999988079","","","","Images/NewTrialWC.png","","3"
"image-button-response","504","716545","0.0-13.0-1.148","19","Low_HMMActual","","","","","","null","","","","Images/WhiteBeadChoice.png","","null"
"image-button-response","505","717053","0.0-13.0-2.148","19","Low_HMMActual","","","","","","null","","","","Images/WhiteBeadChoiceCorrect.png","","null"
"image-button-response","506","718158","0.0-13.0-0.149","19","Low_HMMActual","","","","","","1100.5","","","","Images/NewTrialWC.png","","2"
"image-button-response","507","718468","0.0-13.0-1.149","19","Low_HMMActual","","","","","","null","","","","Images/WhiteBeadChoice.png","","null"
"image-button-response","508","718974","0.0-13.0-2.149","19","Low_HMMActual","","","","","","null","","","","Images/WhiteBeadChoiceWrong.png","","null"
"image-button-response","509","719646","0.0-13.0-0.150","19","Low_HMMActual","","","","","","668","","","","Images/NewTrialBC.png","","1"
"image-button-response","510","719957","0.0-13.0-1.150","19","Low_HMMActual","","","","","","null","","","","Images/BlackBeadChoice.png","","null"
"image-button-response","511","720464","0.0-13.0-2.150","19","Low_HMMActual","","","","","","null","","","","Images/BlackBeadChoiceWrong.png","","null"
"image-button-response","512","721464","0.0-13.0-0.151","19","Low_HMMActual","","","","","","990.3000000119209","","","","Images/NewTrialWC.png","","3"
"image-button-response","513","721777","0.0-13.0-1.151","19","Low_HMMActual","","","","","","null","","","","Images/WhiteBeadChoice.png","","null"
"image-button-response","514","722286","0.0-13.0-2.151","19","Low_HMMActual","","","","","","null","","","","Images/WhiteBeadChoiceCorrect.png","","null"
"image-button-response","515","723023","0.0-13.0-0.152","19","Low_HMMActual","","","","","","728","","","","Images/NewTrialWC.png","","2"
"image-button-response","516","723341","0.0-13.0-1.152","19","Low_HMMActual","","","","","","null","","","","Images/WhiteBeadChoice.png","","null"
"image-button-response","517","723851","0.0-13.0-2.152","19","Low_HMMActual","","","","","","null","","","","Images/WhiteBeadChoiceCorrect.png","","null"
"image-button-response","518","724592","0.0-13.0-0.153","19","Low_HMMActual","","","","","","731.6999999880791","","","","Images/NewTrialWC.png","","2"
"image-button-response","519","724910","0.0-13.0-1.153","19","Low_HMMActual","","","","","","null","","","","Images/WhiteBeadChoice.png","","null"
"image-button-response","520","725419","0.0-13.0-2.153","19","Low_HMMActual","","","","","","null","","","","Images/WhiteBeadChoiceCorrect.png","","null"
"image-button-response","521","726550","0.0-13.0-0.154","19","Low_HMMActual","","","","","","1121.7999999523163","","","","Images/NewTrialWC.png","","3"
"image-button-response","522","726854","0.0-13.0-1.154","19","Low_HMMActual","","","","","","null","","","","Images/WhiteBeadChoice.png","","null"
"image-button-response","523","727361","0.0-13.0-2.154","19","Low_HMMActual","","","","","","null","","","","Images/WhiteBeadChoiceCorrect.png","","null"
"image-button-response","524","728126","0.0-13.0-0.155","19","Low_HMMActual","","","","","","759.5","","","","Images/NewTrialWC.png","","1"
"image-button-response","525","728434","0.0-13.0-1.155","19","Low_HMMActual","","","","","","null","","","","Images/BlackBeadChoice.png","","null"
"image-button-response","526","728948","0.0-13.0-2.155","19","Low_HMMActual","","","","","","null","","","","Images/BlackBeadChoiceCorrect.png","","null"
"image-button-response","527","729795","0.0-13.0-0.156","19","Low_HMMActual","","","","","","840.7999999523163","","","","Images/NewTrialBC.png","","0"
"image-button-response","528","730112","0.0-13.0-1.156","19","Low_HMMActual","","","","","","null","","","","Images/BlackBeadChoice.png","","null"
"image-button-response","529","730624","0.0-13.0-2.156","19","Low_HMMActual","","","","","","null","","","","Images/BlackBeadChoiceCorrect.png","","null"
"image-button-response","530","731456","0.0-13.0-0.157","19","Low_HMMActual","","","","","","826.2999999523163","","","","Images/NewTrialBC.png","","1"
"image-button-response","531","731759","0.0-13.0-1.157","19","Low_HMMActual","","","","","","null","","","","Images/BlackBeadChoice.png","","null"
"image-button-response","532","732268","0.0-13.0-2.157","19","Low_HMMActual","","","","","","null","","","","Images/BlackBeadChoiceCorrect.png","","null"
"image-button-response","533","733142","0.0-13.0-0.158","19","Low_HMMActual","","","","","","868.3000000119209","","","","Images/NewTrialBC.png","","0"
"image-button-response","534","733451","0.0-13.0-1.158","19","Low_HMMActual","","","","","","null","","","","Images/BlackBeadChoice.png","","null"
"image-button-response","535","733958","0.0-13.0-2.158","19","Low_HMMActual","","","","","","null","","","","Images/BlackBeadChoiceCorrect.png","","null"
"image-button-response","536","735100","0.0-13.0-0.159","19","Low_HMMActual","","","","","","1133.8999999761581","","","","Images/NewTrialBC.png","","1"
"image-button-response","537","735414","0.0-13.0-1.159","19","Low_HMMActual","","","","","","null","","","","Images/BlackBeadChoice.png","","null"
"image-button-response","538","735927","0.0-13.0-2.159","19","Low_HMMActual","","","","","","null","","","","Images/BlackBeadChoiceCorrect.png","","null"
"image-button-response","539","736950","0.0-13.0-0.160","19","Low_HMMActual","","","","","","1018.0999999642372","","","","Images/NewTrialBC.png","","3"
"image-button-response","540","737263","0.0-13.0-1.160","19","Low_HMMActual","","","","","","null","","","","Images/WhiteBeadChoice.png","","null"
"image-button-response","541","737771","0.0-13.0-2.160","19","Low_HMMActual","","","","","","null","","","","Images/WhiteBeadChoiceWrong.png","","null"
"image-button-response","542","738550","0.0-13.0-0.161","19","Low_HMMActual","","","","","","771.3000000119209","","","","Images/NewTrialBC.png","","1"
"image-button-response","543","738868","0.0-13.0-1.161","19","Low_HMMActual","","","","","","null","","","","Images/BlackBeadChoice.png","","null"
"image-button-response","544","739370","0.0-13.0-2.161","19","Low_HMMActual","","","","","","null","","","","Images/BlackBeadChoiceWrong.png","","null"
"image-button-response","545","740202","0.0-13.0-0.162","19","Low_HMMActual","","","","","","828.6000000238419","","","","Images/NewTrialWC.png","","3"
"image-button-response","546","740514","0.0-13.0-1.162","19","Low_HMMActual","","","","","","null","","","","Images/WhiteBeadChoice.png","","null"
"image-button-response","547","741034","0.0-13.0-2.162","19","Low_HMMActual","","","","","","null","","","","Images/WhiteBeadChoiceCorrect.png","","null"
"image-button-response","548","741887","0.0-13.0-0.163","19","Low_HMMActual","","","","","","844.6999999880791","","","","Images/NewTrialWC.png","","2"
"image-button-response","549","742204","0.0-13.0-1.163","19","Low_HMMActual","","","","","","null","","","","Images/WhiteBeadChoice.png","","null"
"image-button-response","550","742724","0.0-13.0-2.163","19","Low_HMMActual","","","","","","null","","","","Images/WhiteBeadChoiceCorrect.png","","null"
"image-button-response","551","743628","0.0-13.0-0.164","19","Low_HMMActual","","","","","","901.3999999761581","","","","Images/NewTrialWC.png","","3"
"image-button-response","552","743935","0.0-13.0-1.164","19","Low_HMMActual","","","","","","null","","","","Images/WhiteBeadChoice.png","","null"
"image-button-response","553","744454","0.0-13.0-2.164","19","Low_HMMActual","","","","","","null","","","","Images/WhiteBeadChoiceCorrect.png","","null"
"image-button-response","554","745752","0.0-13.0-0.165","19","Low_HMMActual","","","","","","1285.5999999642372","","","","Images/NewTrialWC.png","","3"
"image-button-response","555","746063","0.0-13.0-1.165","19","Low_HMMActual","","","","","","null","","","","Images/WhiteBeadChoice.png","","null"
"image-button-response","556","746566","0.0-13.0-2.165","19","Low_HMMActual","","","","","","null","","","","Images/WhiteBeadChoiceCorrect.png","","null"
"image-button-response","557","748228","0.0-13.0-0.166","19","Low_HMMActual","","","","","","1653.199999988079","","","","Images/NewTrialWC.png","","3"
"image-button-response","558","748534","0.0-13.0-1.166","19","Low_HMMActual","","","","","","null","","","","Images/WhiteBeadChoice.png","","null"
"image-button-response","559","749044","0.0-13.0-2.166","19","Low_HMMActual","","","","","","null","","","","Images/WhiteBeadChoiceCorrect.png","","null"
"image-button-response","560","750408","0.0-13.0-0.167","19","Low_HMMActual","","","","","","1351.9000000357628","","","","Images/NewTrialWC.png","","3"
"image-button-response","561","750712","0.0-13.0-1.167","19","Low_HMMActual","","","","","","null","","","","Images/WhiteBeadChoice.png","","null"
"image-button-response","562","751220","0.0-13.0-2.167","19","Low_HMMActual","","","","","","null","","","","Images/WhiteBeadChoiceCorrect.png","","null"
"image-button-response","563","752311","0.0-13.0-0.168","19","Low_HMMActual","","","","","","1088.5","","","","Images/NewTrialWC.png","","1"
"image-button-response","564","752623","0.0-13.0-1.168","19","Low_HMMActual","","","","","","null","","","","Images/BlackBeadChoice.png","","null"
"image-button-response","565","753136","0.0-13.0-2.168","19","Low_HMMActual","","","","","","null","","","","Images/BlackBeadChoiceCorrect.png","","null"
"image-button-response","566","754076","0.0-13.0-0.169","19","Low_HMMActual","","","","","","936","","","","Images/NewTrialBC.png","","0"
"image-button-response","567","754394","0.0-13.0-1.169","19","Low_HMMActual","","","","","","null","","","","Images/BlackBeadChoice.png","","null"
"image-button-response","568","754904","0.0-13.0-2.169","19","Low_HMMActual","","","","","","null","","","","Images/BlackBeadChoiceWrong.png","","null"
"image-button-response","569","755862","0.0-13.0-0.170","19","Low_HMMActual","","","","","","951","","","","Images/NewTrialWC.png","","3"
"image-button-response","570","756184","0.0-13.0-1.170","19","Low_HMMActual","","","","","","null","","","","Images/WhiteBeadChoice.png","","null"
"image-button-response","571","756704","0.0-13.0-2.170","19","Low_HMMActual","","","","","","null","","","","Images/WhiteBeadChoiceCorrect.png","","null"
"image-button-response","572","757985","0.0-13.0-0.171","19","Low_HMMActual","","","","","","1272.0999999642372","","","","Images/NewTrialWC.png","","2"
"image-button-response","573","758296","0.0-13.0-1.171","19","Low_HMMActual","","","","","","null","","","","Images/WhiteBeadChoice.png","","null"
"image-button-response","574","758810","0.0-13.0-2.171","19","Low_HMMActual","","","","","","null","","","","Images/WhiteBeadChoiceCorrect.png","","null"
"image-button-response","575","759656","0.0-13.0-0.172","19","Low_HMMActual","","","","","","842.5999999642372","","","","Images/NewTrialWC.png","","2"
"image-button-response","576","759974","0.0-13.0-1.172","19","Low_HMMActual","","","","","","null","","","","Images/WhiteBeadChoice.png","","null"
"image-button-response","577","760480","0.0-13.0-2.172","19","Low_HMMActual","","","","","","null","","","","Images/WhiteBeadChoiceCorrect.png","","null"
"image-button-response","578","761340","0.0-13.0-0.173","19","Low_HMMActual","","","","","","857.8000000119209","","","","Images/NewTrialWC.png","","2"
"image-button-response","579","761666","0.0-13.0-1.173","19","Low_HMMActual","","","","","","null","","","","Images/WhiteBeadChoice.png","","null"
"image-button-response","580","762171","0.0-13.0-2.173","19","Low_HMMActual","","","","","","null","","","","Images/WhiteBeadChoiceCorrect.png","","null"
"image-button-response","581","762932","0.0-13.0-0.174","19","Low_HMMActual","","","","","","755.5","","","","Images/NewTrialWC.png","","3"
"image-button-response","582","763239","0.0-13.0-1.174","19","Low_HMMActual","","","","","","null","","","","Images/WhiteBeadChoice.png","","null"
"image-button-response","583","763752","0.0-13.0-2.174","19","Low_HMMActual","","","","","","null","","","","Images/WhiteBeadChoiceCorrect.png","","null"
"image-button-response","584","764679","0.0-13.0-0.175","19","Low_HMMActual","","","","","","922.1000000238419","","","","Images/NewTrialWC.png","","3"
"image-button-response","585","764982","0.0-13.0-1.175","19","Low_HMMActual","","","","","","null","","","","Images/WhiteBeadChoice.png","","null"
"image-button-response","586","765486","0.0-13.0-2.175","19","Low_HMMActual","","","","","","null","","","","Images/WhiteBeadChoiceWrong.png","","null"
"image-button-response","587","766645","0.0-13.0-0.176","19","Low_HMMActual","","","","","","1157","","","","Images/NewTrialBC.png","","1"
"image-button-response","588","766955","0.0-13.0-1.176","19","Low_HMMActual","","","","","","null","","","","Images/BlackBeadChoice.png","","null"
"image-button-response","589","767470","0.0-13.0-2.176","19","Low_HMMActual","","","","","","null","","","","Images/BlackBeadChoiceCorrect.png","","null"
"image-button-response","590","768716","0.0-13.0-0.177","19","Low_HMMActual","","","","","","1239.9000000357628","","","","Images/NewTrialBC.png","","0"
"image-button-response","591","769027","0.0-13.0-1.177","19","Low_HMMActual","","","","","","null","","","","Images/BlackBeadChoice.png","","null"
"image-button-response","592","769533","0.0-13.0-2.177","19","Low_HMMActual","","","","","","null","","","","Images/BlackBeadChoiceCorrect.png","","null"
"image-button-response","593","770345","0.0-13.0-0.178","19","Low_HMMActual","","","","","","803.8000000119209","","","","Images/NewTrialBC.png","","0"
"image-button-response","594","770665","0.0-13.0-1.178","19","Low_HMMActual","","","","","","null","","","","Images/BlackBeadChoice.png","","null"
"image-button-response","595","771168","0.0-13.0-2.178","19","Low_HMMActual","","","","","","null","","","","Images/BlackBeadChoiceWrong.png","","null"
"image-button-response","596","772392","0.0-13.0-0.179","19","Low_HMMActual","","","","","","1216.2999999523163","","","","Images/NewTrialWC.png","","3"
"image-button-response","597","772698","0.0-13.0-1.179","19","Low_HMMActual","","","","","","null","","","","Images/WhiteBeadChoice.png","","null"
"image-button-response","598","773209","0.0-13.0-2.179","19","Low_HMMActual","","","","","","null","","","","Images/WhiteBeadChoiceWrong.png","","null"
"image-button-response","599","775032","0.0-13.0-0.180","19","Low_HMMActual","","","","","","1818.6000000238419","","","","Images/NewTrialBC.png","","1"
"image-button-response","600","775340","0.0-13.0-1.180","19","Low_HMMActual","","","","","","null","","","","Images/BlackBeadChoice.png","","null"
"image-button-response","601","775848","0.0-13.0-2.180","19","Low_HMMActual","","","","","","null","","","","Images/BlackBeadChoiceCorrect.png","","null"
"image-button-response","602","776607","0.0-13.0-0.181","19","Low_HMMActual","","","","","","729.1000000238419","","","","Images/NewTrialBC.png","","0"
"image-button-response","603","776911","0.0-13.0-1.181","19","Low_HMMActual","","","","","","null","","","","Images/BlackBeadChoice.png","","null"
"image-button-response","604","777414","0.0-13.0-2.181","19","Low_HMMActual","","","","","","null","","","","Images/BlackBeadChoiceCorrect.png","","null"
"image-button-response","605","778205","0.0-13.0-0.182","19","Low_HMMActual","","","","","","783.1000000238419","","","","Images/NewTrialBC.png","","0"
"image-button-response","606","778525","0.0-13.0-1.182","19","Low_HMMActual","","","","","","null","","","","Images/BlackBeadChoice.png","","null"
"image-button-response","607","779032","0.0-13.0-2.182","19","Low_HMMActual","","","","","","null","","","","Images/BlackBeadChoiceCorrect.png","","null"
"image-button-response","608","780039","0.0-13.0-0.183","19","Low_HMMActual","","","","","","998.3999999761581","","","","Images/NewTrialBC.png","","1"
"image-button-response","609","780352","0.0-13.0-1.183","19","Low_HMMActual","","","","","","null","","","","Images/BlackBeadChoice.png","","null"
"image-button-response","610","780866","0.0-13.0-2.183","19","Low_HMMActual","","","","","","null","","","","Images/BlackBeadChoiceCorrect.png","","null"
"image-button-response","611","781865","0.0-13.0-0.184","19","Low_HMMActual","","","","","","995.2000000476837","","","","Images/NewTrialBC.png","","1"
"image-button-response","612","782172","0.0-13.0-1.184","19","Low_HMMActual","","","","","","null","","","","Images/BlackBeadChoice.png","","null"
"image-button-response","613","782677","0.0-13.0-2.184","19","Low_HMMActual","","","","","","null","","","","Images/BlackBeadChoiceCorrect.png","","null"
"image-button-response","614","783520","0.0-13.0-0.185","19","Low_HMMActual","","","","","","836.5999999642372","","","","Images/NewTrialBC.png","","1"
"image-button-response","615","783832","0.0-13.0-1.185","19","Low_HMMActual","","","","","","null","","","","Images/BlackBeadChoice.png","","null"
"image-button-response","616","784341","0.0-13.0-2.185","19","Low_HMMActual","","","","","","null","","","","Images/BlackBeadChoiceCorrect.png","","null"
"image-button-response","617","785472","0.0-13.0-0.186","19","Low_HMMActual","","","","","","1121.7999999523163","","","","Images/NewTrialBC.png","","0"
"image-button-response","618","785776","0.0-13.0-1.186","19","Low_HMMActual","","","","","","null","","","","Images/BlackBeadChoice.png","","null"
"image-button-response","619","786294","0.0-13.0-2.186","19","Low_HMMActual","","","","","","null","","","","Images/BlackBeadChoiceCorrect.png","","null"
"image-button-response","620","787408","0.0-13.0-0.187","19","Low_HMMActual","","","","","","1104.699999988079","","","","Images/NewTrialBC.png","","1"
"image-button-response","621","787719","0.0-13.0-1.187","19","Low_HMMActual","","","","","","null","","","","Images/BlackBeadChoice.png","","null"
"image-button-response","622","788224","0.0-13.0-2.187","19","Low_HMMActual","","","","","","null","","","","Images/BlackBeadChoiceWrong.png","","null"
"image-button-response","623","790136","0.0-13.0-0.188","19","Low_HMMActual","","","","","","1906.699999988079","","","","Images/NewTrialWC.png","","2"
"image-button-response","624","790443","0.0-13.0-1.188","19","Low_HMMActual","","","","","","null","","","","Images/WhiteBeadChoice.png","","null"
"image-button-response","625","790953","0.0-13.0-2.188","19","Low_HMMActual","","","","","","null","","","","Images/WhiteBeadChoiceCorrect.png","","null"
"image-button-response","626","791610","0.0-13.0-0.189","19","Low_HMMActual","","","","","","648.1000000238419","","","","Images/NewTrialWC.png","","2"
"image-button-response","627","791931","0.0-13.0-1.189","19","Low_HMMActual","","","","","","null","","","","Images/WhiteBeadChoice.png","","null"
"image-button-response","628","792445","0.0-13.0-2.189","19","Low_HMMActual","","","","","","null","","","","Images/WhiteBeadChoiceCorrect.png","","null"
"image-button-response","629","793310","0.0-13.0-0.190","19","Low_HMMActual","","","","","","858.9000000357628","","","","Images/NewTrialWC.png","","2"
"image-button-response","630","793627","0.0-13.0-1.190","19","Low_HMMActual","","","","","","null","","","","Images/WhiteBeadChoice.png","","null"
"image-button-response","631","794138","0.0-13.0-2.190","19","Low_HMMActual","","","","","","null","","","","Images/WhiteBeadChoiceCorrect.png","","null"
"image-button-response","632","794822","0.0-13.0-0.191","19","Low_HMMActual","","","","","","680.3000000119209","","","","Images/NewTrialWC.png","","2"
"image-button-response","633","795129","0.0-13.0-1.191","19","Low_HMMActual","","","","","","null","","","","Images/WhiteBeadChoice.png","","null"
"image-button-response","634","795641","0.0-13.0-2.191","19","Low_HMMActual","","","","","","null","","","","Images/WhiteBeadChoiceCorrect.png","","null"
"image-button-response","635","796178","0.0-13.0-0.192","19","Low_HMMActual","","","","","","530.5","","","","Images/NewTrialWC.png","","2"
"image-button-response","636","796483","0.0-13.0-1.192","19","Low_HMMActual","","","","","","null","","","","Images/WhiteBeadChoice.png","","null"
"image-button-response","637","796992","0.0-13.0-2.192","19","Low_HMMActual","","","","","","null","","","","Images/WhiteBeadChoiceCorrect.png","","null"
"image-button-response","638","797660","0.0-13.0-0.193","19","Low_HMMActual","","","","","","659.1000000238419","","","","Images/NewTrialWC.png","","3"
"image-button-response","639","797977","0.0-13.0-1.193","19","Low_HMMActual","","","","","","null","","","","Images/WhiteBeadChoice.png","","null"
"image-button-response","640","798489","0.0-13.0-2.193","19","Low_HMMActual","","","","","","null","","","","Images/WhiteBeadChoiceCorrect.png","","null"
"image-button-response","641","799485","0.0-13.0-0.194","19","Low_HMMActual","","","","","","993.8999999761581","","","","Images/NewTrialWC.png","","3"
"image-button-response","642","799794","0.0-13.0-1.194","19","Low_HMMActual","","","","","","null","","","","Images/WhiteBeadChoice.png","","null"
"image-button-response","643","800303","0.0-13.0-2.194","19","Low_HMMActual","","","","","","null","","","","Images/WhiteBeadChoiceCorrect.png","","null"
"image-button-response","644","801148","0.0-13.0-0.195","19","Low_HMMActual","","","","","","838.5999999642372","","","","Images/NewTrialWC.png","","3"
"image-button-response","645","801463","0.0-13.0-1.195","19","Low_HMMActual","","","","","","null","","","","Images/WhiteBeadChoice.png","","null"
"image-button-response","646","801973","0.0-13.0-2.195","19","Low_HMMActual","","","","","","null","","","","Images/WhiteBeadChoiceCorrect.png","","null"
"image-button-response","647","802824","0.0-13.0-0.196","19","Low_HMMActual","","","","","","847.6999999880791","","","","Images/NewTrialWC.png","","3"
"image-button-response","648","803144","0.0-13.0-1.196","19","Low_HMMActual","","","","","","null","","","","Images/WhiteBeadChoice.png","","null"
"image-button-response","649","803654","0.0-13.0-2.196","19","Low_HMMActual","","","","","","null","","","","Images/WhiteBeadChoiceCorrect.png","","null"
"image-button-response","650","804901","0.0-13.0-0.197","19","Low_HMMActual","","","","","","1241.4000000357628","","","","Images/NewTrialWC.png","","1"
"image-button-response","651","805214","0.0-13.0-1.197","19","Low_HMMActual","","","","","","null","","","","Images/BlackBeadChoice.png","","null"
"image-button-response","652","805718","0.0-13.0-2.197","19","Low_HMMActual","","","","","","null","","","","Images/BlackBeadChoiceWrong.png","","null"
"image-button-response","653","806476","0.0-13.0-0.198","19","Low_HMMActual","","","","","","748.8000000119209","","","","Images/NewTrialWC.png","","3"
"image-button-response","654","806784","0.0-13.0-1.198","19","Low_HMMActual","","","","","","null","","","","Images/WhiteBeadChoice.png","","null"
"image-button-response","655","807288","0.0-13.0-2.198","19","Low_HMMActual","","","","","","null","","","","Images/WhiteBeadChoiceWrong.png","","null"
"image-button-response","656","807982","0.0-13.0-0.199","19","Low_HMMActual","","","","","","692.4000000357628","","","","Images/NewTrialBC.png","","1"
"image-button-response","657","808304","0.0-13.0-1.199","19","Low_HMMActual","","","","","","null","","","","Images/BlackBeadChoice.png","","null"
"image-button-response","658","808814","0.0-13.0-2.199","19","Low_HMMActual","","","","","","null","","","","Images/BlackBeadChoiceWrong.png","","null"
"image-button-response","659","809926","0.0-13.0-0.200","19","Low_HMMActual","","","","","","1106.6000000238419","","","","Images/NewTrialWC.png","","3"
"image-button-response","660","810245","0.0-13.0-1.200","19","Low_HMMActual","","","","","","null","","","","Images/WhiteBeadChoice.png","","null"
"image-button-response","661","810764","0.0-13.0-2.200","19","Low_HMMActual","","","","","","null","","","","Images/WhiteBeadChoiceCorrect.png","","null"
"image-button-response","662","811336","0.0-13.0-0.201","19","Low_HMMActual","","","","","","566.6000000238419","","","","Images/NewTrialWC.png","","3"
"image-button-response","663","811655","0.0-13.0-1.201","19","Low_HMMActual","","","","","","null","","","","Images/WhiteBeadChoice.png","","null"
"image-button-response","664","812174","0.0-13.0-2.201","19","Low_HMMActual","","","","","","null","","","","Images/WhiteBeadChoiceWrong.png","","null"
"image-button-response","665","813412","0.0-13.0-0.202","19","Low_HMMActual","","","","","","1228.300000011921","","","","Images/NewTrialBC.png","","1"
"image-button-response","666","813717","0.0-13.0-1.202","19","Low_HMMActual","","","","","","null","","","","Images/BlackBeadChoice.png","","null"
