"trial_type","trial_index","time_elapsed","internal_node_id","Script_Picker","Block_Type","success","timeout","failed_images","failed_audio","failed_video","rt","url","responses","question_order","stimulus","key_press","response"
"pavlovia","0","8","0.0-0.0","17","Low_HMMActual","","","","","","","","","","","",""
"preload","1","9","0.0-1.0","17","Low_HMMActual","true","false","[]","[]","[]","","","","","","",""
"external-html","2","52776","0.0-2.0-0.0","17","Low_HMMActual","","","","","","52621.5","consent.html","","","","",""
"survey-multi-choice","3","58927","0.0-2.0-1.0","17","Low_HMMActual","","","","","","6148.9000000003725","","{""Q0"":""Male"",""Q1"":""White""}","[0,1]","","",""
"survey-text","4","61617","0.0-2.0-2.0","17","Low_HMMActual","","","","","","2685.2999999988824","","{""Q0"":""23""}","","","",""
"survey-text","5","66582","0.0-2.0-3.0","17","Low_HMMActual","","","","","","4851","","{""Q0"":""60256d8ad9b88a0cb709e65a""}","","","",""
"image-keyboard-response","6","83174","0.0-3.0-0.0","17","Low_HMMActual","","","","","","16489.300000000745","","","","tutorial/tutorial1.png"," ",""
"image-keyboard-response","7","93723","0.0-3.0-0.1","17","Low_HMMActual","","","","","","10547.5","","","","tutorial/tutorial2.png"," ",""
"image-keyboard-response","8","100324","0.0-3.0-0.2","17","Low_HMMActual","","","","","","6599","","","","tutorial/tutorial3.png"," ",""
"image-keyboard-response","9","102067","0.0-3.0-0.3","17","Low_HMMActual","","","","","","1742.0999999996275","","","","tutorial/tutorial4.png"," ",""
"image-keyboard-response","10","104526","0.0-3.0-0.4","17","Low_HMMActual","","","","","","2457.5","","","","tutorial/tutorial5.png"," ",""
"image-keyboard-response","11","115377","0.0-3.0-0.5","17","Low_HMMActual","","","","","","10850","","","","tutorial/tutorial6.png"," ",""
"image-keyboard-response","12","123277","0.0-3.0-0.6","17","Low_HMMActual","","","","","","7898","","","","tutorial/tutorial7.png"," ",""
"image-keyboard-response","13","191519","0.0-3.0-0.7","17","Low_HMMActual","","","","","","68241.40000000037","","","","tutorial/tutorial8.png"," ",""
"image-keyboard-response","14","198571","0.0-3.0-0.8","17","Low_HMMActual","","","","","","7050.799999998882","","","","tutorial/tutorial9.png"," ",""
"image-keyboard-response","15","216682","0.0-3.0-0.9","17","Low_HMMActual","","","","","","18109.599999999627","","","","tutorial/tutorial10.png"," ",""
"image-keyboard-response","16","224084","0.0-3.0-0.10","17","Low_HMMActual","","","","","","7401.10000000149","","","","tutorial/tutorial11.png"," ",""
"image-keyboard-response","17","228128","0.0-3.0-0.11","17","Low_HMMActual","","","","","","4042.199999999255","","","","tutorial/tutorial12.png"," ",""
"image-keyboard-response","18","238612","0.0-3.0-0.12","17","Low_HMMActual","","","","","","10483.200000001118","","","","tutorial/tutorial13.png"," ",""
"image-keyboard-response","19","247274","0.0-3.0-0.13","17","Low_HMMActual","","","","","","8660.299999998882","","","","tutorial/tutorial14.png"," ",""
"image-keyboard-response","20","249734","0.0-3.0-0.14","17","Low_HMMActual","","","","","","2458.5999999996275","","","","tutorial/tutorial15.png"," ",""
"image-keyboard-response","21","256994","0.0-4.0","17","Low_HMMActual","","","","","","7259.199999999255","","","","tutorial/tutorial16.png","arrowup",""
"image-keyboard-response","22","269612","0.0-5.0","17","Low_HMMActual","","","","","","10500.60000000149","","","","tutorial/tutorial17.png","arrowright",""
"image-keyboard-response","23","276196","0.0-6.0","17","Low_HMMActual","","","","","","4696.9000000003725","","","","tutorial/tutorial18.png","arrowleft",""
"image-keyboard-response","24","290277","0.0-7.0","17","Low_HMMActual","","","","","","12101.699999999255","","","","tutorial/tutorial19.png"," ",""
"html-keyboard-response","25","293582","0.0-8.0","18","Low_HMMActual","","","","","","3295.300000000745","","","","<div class=""container"" style=""height:800px;width:800px;display:flex;flex-direction:column;justify-content:center;align-items:center;text-align:center;font-weight:normal;font-family:Arial;font-size:20px""><p>Loading episode&hellip;</p><div>"," ",""
"image-button-response","26","302211","0.0-9.0-0.0","18","Low_HMMActual","","","","","","8624.200000001118","","","","Images/NoChoice.png","","0"
"image-button-response","27","302524","0.0-9.0-1.0","18","Low_HMMActual","","","","","","null","","","","Images/BlackBeadChoice.png","","null"
"image-button-response","28","303040","0.0-9.0-2.0","18","Low_HMMActual","","","","","","null","","","","Images/BlackBeadChoiceWrong.png","","null"
"image-button-response","29","306112","0.0-9.0-0.1","18","Low_HMMActual","","","","","","3069.199999999255","","","","Images/NewTrialWC.png","","3"
"image-button-response","30","306428","0.0-9.0-1.1","18","Low_HMMActual","","","","","","null","","","","Images/WhiteBeadChoice.png","","null"
"image-button-response","31","306930","0.0-9.0-2.1","18","Low_HMMActual","","","","","","null","","","","Images/WhiteBeadChoiceCorrect.png","","null"
"image-button-response","32","308132","0.0-9.0-0.2","18","Low_HMMActual","","","","","","1198.8999999985099","","","","Images/NewTrialWC.png","","3"
"image-button-response","33","308450","0.0-9.0-1.2","18","Low_HMMActual","","","","","","null","","","","Images/WhiteBeadChoice.png","","null"
"image-button-response","34","308956","0.0-9.0-2.2","18","Low_HMMActual","","","","","","null","","","","Images/WhiteBeadChoiceCorrect.png","","null"
"image-button-response","35","310584","0.0-9.0-0.3","18","Low_HMMActual","","","","","","1624","","","","Images/NewTrialWC.png","","3"
"image-button-response","36","310894","0.0-9.0-1.3","18","Low_HMMActual","","","","","","null","","","","Images/WhiteBeadChoice.png","","null"
"image-button-response","37","311398","0.0-9.0-2.3","18","Low_HMMActual","","","","","","null","","","","Images/WhiteBeadChoiceWrong.png","","null"
"image-button-response","38","313714","0.0-9.0-0.4","18","Low_HMMActual","","","","","","2313.2999999988824","","","","Images/NewTrialBC.png","","0"
"image-button-response","39","314025","0.0-9.0-1.4","18","Low_HMMActual","","","","","","null","","","","Images/BlackBeadChoice.png","","null"
"image-button-response","40","314541","0.0-9.0-2.4","18","Low_HMMActual","","","","","","null","","","","Images/BlackBeadChoiceWrong.png","","null"
"image-button-response","41","318209","0.0-9.0-0.5","18","Low_HMMActual","","","","","","3665","","","","Images/NewTrialWC.png","","0"
"image-button-response","42","318517","0.0-9.0-1.5","18","Low_HMMActual","","","","","","null","","","","Images/BlackBeadChoice.png","","null"
"image-button-response","43","319035","0.0-9.0-2.5","18","Low_HMMActual","","","","","","null","","","","Images/BlackBeadChoiceWrong.png","","null"
"image-button-response","44","319961","0.0-9.0-0.6","18","Low_HMMActual","","","","","","922.2999999988824","","","","Images/NewTrialWC.png","","0"
"image-button-response","45","320266","0.0-9.0-1.6","18","Low_HMMActual","","","","","","null","","","","Images/BlackBeadChoice.png","","null"
"image-button-response","46","320770","0.0-9.0-2.6","18","Low_HMMActual","","","","","","null","","","","Images/BlackBeadChoiceCorrect.png","","null"
"image-button-response","47","327372","0.0-9.0-0.7","18","Low_HMMActual","","","","","","6598.699999999255","","","","Images/NewTrialBC.png","","0"
"image-button-response","48","327685","0.0-9.0-1.7","18","Low_HMMActual","","","","","","null","","","","Images/BlackBeadChoice.png","","null"
"image-button-response","49","328191","0.0-9.0-2.7","18","Low_HMMActual","","","","","","null","","","","Images/BlackBeadChoiceWrong.png","","null"
"image-button-response","50","329437","0.0-9.0-0.8","18","Low_HMMActual","","","","","","1243.800000000745","","","","Images/NewTrialWC.png","","0"
"image-button-response","51","329754","0.0-9.0-1.8","18","Low_HMMActual","","","","","","null","","","","Images/BlackBeadChoice.png","","null"
"image-button-response","52","330270","0.0-9.0-2.8","18","Low_HMMActual","","","","","","null","","","","Images/BlackBeadChoiceWrong.png","","null"
"image-button-response","53","332243","0.0-9.0-0.9","18","Low_HMMActual","","","","","","1969.7999999988824","","","","Images/NewTrialWC.png","","2"
"image-button-response","54","332556","0.0-9.0-1.9","18","Low_HMMActual","","","","","","null","","","","Images/WhiteBeadChoice.png","","null"
"image-button-response","55","333061","0.0-9.0-2.9","18","Low_HMMActual","","","","","","null","","","","Images/WhiteBeadChoiceWrong.png","","null"
"html-keyboard-response","56","336754","0.0-10.0","18","Low_HMMActual","","","","","","3691.5","","","",""," ",""
"image-keyboard-response","57","340708","0.0-11.0","18","Low_HMMActual","","","","","","3951.9000000003725","","","","tutorial/tutorial20.png"," ",""
"html-keyboard-response","58","343253","0.0-12.0","19","Low_HMMActual","","","","","","2535.5999999996275","","","","<div class=""container"" style=""height:800px;width:800px;display:flex;flex-direction:column;justify-content:center;align-items:center;text-align:center;font-weight:normal;font-family:Arial;font-size:20px""><p>Loading episode&hellip;</p><div>"," ",""
"image-button-response","59","347016","0.0-13.0-0.0","19","Low_HMMActual","","","","","","3760.4000000003725","","","","Images/NoChoice.png","","2"
"image-button-response","60","347330","0.0-13.0-1.0","19","Low_HMMActual","","","","","","null","","","","Images/WhiteBeadChoice.png","","null"
"image-button-response","61","347836","0.0-13.0-2.0","19","Low_HMMActual","","","","","","null","","","","Images/WhiteBeadChoiceCorrect.png","","null"
"image-button-response","62","349016","0.0-13.0-0.1","19","Low_HMMActual","","","","","","1176.699999999255","","","","Images/NewTrialWC.png","","2"
"image-button-response","63","349324","0.0-13.0-1.1","19","Low_HMMActual","","","","","","null","","","","Images/WhiteBeadChoice.png","","null"
"image-button-response","64","349828","0.0-13.0-2.1","19","Low_HMMActual","","","","","","null","","","","Images/WhiteBeadChoiceCorrect.png","","null"
"image-button-response","65","350891","0.0-13.0-0.2","19","Low_HMMActual","","","","","","1058.699999999255","","","","Images/NewTrialWC.png","","2"
"image-button-response","66","351194","0.0-13.0-1.2","19","Low_HMMActual","","","","","","null","","","","Images/WhiteBeadChoice.png","","null"
"image-button-response","67","351698","0.0-13.0-2.2","19","Low_HMMActual","","","","","","null","","","","Images/WhiteBeadChoiceCorrect.png","","null"
"image-button-response","68","352537","0.0-13.0-0.3","19","Low_HMMActual","","","","","","818.6999999992549","","","","Images/NewTrialWC.png","","2"
"image-button-response","69","352850","0.0-13.0-1.3","19","Low_HMMActual","","","","","","null","","","","Images/WhiteBeadChoice.png","","null"
"image-button-response","70","353355","0.0-13.0-2.3","19","Low_HMMActual","","","","","","null","","","","Images/WhiteBeadChoiceCorrect.png","","null"
"image-button-response","71","353832","0.0-13.0-0.4","19","Low_HMMActual","","","","","","474.40000000037253","","","","Images/NewTrialWC.png","","2"
"image-button-response","72","354140","0.0-13.0-1.4","19","Low_HMMActual","","","","","","null","","","","Images/WhiteBeadChoice.png","","null"
"image-button-response","73","354645","0.0-13.0-2.4","19","Low_HMMActual","","","","","","null","","","","Images/WhiteBeadChoiceCorrect.png","","null"
"image-button-response","74","354892","0.0-13.0-0.5","19","Low_HMMActual","","","","","","244.69999999925494","","","","Images/NewTrialWC.png","","2"
"image-button-response","75","355207","0.0-13.0-1.5","19","Low_HMMActual","","","","","","null","","","","Images/WhiteBeadChoice.png","","null"
"image-button-response","76","355742","0.0-13.0-2.5","19","Low_HMMActual","","","","","","null","","","","Images/WhiteBeadChoiceWrong.png","","null"
"image-button-response","77","356272","0.0-13.0-0.6","19","Low_HMMActual","","","","","","528.1999999992549","","","","Images/NewTrialBC.png","","2"
"image-button-response","78","356579","0.0-13.0-1.6","19","Low_HMMActual","","","","","","null","","","","Images/WhiteBeadChoice.png","","null"
"image-button-response","79","357095","0.0-13.0-2.6","19","Low_HMMActual","","","","","","null","","","","Images/WhiteBeadChoiceWrong.png","","null"
"image-button-response","80","357547","0.0-13.0-0.7","19","Low_HMMActual","","","","","","449.09999999962747","","","","Images/NewTrialBC.png","","2"
"image-button-response","81","357865","0.0-13.0-1.7","19","Low_HMMActual","","","","","","null","","","","Images/WhiteBeadChoice.png","","null"
"image-button-response","82","358380","0.0-13.0-2.7","19","Low_HMMActual","","","","","","null","","","","Images/WhiteBeadChoiceWrong.png","","null"
"image-button-response","83","359423","0.0-13.0-0.8","19","Low_HMMActual","","","","","","1040.7000000011176","","","","Images/NewTrialBC.png","","0"
"image-button-response","84","359739","0.0-13.0-1.8","19","Low_HMMActual","","","","","","null","","","","Images/BlackBeadChoice.png","","null"
"image-button-response","85","360256","0.0-13.0-2.8","19","Low_HMMActual","","","","","","null","","","","Images/BlackBeadChoiceCorrect.png","","null"
"image-button-response","86","360849","0.0-13.0-0.9","19","Low_HMMActual","","","","","","589.9000000003725","","","","Images/NewTrialBC.png","","0"
"image-button-response","87","361158","0.0-13.0-1.9","19","Low_HMMActual","","","","","","null","","","","Images/BlackBeadChoice.png","","null"
"image-button-response","88","361666","0.0-13.0-2.9","19","Low_HMMActual","","","","","","null","","","","Images/BlackBeadChoiceCorrect.png","","null"
"image-button-response","89","362118","0.0-13.0-0.10","19","Low_HMMActual","","","","","","449.30000000074506","","","","Images/NewTrialBC.png","","0"
"image-button-response","90","362423","0.0-13.0-1.10","19","Low_HMMActual","","","","","","null","","","","Images/BlackBeadChoice.png","","null"
"image-button-response","91","362929","0.0-13.0-2.10","19","Low_HMMActual","","","","","","null","","","","Images/BlackBeadChoiceWrong.png","","null"
"image-button-response","92","363588","0.0-13.0-0.11","19","Low_HMMActual","","","","","","656.5","","","","Images/NewTrialWC.png","","0"
"image-button-response","93","363904","0.0-13.0-1.11","19","Low_HMMActual","","","","","","null","","","","Images/BlackBeadChoice.png","","null"
"image-button-response","94","364425","0.0-13.0-2.11","19","Low_HMMActual","","","","","","null","","","","Images/BlackBeadChoiceCorrect.png","","null"
"image-button-response","95","364989","0.0-13.0-0.12","19","Low_HMMActual","","","","","","562.3000000007451","","","","Images/NewTrialBC.png","","0"
"image-button-response","96","365306","0.0-13.0-1.12","19","Low_HMMActual","","","","","","null","","","","Images/BlackBeadChoice.png","","null"
"image-button-response","97","365811","0.0-13.0-2.12","19","Low_HMMActual","","","","","","null","","","","Images/BlackBeadChoiceWrong.png","","null"
"image-button-response","98","366609","0.0-13.0-0.13","19","Low_HMMActual","","","","","","796.4000000003725","","","","Images/NewTrialWC.png","","0"
"image-button-response","99","366916","0.0-13.0-1.13","19","Low_HMMActual","","","","","","null","","","","Images/BlackBeadChoice.png","","null"
"image-button-response","100","367420","0.0-13.0-2.13","19","Low_HMMActual","","","","","","null","","","","Images/BlackBeadChoiceWrong.png","","null"
"image-button-response","101","368090","0.0-13.0-0.14","19","Low_HMMActual","","","","","","667.6000000014901","","","","Images/NewTrialWC.png","","2"
"image-button-response","102","368406","0.0-13.0-1.14","19","Low_HMMActual","","","","","","null","","","","Images/WhiteBeadChoice.png","","null"
"image-button-response","103","368914","0.0-13.0-2.14","19","Low_HMMActual","","","","","","null","","","","Images/WhiteBeadChoiceCorrect.png","","null"
"image-button-response","104","369404","0.0-13.0-0.15","19","Low_HMMActual","","","","","","486.90000000037253","","","","Images/NewTrialWC.png","","2"
"image-button-response","105","369713","0.0-13.0-1.15","19","Low_HMMActual","","","","","","null","","","","Images/WhiteBeadChoice.png","","null"
"image-button-response","106","370220","0.0-13.0-2.15","19","Low_HMMActual","","","","","","null","","","","Images/WhiteBeadChoiceCorrect.png","","null"
"image-button-response","107","370655","0.0-13.0-0.16","19","Low_HMMActual","","","","","","432","","","","Images/NewTrialWC.png","","2"
"image-button-response","108","370962","0.0-13.0-1.16","19","Low_HMMActual","","","","","","null","","","","Images/WhiteBeadChoice.png","","null"
"image-button-response","109","371470","0.0-13.0-2.16","19","Low_HMMActual","","","","","","null","","","","Images/WhiteBeadChoiceWrong.png","","null"
"image-button-response","110","372066","0.0-13.0-0.17","19","Low_HMMActual","","","","","","593.1000000014901","","","","Images/NewTrialBC.png","","2"
"image-button-response","111","372381","0.0-13.0-1.17","19","Low_HMMActual","","","","","","null","","","","Images/WhiteBeadChoice.png","","null"
"image-button-response","112","372884","0.0-13.0-2.17","19","Low_HMMActual","","","","","","null","","","","Images/WhiteBeadChoiceWrong.png","","null"
"image-button-response","113","373370","0.0-13.0-0.18","19","Low_HMMActual","","","","","","483.7999999988824","","","","Images/NewTrialBC.png","","0"
"image-button-response","114","373681","0.0-13.0-1.18","19","Low_HMMActual","","","","","","null","","","","Images/BlackBeadChoice.png","","null"
"image-button-response","115","374195","0.0-13.0-2.18","19","Low_HMMActual","","","","","","null","","","","Images/BlackBeadChoiceCorrect.png","","null"
"image-button-response","116","374545","0.0-13.0-0.19","19","Low_HMMActual","","","","","","347.5","","","","Images/NewTrialBC.png","","0"
"image-button-response","117","374855","0.0-13.0-1.19","19","Low_HMMActual","","","","","","null","","","","Images/BlackBeadChoice.png","","null"
"image-button-response","118","375360","0.0-13.0-2.19","19","Low_HMMActual","","","","","","null","","","","Images/BlackBeadChoiceCorrect.png","","null"
"image-button-response","119","375620","0.0-13.0-0.20","19","Low_HMMActual","","","","","","257.19999999925494","","","","Images/NewTrialBC.png","","0"
"image-button-response","120","375925","0.0-13.0-1.20","19","Low_HMMActual","","","","","","null","","","","Images/BlackBeadChoice.png","","null"
"image-button-response","121","376449","0.0-13.0-2.20","19","Low_HMMActual","","","","","","null","","","","Images/BlackBeadChoiceCorrect.png","","null"
"image-button-response","122","377536","0.0-13.0-0.21","19","Low_HMMActual","","","","","","1083.800000000745","","","","Images/NewTrialBC.png","","0"
"image-button-response","123","377841","0.0-13.0-1.21","19","Low_HMMActual","","","","","","null","","","","Images/BlackBeadChoice.png","","null"
"image-button-response","124","378356","0.0-13.0-2.21","19","Low_HMMActual","","","","","","null","","","","Images/BlackBeadChoiceWrong.png","","null"
"image-button-response","125","378991","0.0-13.0-0.22","19","Low_HMMActual","","","","","","632.7999999988824","","","","Images/NewTrialWC.png","","0"
"image-button-response","126","379303","0.0-13.0-1.22","19","Low_HMMActual","","","","","","null","","","","Images/BlackBeadChoice.png","","null"
"image-button-response","127","379819","0.0-13.0-2.22","19","Low_HMMActual","","","","","","null","","","","Images/BlackBeadChoiceCorrect.png","","null"
"image-button-response","128","380272","0.0-13.0-0.23","19","Low_HMMActual","","","","","","449.90000000037253","","","","Images/NewTrialBC.png","","0"
"image-button-response","129","380585","0.0-13.0-1.23","19","Low_HMMActual","","","","","","null","","","","Images/BlackBeadChoice.png","","null"
"image-button-response","130","381089","0.0-13.0-2.23","19","Low_HMMActual","","","","","","null","","","","Images/BlackBeadChoiceWrong.png","","null"
"image-button-response","131","381787","0.0-13.0-0.24","19","Low_HMMActual","","","","","","695.0999999996275","","","","Images/NewTrialWC.png","","0"
"image-button-response","132","382090","0.0-13.0-1.24","19","Low_HMMActual","","","","","","null","","","","Images/BlackBeadChoice.png","","null"
"image-button-response","133","382608","0.0-13.0-2.24","19","Low_HMMActual","","","","","","null","","","","Images/BlackBeadChoiceCorrect.png","","null"
"image-button-response","134","383152","0.0-13.0-0.25","19","Low_HMMActual","","","","","","541.5","","","","Images/NewTrialBC.png","","0"
"image-button-response","135","383460","0.0-13.0-1.25","19","Low_HMMActual","","","","","","null","","","","Images/BlackBeadChoice.png","","null"
"image-button-response","136","383966","0.0-13.0-2.25","19","Low_HMMActual","","","","","","null","","","","Images/BlackBeadChoiceWrong.png","","null"
"image-button-response","137","384483","0.0-13.0-0.26","19","Low_HMMActual","","","","","","514.4000000003725","","","","Images/NewTrialWC.png","","0"
"image-button-response","138","384805","0.0-13.0-1.26","19","Low_HMMActual","","","","","","null","","","","Images/BlackBeadChoice.png","","null"
"image-button-response","139","385308","0.0-13.0-2.26","19","Low_HMMActual","","","","","","null","","","","Images/BlackBeadChoiceCorrect.png","","null"
"image-button-response","140","385993","0.0-13.0-0.27","19","Low_HMMActual","","","","","","683.5999999996275","","","","Images/NewTrialBC.png","","0"
"image-button-response","141","386306","0.0-13.0-1.27","19","Low_HMMActual","","","","","","null","","","","Images/BlackBeadChoice.png","","null"
"image-button-response","142","386810","0.0-13.0-2.27","19","Low_HMMActual","","","","","","null","","","","Images/BlackBeadChoiceCorrect.png","","null"
"image-button-response","143","387263","0.0-13.0-0.28","19","Low_HMMActual","","","","","","451.69999999925494","","","","Images/NewTrialBC.png","","0"
"image-button-response","144","387579","0.0-13.0-1.28","19","Low_HMMActual","","","","","","null","","","","Images/BlackBeadChoice.png","","null"
"image-button-response","145","388084","0.0-13.0-2.28","19","Low_HMMActual","","","","","","null","","","","Images/BlackBeadChoiceWrong.png","","null"
"image-button-response","146","388549","0.0-13.0-0.29","19","Low_HMMActual","","","","","","462.90000000037253","","","","Images/NewTrialWC.png","","0"
"image-button-response","147","388856","0.0-13.0-1.29","19","Low_HMMActual","","","","","","null","","","","Images/BlackBeadChoice.png","","null"
"image-button-response","148","389359","0.0-13.0-2.29","19","Low_HMMActual","","","","","","null","","","","Images/BlackBeadChoiceCorrect.png","","null"
"image-button-response","149","389819","0.0-13.0-0.30","19","Low_HMMActual","","","","","","456","","","","Images/NewTrialBC.png","","0"
"image-button-response","150","390132","0.0-13.0-1.30","19","Low_HMMActual","","","","","","null","","","","Images/BlackBeadChoice.png","","null"
"image-button-response","151","390638","0.0-13.0-2.30","19","Low_HMMActual","","","","","","null","","","","Images/BlackBeadChoiceWrong.png","","null"
"image-button-response","152","391049","0.0-13.0-0.31","19","Low_HMMActual","","","","","","408.59999999962747","","","","Images/NewTrialWC.png","","0"
"image-button-response","153","391363","0.0-13.0-1.31","19","Low_HMMActual","","","","","","null","","","","Images/BlackBeadChoice.png","","null"
"image-button-response","154","391881","0.0-13.0-2.31","19","Low_HMMActual","","","","","","null","","","","Images/BlackBeadChoiceWrong.png","","null"
"image-button-response","155","392964","0.0-13.0-0.32","19","Low_HMMActual","","","","","","1080","","","","Images/NewTrialWC.png","","2"
"image-button-response","156","393267","0.0-13.0-1.32","19","Low_HMMActual","","","","","","null","","","","Images/WhiteBeadChoice.png","","null"
"image-button-response","157","393773","0.0-13.0-2.32","19","Low_HMMActual","","","","","","null","","","","Images/WhiteBeadChoiceCorrect.png","","null"
"image-button-response","158","394164","0.0-13.0-0.33","19","Low_HMMActual","","","","","","387.09999999962747","","","","Images/NewTrialWC.png","","2"
"image-button-response","159","394467","0.0-13.0-1.33","19","Low_HMMActual","","","","","","null","","","","Images/WhiteBeadChoice.png","","null"
"image-button-response","160","394975","0.0-13.0-2.33","19","Low_HMMActual","","","","","","504.7000000011176","","","","Images/WhiteBeadChoiceCorrect.png","","2"
"image-button-response","161","395791","0.0-13.0-0.34","19","Low_HMMActual","","","","","","813.8000000007451","","","","Images/NewTrialWC.png","","2"
"image-button-response","162","396099","0.0-13.0-1.34","19","Low_HMMActual","","","","","","null","","","","Images/WhiteBeadChoice.png","","null"
"image-button-response","163","396604","0.0-13.0-2.34","19","Low_HMMActual","","","","","","null","","","","Images/WhiteBeadChoiceWrong.png","","null"
"image-button-response","164","397375","0.0-13.0-0.35","19","Low_HMMActual","","","","","","768.4000000003725","","","","Images/NewTrialBC.png","","0"
"image-button-response","165","397685","0.0-13.0-1.35","19","Low_HMMActual","","","","","","null","","","","Images/BlackBeadChoice.png","","null"
"image-button-response","166","398191","0.0-13.0-2.35","19","Low_HMMActual","","","","","","null","","","","Images/BlackBeadChoiceWrong.png","","null"
"image-button-response","167","399620","0.0-13.0-0.36","19","Low_HMMActual","","","","","","1425.7999999988824","","","","Images/NewTrialWC.png","","0"
"image-button-response","168","399933","0.0-13.0-1.36","19","Low_HMMActual","","","","","","null","","","","Images/BlackBeadChoice.png","","null"
"image-button-response","169","400438","0.0-13.0-2.36","19","Low_HMMActual","","","","","","null","","","","Images/BlackBeadChoiceCorrect.png","","null"
"image-button-response","170","400900","0.0-13.0-0.37","19","Low_HMMActual","","","","","","458.7999999988824","","","","Images/NewTrialBC.png","","0"
"image-button-response","171","401210","0.0-13.0-1.37","19","Low_HMMActual","","","","","","null","","","","Images/BlackBeadChoice.png","","null"
"image-button-response","172","401725","0.0-13.0-2.37","19","Low_HMMActual","","","","","","null","","","","Images/BlackBeadChoiceCorrect.png","","null"
"image-button-response","173","402164","0.0-13.0-0.38","19","Low_HMMActual","","","","","","436.5","","","","Images/NewTrialBC.png","","0"
"image-button-response","174","402478","0.0-13.0-1.38","19","Low_HMMActual","","","","","","null","","","","Images/BlackBeadChoice.png","","null"
"image-button-response","175","402982","0.0-13.0-2.38","19","Low_HMMActual","","","","","","null","","","","Images/BlackBeadChoiceCorrect.png","","null"
"image-button-response","176","403431","0.0-13.0-0.39","19","Low_HMMActual","","","","","","446.69999999925494","","","","Images/NewTrialBC.png","","0"
"image-button-response","177","403748","0.0-13.0-1.39","19","Low_HMMActual","","","","","","null","","","","Images/BlackBeadChoice.png","","null"
"image-button-response","178","404253","0.0-13.0-2.39","19","Low_HMMActual","","","","","","null","","","","Images/BlackBeadChoiceWrong.png","","null"
"image-button-response","179","404686","0.0-13.0-0.40","19","Low_HMMActual","","","","","","430.5","","","","Images/NewTrialWC.png","","0"
"image-button-response","180","404994","0.0-13.0-1.40","19","Low_HMMActual","","","","","","null","","","","Images/BlackBeadChoice.png","","null"
"image-button-response","181","405497","0.0-13.0-2.40","19","Low_HMMActual","","","","","","null","","","","Images/BlackBeadChoiceWrong.png","","null"
"image-button-response","182","406007","0.0-13.0-0.41","19","Low_HMMActual","","","","","","508.30000000074506","","","","Images/NewTrialWC.png","","2"
"image-button-response","183","406320","0.0-13.0-1.41","19","Low_HMMActual","","","","","","null","","","","Images/WhiteBeadChoice.png","","null"
"image-button-response","184","406838","0.0-13.0-2.41","19","Low_HMMActual","","","","","","null","","","","Images/WhiteBeadChoiceCorrect.png","","null"
"image-button-response","185","407167","0.0-13.0-0.42","19","Low_HMMActual","","","","","","326.69999999925494","","","","Images/NewTrialWC.png","","2"
"image-button-response","186","407482","0.0-13.0-1.42","19","Low_HMMActual","","","","","","null","","","","Images/WhiteBeadChoice.png","","null"
"image-button-response","187","407984","0.0-13.0-2.42","19","Low_HMMActual","","","","","","null","","","","Images/WhiteBeadChoiceWrong.png","","null"
"image-button-response","188","408987","0.0-13.0-0.43","19","Low_HMMActual","","","","","","1000.0999999996275","","","","Images/NewTrialBC.png","","2"
"image-button-response","189","409291","0.0-13.0-1.43","19","Low_HMMActual","","","","","","null","","","","Images/WhiteBeadChoice.png","","null"
"image-button-response","190","409810","0.0-13.0-2.43","19","Low_HMMActual","","","","","","null","","","","Images/WhiteBeadChoiceCorrect.png","","null"
"image-button-response","191","410213","0.0-13.0-0.44","19","Low_HMMActual","","","","","","381.59999999962747","","","","Images/NewTrialWC.png","","2"
"image-button-response","192","410521","0.0-13.0-1.44","19","Low_HMMActual","","","","","","null","","","","Images/WhiteBeadChoice.png","","null"
"image-button-response","193","411027","0.0-13.0-2.44","19","Low_HMMActual","","","","","","null","","","","Images/WhiteBeadChoiceWrong.png","","null"
"image-button-response","194","411428","0.0-13.0-0.45","19","Low_HMMActual","","","","","","398.5","","","","Images/NewTrialBC.png","","2"
"image-button-response","195","411731","0.0-13.0-1.45","19","Low_HMMActual","","","","","","null","","","","Images/WhiteBeadChoice.png","","null"
"image-button-response","196","412236","0.0-13.0-2.45","19","Low_HMMActual","","","","","","null","","","","Images/WhiteBeadChoiceWrong.png","","null"
"image-button-response","197","412807","0.0-13.0-0.46","19","Low_HMMActual","","","","","","568.4000000003725","","","","Images/NewTrialBC.png","","0"
"image-button-response","198","413112","0.0-13.0-1.46","19","Low_HMMActual","","","","","","null","","","","Images/BlackBeadChoice.png","","null"
"image-button-response","199","413615","0.0-13.0-2.46","19","Low_HMMActual","","","","","","null","","","","Images/BlackBeadChoiceWrong.png","","null"
"image-button-response","200","414123","0.0-13.0-0.47","19","Low_HMMActual","","","","","","504.7999999988824","","","","Images/NewTrialWC.png","","0"
"image-button-response","201","414430","0.0-13.0-1.47","19","Low_HMMActual","","","","","","null","","","","Images/BlackBeadChoice.png","","null"
"image-button-response","202","414945","0.0-13.0-2.47","19","Low_HMMActual","","","","","","null","","","","Images/BlackBeadChoiceWrong.png","","null"
"image-button-response","203","415719","0.0-13.0-0.48","19","Low_HMMActual","","","","","","770.7999999988824","","","","Images/NewTrialWC.png","","2"
"image-button-response","204","416021","0.0-13.0-1.48","19","Low_HMMActual","","","","","","null","","","","Images/WhiteBeadChoice.png","","null"
"image-button-response","205","416525","0.0-13.0-2.48","19","Low_HMMActual","","","","","","null","","","","Images/WhiteBeadChoiceCorrect.png","","null"
"image-button-response","206","416849","0.0-13.0-0.49","19","Low_HMMActual","","","","","","321.40000000037253","","","","Images/NewTrialWC.png","","2"
"image-button-response","207","417153","0.0-13.0-1.49","19","Low_HMMActual","","","","","","null","","","","Images/WhiteBeadChoice.png","","null"
"image-button-response","208","417665","0.0-13.0-2.49","19","Low_HMMActual","","","","","","null","","","","Images/WhiteBeadChoiceCorrect.png","","null"
"image-button-response","209","417934","0.0-13.0-0.50","19","Low_HMMActual","","","","","","265.5","","","","Images/NewTrialWC.png","","2"
"image-button-response","210","418243","0.0-13.0-1.50","19","Low_HMMActual","","","","","","null","","","","Images/WhiteBeadChoice.png","","null"
"image-button-response","211","418748","0.0-13.0-2.50","19","Low_HMMActual","","","","","","null","","","","Images/WhiteBeadChoiceWrong.png","","null"
"image-button-response","212","419144","0.0-13.0-0.51","19","Low_HMMActual","","","","","","394","","","","Images/NewTrialBC.png","","2"
"image-button-response","213","419454","0.0-13.0-1.51","19","Low_HMMActual","","","","","","null","","","","Images/WhiteBeadChoice.png","","null"
"image-button-response","214","419957","0.0-13.0-2.51","19","Low_HMMActual","","","","","","null","","","","Images/WhiteBeadChoiceWrong.png","","null"
"image-button-response","215","420570","0.0-13.0-0.52","19","Low_HMMActual","","","","","","610","","","","Images/NewTrialBC.png","","0"
"image-button-response","216","420883","0.0-13.0-1.52","19","Low_HMMActual","","","","","","null","","","","Images/BlackBeadChoice.png","","null"
"image-button-response","217","421399","0.0-13.0-2.52","19","Low_HMMActual","","","","","","null","","","","Images/BlackBeadChoiceCorrect.png","","null"
"image-button-response","218","421635","0.0-13.0-0.53","19","Low_HMMActual","","","","","","233.40000000037253","","","","Images/NewTrialBC.png","","0"
"image-button-response","219","421950","0.0-13.0-1.53","19","Low_HMMActual","","","","","","null","","","","Images/BlackBeadChoice.png","","null"
"image-button-response","220","422468","0.0-13.0-2.53","19","Low_HMMActual","","","","","","null","","","","Images/BlackBeadChoiceWrong.png","","null"
"image-button-response","221","422805","0.0-13.0-0.54","19","Low_HMMActual","","","","","","334.19999999925494","","","","Images/NewTrialWC.png","","0"
"image-button-response","222","423115","0.0-13.0-1.54","19","Low_HMMActual","","","","","","null","","","","Images/BlackBeadChoice.png","","null"
"image-button-response","223","423624","0.0-13.0-2.54","19","Low_HMMActual","","","","","","null","","","","Images/BlackBeadChoiceCorrect.png","","null"
"image-button-response","224","423970","0.0-13.0-0.55","19","Low_HMMActual","","","","","","344","","","","Images/NewTrialBC.png","","0"
"image-button-response","225","424285","0.0-13.0-1.55","19","Low_HMMActual","","","","","","null","","","","Images/BlackBeadChoice.png","","null"
"image-button-response","226","424790","0.0-13.0-2.55","19","Low_HMMActual","","","","","","null","","","","Images/BlackBeadChoiceCorrect.png","","null"
"image-button-response","227","424926","0.0-13.0-0.56","19","Low_HMMActual","","","","","","129.69999999925494","","","","Images/NewTrialBC.png","","0"
"image-button-response","228","425230","0.0-13.0-1.56","19","Low_HMMActual","","","","","","null","","","","Images/BlackBeadChoice.png","","null"
"image-button-response","229","425735","0.0-13.0-2.56","19","Low_HMMActual","","","","","","null","","","","Images/BlackBeadChoiceCorrect.png","","null"
"image-button-response","230","425866","0.0-13.0-0.57","19","Low_HMMActual","","","","","","129.39999999850988","","","","Images/NewTrialBC.png","","0"
"image-button-response","231","426173","0.0-13.0-1.57","19","Low_HMMActual","","","","","","null","","","","Images/BlackBeadChoice.png","","null"
"image-button-response","232","426676","0.0-13.0-2.57","19","Low_HMMActual","","","","","","null","","","","Images/BlackBeadChoiceCorrect.png","","null"
"image-button-response","233","427437","0.0-13.0-0.58","19","Low_HMMActual","","","","","","757.5999999996275","","","","Images/NewTrialBC.png","","0"
"image-button-response","234","427743","0.0-13.0-1.58","19","Low_HMMActual","","","","","","null","","","","Images/BlackBeadChoice.png","","null"
"image-button-response","235","428258","0.0-13.0-2.58","19","Low_HMMActual","","","","","","null","","","","Images/BlackBeadChoiceCorrect.png","","null"
"image-button-response","236","428812","0.0-13.0-0.59","19","Low_HMMActual","","","","","","550","","","","Images/NewTrialBC.png","","0"
"image-button-response","237","429135","0.0-13.0-1.59","19","Low_HMMActual","","","","","","null","","","","Images/BlackBeadChoice.png","","null"
"image-button-response","238","429638","0.0-13.0-2.59","19","Low_HMMActual","","","","","","null","","","","Images/BlackBeadChoiceWrong.png","","null"
"image-button-response","239","430313","0.0-13.0-0.60","19","Low_HMMActual","","","","","","672.5999999996275","","","","Images/NewTrialWC.png","","0"
"image-button-response","240","430628","0.0-13.0-1.60","19","Low_HMMActual","","","","","","null","","","","Images/BlackBeadChoice.png","","null"
"image-button-response","241","431140","0.0-13.0-2.60","19","Low_HMMActual","","","","","","null","","","","Images/BlackBeadChoiceWrong.png","","null"
"image-button-response","242","431948","0.0-13.0-0.61","19","Low_HMMActual","","","","","","804.5","","","","Images/NewTrialWC.png","","2"
"image-button-response","243","432251","0.0-13.0-1.61","19","Low_HMMActual","","","","","","null","","","","Images/WhiteBeadChoice.png","","null"
"image-button-response","244","432756","0.0-13.0-2.61","19","Low_HMMActual","","","","","","null","","","","Images/WhiteBeadChoiceCorrect.png","","null"
"image-button-response","245","433178","0.0-13.0-0.62","19","Low_HMMActual","","","","","","419.1000000014901","","","","Images/NewTrialWC.png","","2"
"image-button-response","246","433495","0.0-13.0-1.62","19","Low_HMMActual","","","","","","null","","","","Images/WhiteBeadChoice.png","","null"
"image-button-response","247","434000","0.0-13.0-2.62","19","Low_HMMActual","","","","","","null","","","","Images/WhiteBeadChoiceWrong.png","","null"
"image-button-response","248","434933","0.0-13.0-0.63","19","Low_HMMActual","","","","","","932.3000000007451","","","","Images/NewTrialBC.png","","0"
"image-button-response","249","435242","0.0-13.0-1.63","19","Low_HMMActual","","","","","","null","","","","Images/BlackBeadChoice.png","","null"
"image-button-response","250","435757","0.0-13.0-2.63","19","Low_HMMActual","","","","","","null","","","","Images/BlackBeadChoiceCorrect.png","","null"
"image-button-response","251","436219","0.0-13.0-0.64","19","Low_HMMActual","","","","","","459.40000000037253","","","","Images/NewTrialBC.png","","0"
"image-button-response","252","436540","0.0-13.0-1.64","19","Low_HMMActual","","","","","","null","","","","Images/BlackBeadChoice.png","","null"
"image-button-response","253","437042","0.0-13.0-2.64","19","Low_HMMActual","","","","","","null","","","","Images/BlackBeadChoiceWrong.png","","null"
"image-button-response","254","438195","0.0-13.0-0.65","19","Low_HMMActual","","","","","","1150.300000000745","","","","Images/NewTrialWC.png","","0"
"image-button-response","255","438503","0.0-13.0-1.65","19","Low_HMMActual","","","","","","null","","","","Images/BlackBeadChoice.png","","null"
"image-button-response","256","439006","0.0-13.0-2.65","19","Low_HMMActual","","","","","","null","","","","Images/BlackBeadChoiceCorrect.png","","null"
"image-button-response","257","439680","0.0-13.0-0.66","19","Low_HMMActual","","","","","","670.6999999992549","","","","Images/NewTrialBC.png","","0"
"image-button-response","258","439991","0.0-13.0-1.66","19","Low_HMMActual","","","","","","null","","","","Images/BlackBeadChoice.png","","null"
"image-button-response","259","440505","0.0-13.0-2.66","19","Low_HMMActual","","","","","","null","","","","Images/BlackBeadChoiceCorrect.png","","null"
"image-button-response","260","440966","0.0-13.0-0.67","19","Low_HMMActual","","","","","","437.90000000037253","","","","Images/NewTrialBC.png","","0"
"image-button-response","261","441280","0.0-13.0-1.67","19","Low_HMMActual","","","","","","null","","","","Images/BlackBeadChoice.png","","null"
"image-button-response","262","441786","0.0-13.0-2.67","19","Low_HMMActual","","","","","","null","","","","Images/BlackBeadChoiceCorrect.png","","null"
"image-button-response","263","442166","0.0-13.0-0.68","19","Low_HMMActual","","","","","","376.69999999925494","","","","Images/NewTrialBC.png","","0"
"image-button-response","264","442478","0.0-13.0-1.68","19","Low_HMMActual","","","","","","null","","","","Images/BlackBeadChoice.png","","null"
"image-button-response","265","442982","0.0-13.0-2.68","19","Low_HMMActual","","","","","","null","","","","Images/BlackBeadChoiceWrong.png","","null"
"image-button-response","266","443736","0.0-13.0-0.69","19","Low_HMMActual","","","","","","751.6999999992549","","","","Images/NewTrialWC.png","","2"
"image-button-response","267","444046","0.0-13.0-1.69","19","Low_HMMActual","","","","","","null","","","","Images/WhiteBeadChoice.png","","null"
"image-button-response","268","444552","0.0-13.0-2.69","19","Low_HMMActual","","","","","","null","","","","Images/WhiteBeadChoiceWrong.png","","null"
"image-button-response","269","445237","0.0-13.0-0.70","19","Low_HMMActual","","","","","","682.2999999988824","","","","Images/NewTrialBC.png","","0"
"image-button-response","270","445539","0.0-13.0-1.70","19","Low_HMMActual","","","","","","null","","","","Images/BlackBeadChoice.png","","null"
"image-button-response","271","446041","0.0-13.0-2.70","19","Low_HMMActual","","","","","","null","","","","Images/BlackBeadChoiceWrong.png","","null"
"image-button-response","272","446927","0.0-13.0-0.71","19","Low_HMMActual","","","","","","883.4000000003725","","","","Images/NewTrialWC.png","","2"
"image-button-response","273","447235","0.0-13.0-1.71","19","Low_HMMActual","","","","","","null","","","","Images/WhiteBeadChoice.png","","null"
"image-button-response","274","447739","0.0-13.0-2.71","19","Low_HMMActual","","","","","","null","","","","Images/WhiteBeadChoiceWrong.png","","null"
"image-button-response","275","450398","0.0-13.0-0.72","19","Low_HMMActual","","","","","","2657.0999999996275","","","","Images/NewTrialBC.png","","2"
"image-button-response","276","450711","0.0-13.0-1.72","19","Low_HMMActual","","","","","","null","","","","Images/WhiteBeadChoice.png","","null"
"image-button-response","277","451215","0.0-13.0-2.72","19","Low_HMMActual","","","","","","null","","","","Images/WhiteBeadChoiceWrong.png","","null"
"image-button-response","278","451812","0.0-13.0-0.73","19","Low_HMMActual","","","","","","594.5","","","","Images/NewTrialBC.png","","0"
"image-button-response","279","452114","0.0-13.0-1.73","19","Low_HMMActual","","","","","","null","","","","Images/BlackBeadChoice.png","","null"
"image-button-response","280","452632","0.0-13.0-2.73","19","Low_HMMActual","","","","","","null","","","","Images/BlackBeadChoiceCorrect.png","","null"
"image-button-response","281","453013","0.0-13.0-0.74","19","Low_HMMActual","","","","","","379","","","","Images/NewTrialBC.png","","0"
"image-button-response","282","453321","0.0-13.0-1.74","19","Low_HMMActual","","","","","","null","","","","Images/BlackBeadChoice.png","","null"
"image-button-response","283","453825","0.0-13.0-2.74","19","Low_HMMActual","","","","","","null","","","","Images/BlackBeadChoiceCorrect.png","","null"
"image-button-response","284","454269","0.0-13.0-0.75","19","Low_HMMActual","","","","","","438.69999999925494","","","","Images/NewTrialBC.png","","0"
"image-button-response","285","454585","0.0-13.0-1.75","19","Low_HMMActual","","","","","","null","","","","Images/BlackBeadChoice.png","","null"
"image-button-response","286","455106","0.0-13.0-2.75","19","Low_HMMActual","","","","","","null","","","","Images/BlackBeadChoiceCorrect.png","","null"
"image-button-response","287","455484","0.0-13.0-0.76","19","Low_HMMActual","","","","","","374.90000000037253","","","","Images/NewTrialBC.png","","0"
"image-button-response","288","455801","0.0-13.0-1.76","19","Low_HMMActual","","","","","","null","","","","Images/BlackBeadChoice.png","","null"
"image-button-response","289","456305","0.0-13.0-2.76","19","Low_HMMActual","","","","","","null","","","","Images/BlackBeadChoiceCorrect.png","","null"
"image-button-response","290","456624","0.0-13.0-0.77","19","Low_HMMActual","","","","","","317","","","","Images/NewTrialBC.png","","0"
"image-button-response","291","456934","0.0-13.0-1.77","19","Low_HMMActual","","","","","","null","","","","Images/BlackBeadChoice.png","","null"
"image-button-response","292","457437","0.0-13.0-2.77","19","Low_HMMActual","","","","","","null","","","","Images/BlackBeadChoiceWrong.png","","null"
"image-button-response","293","458660","0.0-13.0-0.78","19","Low_HMMActual","","","","","","1220.300000000745","","","","Images/NewTrialWC.png","","2"
"image-button-response","294","458962","0.0-13.0-1.78","19","Low_HMMActual","","","","","","null","","","","Images/WhiteBeadChoice.png","","null"
"image-button-response","295","459464","0.0-13.0-2.78","19","Low_HMMActual","","","","","","null","","","","Images/WhiteBeadChoiceWrong.png","","null"
"image-button-response","296","460015","0.0-13.0-0.79","19","Low_HMMActual","","","","","","547.9000000003725","","","","Images/NewTrialBC.png","","0"
"image-button-response","297","460328","0.0-13.0-1.79","19","Low_HMMActual","","","","","","null","","","","Images/BlackBeadChoice.png","","null"
"image-button-response","298","460833","0.0-13.0-2.79","19","Low_HMMActual","","","","","","null","","","","Images/BlackBeadChoiceCorrect.png","","null"
"image-button-response","299","461016","0.0-13.0-0.80","19","Low_HMMActual","","","","","","179.69999999925494","","","","Images/NewTrialBC.png","","0"
"image-button-response","300","461333","0.0-13.0-1.80","19","Low_HMMActual","","","","","","null","","","","Images/BlackBeadChoice.png","","null"
"image-button-response","301","461850","0.0-13.0-2.80","19","Low_HMMActual","","","","","","null","","","","Images/BlackBeadChoiceWrong.png","","null"
"image-button-response","302","462371","0.0-13.0-0.81","19","Low_HMMActual","","","","","","516.6999999992549","","","","Images/NewTrialWC.png","","0"
"image-button-response","303","462685","0.0-13.0-1.81","19","Low_HMMActual","","","","","","null","","","","Images/BlackBeadChoice.png","","null"
"image-button-response","304","463189","0.0-13.0-2.81","19","Low_HMMActual","","","","","","null","","","","Images/BlackBeadChoiceWrong.png","","null"
"image-button-response","305","463666","0.0-13.0-0.82","19","Low_HMMActual","","","","","","474.90000000037253","","","","Images/NewTrialWC.png","","2"
"image-button-response","306","463970","0.0-13.0-1.82","19","Low_HMMActual","","","","","","null","","","","Images/WhiteBeadChoice.png","","null"
"image-button-response","307","464473","0.0-13.0-2.82","19","Low_HMMActual","","","","","","null","","","","Images/WhiteBeadChoiceWrong.png","","null"
"image-button-response","308","465082","0.0-13.0-0.83","19","Low_HMMActual","","","","","","602.6999999992549","","","","Images/NewTrialBC.png","","2"
"image-button-response","309","465384","0.0-13.0-1.83","19","Low_HMMActual","","","","","","null","","","","Images/WhiteBeadChoice.png","","null"
"image-button-response","310","465887","0.0-13.0-2.83","19","Low_HMMActual","","","","","","null","","","","Images/WhiteBeadChoiceWrong.png","","null"
"image-button-response","311","466176","0.0-13.0-0.84","19","Low_HMMActual","","","","","","287.30000000074506","","","","Images/NewTrialBC.png","","0"
"image-button-response","312","466487","0.0-13.0-1.84","19","Low_HMMActual","","","","","","null","","","","Images/BlackBeadChoice.png","","null"
"image-button-response","313","466990","0.0-13.0-2.84","19","Low_HMMActual","","","","","","null","","","","Images/BlackBeadChoiceCorrect.png","","null"
"image-button-response","314","468411","0.0-13.0-0.85","19","Low_HMMActual","","","","","","1417.800000000745","","","","Images/NewTrialBC.png","","2"
"image-button-response","315","468715","0.0-13.0-1.85","19","Low_HMMActual","","","","","","null","","","","Images/WhiteBeadChoice.png","","null"
"image-button-response","316","469221","0.0-13.0-2.85","19","Low_HMMActual","","","","","","null","","","","Images/WhiteBeadChoiceWrong.png","","null"
"image-button-response","317","470522","0.0-13.0-0.86","19","Low_HMMActual","","","","","","1298.9000000003725","","","","Images/NewTrialBC.png","","0"
"image-button-response","318","470824","0.0-13.0-1.86","19","Low_HMMActual","","","","","","null","","","","Images/BlackBeadChoice.png","","null"
"image-button-response","319","471332","0.0-13.0-2.86","19","Low_HMMActual","","","","","","null","","","","Images/BlackBeadChoiceWrong.png","","null"
"image-button-response","320","473048","0.0-13.0-0.87","19","Low_HMMActual","","","","","","1713.699999999255","","","","Images/NewTrialWC.png","","0"
"image-button-response","321","473364","0.0-13.0-1.87","19","Low_HMMActual","","","","","","null","","","","Images/BlackBeadChoice.png","","null"
"image-button-response","322","473867","0.0-13.0-2.87","19","Low_HMMActual","","","","","","null","","","","Images/BlackBeadChoiceWrong.png","","null"
"image-button-response","323","474283","0.0-13.0-0.88","19","Low_HMMActual","","","","","","412.80000000074506","","","","Images/NewTrialWC.png","","2"
"image-button-response","324","474587","0.0-13.0-1.88","19","Low_HMMActual","","","","","","null","","","","Images/WhiteBeadChoice.png","","null"
"image-button-response","325","475093","0.0-13.0-2.88","19","Low_HMMActual","","","","","","null","","","","Images/WhiteBeadChoiceCorrect.png","","null"
"image-button-response","326","475768","0.0-13.0-0.89","19","Low_HMMActual","","","","","","660.0999999996275","","","","Images/NewTrialWC.png","","2"
"image-button-response","327","476073","0.0-13.0-1.89","19","Low_HMMActual","","","","","","null","","","","Images/WhiteBeadChoice.png","","null"
"image-button-response","328","476576","0.0-13.0-2.89","19","Low_HMMActual","","","","","","null","","","","Images/WhiteBeadChoiceWrong.png","","null"
"image-button-response","329","477804","0.0-13.0-0.90","19","Low_HMMActual","","","","","","1225.699999999255","","","","Images/NewTrialBC.png","","2"
"image-button-response","330","478117","0.0-13.0-1.90","19","Low_HMMActual","","","","","","null","","","","Images/WhiteBeadChoice.png","","null"
"image-button-response","331","478621","0.0-13.0-2.90","19","Low_HMMActual","","","","","","null","","","","Images/WhiteBeadChoiceWrong.png","","null"
"image-button-response","332","478964","0.0-13.0-0.91","19","Low_HMMActual","","","","","","339.90000000037253","","","","Images/NewTrialBC.png","","0"
"image-button-response","333","479277","0.0-13.0-1.91","19","Low_HMMActual","","","","","","null","","","","Images/BlackBeadChoice.png","","null"
"image-button-response","334","479782","0.0-13.0-2.91","19","Low_HMMActual","","","","","","null","","","","Images/BlackBeadChoiceCorrect.png","","null"
"image-button-response","335","480239","0.0-13.0-0.92","19","Low_HMMActual","","","","","","454.19999999925494","","","","Images/NewTrialBC.png","","0"
"image-button-response","336","480552","0.0-13.0-1.92","19","Low_HMMActual","","","","","","null","","","","Images/BlackBeadChoice.png","","null"
"image-button-response","337","481057","0.0-13.0-2.92","19","Low_HMMActual","","","","","","null","","","","Images/BlackBeadChoiceWrong.png","","null"
"image-button-response","338","482000","0.0-13.0-0.93","19","Low_HMMActual","","","","","","937.0999999996275","","","","Images/NewTrialWC.png","","0"
"image-button-response","339","482322","0.0-13.0-1.93","19","Low_HMMActual","","","","","","null","","","","Images/BlackBeadChoice.png","","null"
"image-button-response","340","482825","0.0-13.0-2.93","19","Low_HMMActual","","","","","","null","","","","Images/BlackBeadChoiceWrong.png","","null"
"image-button-response","341","483225","0.0-13.0-0.94","19","Low_HMMActual","","","","","","398.09999999962747","","","","Images/NewTrialWC.png","","2"
"image-button-response","342","483536","0.0-13.0-1.94","19","Low_HMMActual","","","","","","null","","","","Images/WhiteBeadChoice.png","","null"
"image-button-response","343","484040","0.0-13.0-2.94","19","Low_HMMActual","","","","","","null","","","","Images/WhiteBeadChoiceWrong.png","","null"
"image-button-response","344","484925","0.0-13.0-0.95","19","Low_HMMActual","","","","","","883.1999999992549","","","","Images/NewTrialBC.png","","2"
"image-button-response","345","485231","0.0-13.0-1.95","19","Low_HMMActual","","","","","","null","","","","Images/WhiteBeadChoice.png","","null"
"image-button-response","346","485737","0.0-13.0-2.95","19","Low_HMMActual","","","","","","null","","","","Images/WhiteBeadChoiceWrong.png","","null"
"image-button-response","347","486086","0.0-13.0-0.96","19","Low_HMMActual","","","","","","347","","","","Images/NewTrialBC.png","","0"
"image-button-response","348","486393","0.0-13.0-1.96","19","Low_HMMActual","","","","","","null","","","","Images/BlackBeadChoice.png","","null"
"image-button-response","349","486910","0.0-13.0-2.96","19","Low_HMMActual","","","","","","null","","","","Images/BlackBeadChoiceCorrect.png","","null"
"image-button-response","350","487246","0.0-13.0-0.97","19","Low_HMMActual","","","","","","334.59999999962747","","","","Images/NewTrialBC.png","","0"
"image-button-response","351","487563","0.0-13.0-1.97","19","Low_HMMActual","","","","","","null","","","","Images/BlackBeadChoice.png","","null"
"image-button-response","352","488071","0.0-13.0-2.97","19","Low_HMMActual","","","","","","null","","","","Images/BlackBeadChoiceCorrect.png","","null"
"image-button-response","353","488376","0.0-13.0-0.98","19","Low_HMMActual","","","","","","299.69999999925494","","","","Images/NewTrialBC.png","","0"
"image-button-response","354","488694","0.0-13.0-1.98","19","Low_HMMActual","","","","","","null","","","","Images/BlackBeadChoice.png","","null"
"image-button-response","355","489196","0.0-13.0-2.98","19","Low_HMMActual","","","","","","null","","","","Images/BlackBeadChoiceWrong.png","","null"
"image-button-response","356","489902","0.0-13.0-0.99","19","Low_HMMActual","","","","","","704.1999999992549","","","","Images/NewTrialWC.png","","0"
"image-button-response","357","490204","0.0-13.0-1.99","19","Low_HMMActual","","","","","","null","","","","Images/BlackBeadChoice.png","","null"
"image-button-response","358","490707","0.0-13.0-2.99","19","Low_HMMActual","","","","","","null","","","","Images/BlackBeadChoiceCorrect.png","","null"
"image-button-response","359","491197","0.0-13.0-0.100","19","Low_HMMActual","","","","","","488","","","","Images/NewTrialBC.png","","0"
"image-button-response","360","491511","0.0-13.0-1.100","19","Low_HMMActual","","","","","","null","","","","Images/BlackBeadChoice.png","","null"
"image-button-response","361","492015","0.0-13.0-2.100","19","Low_HMMActual","","","","","","null","","","","Images/BlackBeadChoiceWrong.png","","null"
"image-button-response","362","492547","0.0-13.0-0.101","19","Low_HMMActual","","","","","","529.0999999996275","","","","Images/NewTrialWC.png","","0"
"image-button-response","363","492857","0.0-13.0-1.101","19","Low_HMMActual","","","","","","null","","","","Images/BlackBeadChoice.png","","null"
"image-button-response","364","493360","0.0-13.0-2.101","19","Low_HMMActual","","","","","","null","","","","Images/BlackBeadChoiceWrong.png","","null"
"image-button-response","365","493813","0.0-13.0-0.102","19","Low_HMMActual","","","","","","451","","","","Images/NewTrialWC.png","","2"
"image-button-response","366","494115","0.0-13.0-1.102","19","Low_HMMActual","","","","","","null","","","","Images/WhiteBeadChoice.png","","null"
"image-button-response","367","494632","0.0-13.0-2.102","19","Low_HMMActual","","","","","","null","","","","Images/WhiteBeadChoiceCorrect.png","","null"
"image-button-response","368","495863","0.0-13.0-0.103","19","Low_HMMActual","","","","","","1227.7000000011176","","","","Images/NewTrialWC.png","","2"
"image-button-response","369","496165","0.0-13.0-1.103","19","Low_HMMActual","","","","","","null","","","","Images/WhiteBeadChoice.png","","null"
"image-button-response","370","496671","0.0-13.0-2.103","19","Low_HMMActual","","","","","","null","","","","Images/WhiteBeadChoiceWrong.png","","null"
"image-button-response","371","497145","0.0-13.0-0.104","19","Low_HMMActual","","","","","","470.80000000074506","","","","Images/NewTrialBC.png","","2"
"image-button-response","372","497459","0.0-13.0-1.104","19","Low_HMMActual","","","","","","null","","","","Images/WhiteBeadChoice.png","","null"
"image-button-response","373","497966","0.0-13.0-2.104","19","Low_HMMActual","","","","","","null","","","","Images/WhiteBeadChoiceCorrect.png","","null"
"image-button-response","374","498459","0.0-13.0-0.105","19","Low_HMMActual","","","","","","489.90000000037253","","","","Images/NewTrialWC.png","","2"
"image-button-response","375","498766","0.0-13.0-1.105","19","Low_HMMActual","","","","","","null","","","","Images/WhiteBeadChoice.png","","null"
"image-button-response","376","499282","0.0-13.0-2.105","19","Low_HMMActual","","","","","","null","","","","Images/WhiteBeadChoiceCorrect.png","","null"
"image-button-response","377","499739","0.0-13.0-0.106","19","Low_HMMActual","","","","","","454.40000000037253","","","","Images/NewTrialWC.png","","2"
"image-button-response","378","500045","0.0-13.0-1.106","19","Low_HMMActual","","","","","","null","","","","Images/WhiteBeadChoice.png","","null"
"image-button-response","379","500561","0.0-13.0-2.106","19","Low_HMMActual","","","","","","null","","","","Images/WhiteBeadChoiceCorrect.png","","null"
"image-button-response","380","501094","0.0-13.0-0.107","19","Low_HMMActual","","","","","","525.6999999992549","","","","Images/NewTrialWC.png","","2"
"image-button-response","381","501406","0.0-13.0-1.107","19","Low_HMMActual","","","","","","null","","","","Images/WhiteBeadChoice.png","","null"
"image-button-response","382","501921","0.0-13.0-2.107","19","Low_HMMActual","","","","","","null","","","","Images/WhiteBeadChoiceCorrect.png","","null"
"image-button-response","383","502420","0.0-13.0-0.108","19","Low_HMMActual","","","","","","495.90000000037253","","","","Images/NewTrialWC.png","","2"
"image-button-response","384","502739","0.0-13.0-1.108","19","Low_HMMActual","","","","","","null","","","","Images/WhiteBeadChoice.png","","null"
"image-button-response","385","503245","0.0-13.0-2.108","19","Low_HMMActual","","","","","","null","","","","Images/WhiteBeadChoiceCorrect.png","","null"
"image-button-response","386","503620","0.0-13.0-0.109","19","Low_HMMActual","","","","","","371.90000000037253","","","","Images/NewTrialWC.png","","2"
"image-button-response","387","503925","0.0-13.0-1.109","19","Low_HMMActual","","","","","","null","","","","Images/WhiteBeadChoice.png","","null"
"image-button-response","388","504430","0.0-13.0-2.109","19","Low_HMMActual","","","","","","null","","","","Images/WhiteBeadChoiceCorrect.png","","null"
"image-button-response","389","504916","0.0-13.0-0.110","19","Low_HMMActual","","","","","","481.2000000011176","","","","Images/NewTrialWC.png","","2"
"image-button-response","390","505228","0.0-13.0-1.110","19","Low_HMMActual","","","","","","null","","","","Images/WhiteBeadChoice.png","","null"
"image-button-response","391","505731","0.0-13.0-2.110","19","Low_HMMActual","","","","","","null","","","","Images/WhiteBeadChoiceWrong.png","","null"
"image-button-response","392","506531","0.0-13.0-0.111","19","Low_HMMActual","","","","","","798.9000000003725","","","","Images/NewTrialBC.png","","2"
"image-button-response","393","506835","0.0-13.0-1.111","19","Low_HMMActual","","","","","","null","","","","Images/WhiteBeadChoice.png","","null"
"image-button-response","394","507338","0.0-13.0-2.111","19","Low_HMMActual","","","","","","null","","","","Images/WhiteBeadChoiceWrong.png","","null"
"image-button-response","395","507911","0.0-13.0-0.112","19","Low_HMMActual","","","","","","571.1999999992549","","","","Images/NewTrialBC.png","","0"
"image-button-response","396","508222","0.0-13.0-1.112","19","Low_HMMActual","","","","","","null","","","","Images/BlackBeadChoice.png","","null"
"image-button-response","397","508728","0.0-13.0-2.112","19","Low_HMMActual","","","","","","null","","","","Images/BlackBeadChoiceWrong.png","","null"
"image-button-response","398","509236","0.0-13.0-0.113","19","Low_HMMActual","","","","","","501.5","","","","Images/NewTrialWC.png","","0"
"image-button-response","399","509541","0.0-13.0-1.113","19","Low_HMMActual","","","","","","null","","","","Images/BlackBeadChoice.png","","null"
"image-button-response","400","510043","0.0-13.0-2.113","19","Low_HMMActual","","","","","","null","","","","Images/BlackBeadChoiceWrong.png","","null"
"image-button-response","401","510572","0.0-13.0-0.114","19","Low_HMMActual","","","","","","526.8000000007451","","","","Images/NewTrialWC.png","","2"
"image-button-response","402","510874","0.0-13.0-1.114","19","Low_HMMActual","","","","","","null","","","","Images/WhiteBeadChoice.png","","null"
"image-button-response","403","511380","0.0-13.0-2.114","19","Low_HMMActual","","","","","","null","","","","Images/WhiteBeadChoiceCorrect.png","","null"
"image-button-response","404","511887","0.0-13.0-0.115","19","Low_HMMActual","","","","","","504.19999999925494","","","","Images/NewTrialWC.png","","2"
"image-button-response","405","512194","0.0-13.0-1.115","19","Low_HMMActual","","","","","","null","","","","Images/WhiteBeadChoice.png","","null"
"image-button-response","406","512697","0.0-13.0-2.115","19","Low_HMMActual","","","","","","null","","","","Images/WhiteBeadChoiceCorrect.png","","null"
"image-button-response","407","513178","0.0-13.0-0.116","19","Low_HMMActual","","","","","","479","","","","Images/NewTrialWC.png","","2"
"image-button-response","408","513482","0.0-13.0-1.116","19","Low_HMMActual","","","","","","null","","","","Images/WhiteBeadChoice.png","","null"
"image-button-response","409","514014","0.0-13.0-2.116","19","Low_HMMActual","","","","","","null","","","","Images/WhiteBeadChoiceWrong.png","","null"
"image-button-response","410","515743","0.0-13.0-0.117","19","Low_HMMActual","","","","","","1726","","","","Images/NewTrialBC.png","","0"
"image-button-response","411","516055","0.0-13.0-1.117","19","Low_HMMActual","","","","","","null","","","","Images/BlackBeadChoice.png","","null"
"image-button-response","412","516560","0.0-13.0-2.117","19","Low_HMMActual","","","","","","null","","","","Images/BlackBeadChoiceCorrect.png","","null"
"image-button-response","413","517849","0.0-13.0-0.118","19","Low_HMMActual","","","","","","1283.5","","","","Images/NewTrialBC.png","","2"
"image-button-response","414","518162","0.0-13.0-1.118","19","Low_HMMActual","","","","","","null","","","","Images/WhiteBeadChoice.png","","null"
"image-button-response","415","518664","0.0-13.0-2.118","19","Low_HMMActual","","","","","","null","","","","Images/WhiteBeadChoiceWrong.png","","null"
"image-button-response","416","519539","0.0-13.0-0.119","19","Low_HMMActual","","","","","","873.0999999996275","","","","Images/NewTrialBC.png","","0"
"image-button-response","417","519844","0.0-13.0-1.119","19","Low_HMMActual","","","","","","null","","","","Images/BlackBeadChoice.png","","null"
"image-button-response","418","520350","0.0-13.0-2.119","19","Low_HMMActual","","","","","","null","","","","Images/BlackBeadChoiceCorrect.png","","null"
"image-button-response","419","520804","0.0-13.0-0.120","19","Low_HMMActual","","","","","","451.19999999925494","","","","Images/NewTrialBC.png","","0"
"image-button-response","420","521119","0.0-13.0-1.120","19","Low_HMMActual","","","","","","null","","","","Images/BlackBeadChoice.png","","null"
"image-button-response","421","521638","0.0-13.0-2.120","19","Low_HMMActual","","","","","","null","","","","Images/BlackBeadChoiceWrong.png","","null"
"image-button-response","422","522915","0.0-13.0-0.121","19","Low_HMMActual","","","","","","1274.4000000003725","","","","Images/NewTrialWC.png","","2"
"image-button-response","423","523225","0.0-13.0-1.121","19","Low_HMMActual","","","","","","null","","","","Images/WhiteBeadChoice.png","","null"
"image-button-response","424","523740","0.0-13.0-2.121","19","Low_HMMActual","","","","","","null","","","","Images/WhiteBeadChoiceCorrect.png","","null"
"image-button-response","425","524865","0.0-13.0-0.122","19","Low_HMMActual","","","","","","1122.5999999996275","","","","Images/NewTrialWC.png","","0"
"image-button-response","426","525181","0.0-13.0-1.122","19","Low_HMMActual","","","","","","null","","","","Images/BlackBeadChoice.png","","null"
"image-button-response","427","525685","0.0-13.0-2.122","19","Low_HMMActual","","","","","","null","","","","Images/BlackBeadChoiceWrong.png","","null"
"image-button-response","428","526886","0.0-13.0-0.123","19","Low_HMMActual","","","","","","1196.8999999985099","","","","Images/NewTrialWC.png","","2"
"image-button-response","429","527196","0.0-13.0-1.123","19","Low_HMMActual","","","","","","null","","","","Images/WhiteBeadChoice.png","","null"
"image-button-response","430","527698","0.0-13.0-2.123","19","Low_HMMActual","","","","","","null","","","","Images/WhiteBeadChoiceWrong.png","","null"
"image-button-response","431","528781","0.0-13.0-0.124","19","Low_HMMActual","","","","","","1080.7000000011176","","","","Images/NewTrialBC.png","","0"
"image-button-response","432","529083","0.0-13.0-1.124","19","Low_HMMActual","","","","","","null","","","","Images/BlackBeadChoice.png","","null"
"image-button-response","433","529602","0.0-13.0-2.124","19","Low_HMMActual","","","","","","null","","","","Images/BlackBeadChoiceCorrect.png","","null"
"image-button-response","434","530021","0.0-13.0-0.125","19","Low_HMMActual","","","","","","416.09999999962747","","","","Images/NewTrialBC.png","","0"
"image-button-response","435","530327","0.0-13.0-1.125","19","Low_HMMActual","","","","","","null","","","","Images/BlackBeadChoice.png","","null"
"image-button-response","436","530835","0.0-13.0-2.125","19","Low_HMMActual","","","","","","null","","","","Images/BlackBeadChoiceWrong.png","","null"
"image-button-response","437","531856","0.0-13.0-0.126","19","Low_HMMActual","","","","","","1018.5","","","","Images/NewTrialWC.png","","0"
"image-button-response","438","532173","0.0-13.0-1.126","19","Low_HMMActual","","","","","","null","","","","Images/BlackBeadChoice.png","","null"
"image-button-response","439","532678","0.0-13.0-2.126","19","Low_HMMActual","","","","","","null","","","","Images/BlackBeadChoiceCorrect.png","","null"
"image-button-response","440","533091","0.0-13.0-0.127","19","Low_HMMActual","","","","","","409.40000000037253","","","","Images/NewTrialBC.png","","0"
"image-button-response","441","533404","0.0-13.0-1.127","19","Low_HMMActual","","","","","","null","","","","Images/BlackBeadChoice.png","","null"
"image-button-response","442","533910","0.0-13.0-2.127","19","Low_HMMActual","","","","","","null","","","","Images/BlackBeadChoiceCorrect.png","","null"
"image-button-response","443","534336","0.0-13.0-0.128","19","Low_HMMActual","","","","","","415.09999999962747","","","","Images/NewTrialBC.png","","0"
"image-button-response","444","534651","0.0-13.0-1.128","19","Low_HMMActual","","","","","","null","","","","Images/BlackBeadChoice.png","","null"
"image-button-response","445","535159","0.0-13.0-2.128","19","Low_HMMActual","","","","","","null","","","","Images/BlackBeadChoiceCorrect.png","","null"
"image-button-response","446","535582","0.0-13.0-0.129","19","Low_HMMActual","","","","","","420.59999999962747","","","","Images/NewTrialBC.png","","0"
"image-button-response","447","535898","0.0-13.0-1.129","19","Low_HMMActual","","","","","","null","","","","Images/BlackBeadChoice.png","","null"
"image-button-response","448","536405","0.0-13.0-2.129","19","Low_HMMActual","","","","","","null","","","","Images/BlackBeadChoiceCorrect.png","","null"
"image-button-response","449","536952","0.0-13.0-0.130","19","Low_HMMActual","","","","","","543.5999999996275","","","","Images/NewTrialBC.png","","0"
"image-button-response","450","537257","0.0-13.0-1.130","19","Low_HMMActual","","","","","","null","","","","Images/BlackBeadChoice.png","","null"
"image-button-response","451","537764","0.0-13.0-2.130","19","Low_HMMActual","","","","","","null","","","","Images/BlackBeadChoiceCorrect.png","","null"
"image-button-response","452","538277","0.0-13.0-0.131","19","Low_HMMActual","","","","","","510","","","","Images/NewTrialBC.png","","0"
"image-button-response","453","538582","0.0-13.0-1.131","19","Low_HMMActual","","","","","","null","","","","Images/BlackBeadChoice.png","","null"
"image-button-response","454","539089","0.0-13.0-2.131","19","Low_HMMActual","","","","","","null","","","","Images/BlackBeadChoiceCorrect.png","","null"
"image-button-response","455","539662","0.0-13.0-0.132","19","Low_HMMActual","","","","","","569.5999999996275","","","","Images/NewTrialBC.png","","0"
"image-button-response","456","539975","0.0-13.0-1.132","19","Low_HMMActual","","","","","","null","","","","Images/BlackBeadChoice.png","","null"
"image-button-response","457","540490","0.0-13.0-2.132","19","Low_HMMActual","","","","","","null","","","","Images/BlackBeadChoiceCorrect.png","","null"
"image-button-response","458","540977","0.0-13.0-0.133","19","Low_HMMActual","","","","","","483.90000000037253","","","","Images/NewTrialBC.png","","0"
"image-button-response","459","541295","0.0-13.0-1.133","19","Low_HMMActual","","","","","","null","","","","Images/BlackBeadChoice.png","","null"
"image-button-response","460","541815","0.0-13.0-2.133","19","Low_HMMActual","","","","","","null","","","","Images/BlackBeadChoiceCorrect.png","","null"
"image-button-response","461","542353","0.0-13.0-0.134","19","Low_HMMActual","","","","","","535.1999999992549","","","","Images/NewTrialBC.png","","0"
"image-button-response","462","542667","0.0-13.0-1.134","19","Low_HMMActual","","","","","","null","","","","Images/BlackBeadChoice.png","","null"
"image-button-response","463","543182","0.0-13.0-2.134","19","Low_HMMActual","","","","","","null","","","","Images/BlackBeadChoiceCorrect.png","","null"
"image-button-response","464","543598","0.0-13.0-0.135","19","Low_HMMActual","","","","","","414.59999999962747","","","","Images/NewTrialBC.png","","0"
"image-button-response","465","543908","0.0-13.0-1.135","19","Low_HMMActual","","","","","","null","","","","Images/BlackBeadChoice.png","","null"
"image-button-response","466","544412","0.0-13.0-2.135","19","Low_HMMActual","","","","","","null","","","","Images/BlackBeadChoiceWrong.png","","null"
"image-button-response","467","545143","0.0-13.0-0.136","19","Low_HMMActual","","","","","","728.2999999988824","","","","Images/NewTrialWC.png","","0"
"image-button-response","468","545452","0.0-13.0-1.136","19","Low_HMMActual","","","","","","null","","","","Images/BlackBeadChoice.png","","null"
"image-button-response","469","545958","0.0-13.0-2.136","19","Low_HMMActual","","","","","","null","","","","Images/BlackBeadChoiceWrong.png","","null"
"image-button-response","470","546400","0.0-13.0-0.137","19","Low_HMMActual","","","","","","438.69999999925494","","","","Images/NewTrialWC.png","","2"
"image-button-response","471","546717","0.0-13.0-1.137","19","Low_HMMActual","","","","","","null","","","","Images/WhiteBeadChoice.png","","null"
"image-button-response","472","547229","0.0-13.0-2.137","19","Low_HMMActual","","","","","","null","","","","Images/WhiteBeadChoiceCorrect.png","","null"
"image-button-response","473","547514","0.0-13.0-0.138","19","Low_HMMActual","","","","","","282.30000000074506","","","","Images/NewTrialWC.png","","2"
"image-button-response","474","547827","0.0-13.0-1.138","19","Low_HMMActual","","","","","","null","","","","Images/WhiteBeadChoice.png","","null"
"image-button-response","475","548334","0.0-13.0-2.138","19","Low_HMMActual","","","","","","null","","","","Images/WhiteBeadChoiceCorrect.png","","null"
"image-button-response","476","548724","0.0-13.0-0.139","19","Low_HMMActual","","","","","","386.59999999962747","","","","Images/NewTrialWC.png","","2"
"image-button-response","477","549038","0.0-13.0-1.139","19","Low_HMMActual","","","","","","null","","","","Images/WhiteBeadChoice.png","","null"
"image-button-response","478","549543","0.0-13.0-2.139","19","Low_HMMActual","","","","","","null","","","","Images/WhiteBeadChoiceCorrect.png","","null"
"image-button-response","479","549930","0.0-13.0-0.140","19","Low_HMMActual","","","","","","384.5","","","","Images/NewTrialWC.png","","2"
"image-button-response","480","550240","0.0-13.0-1.140","19","Low_HMMActual","","","","","","null","","","","Images/WhiteBeadChoice.png","","null"
"image-button-response","481","550755","0.0-13.0-2.140","19","Low_HMMActual","","","","","","null","","","","Images/WhiteBeadChoiceCorrect.png","","null"
"image-button-response","482","551146","0.0-13.0-0.141","19","Low_HMMActual","","","","","","386.90000000037253","","","","Images/NewTrialWC.png","","2"
"image-button-response","483","551462","0.0-13.0-1.141","19","Low_HMMActual","","","","","","null","","","","Images/WhiteBeadChoice.png","","null"
"image-button-response","484","551979","0.0-13.0-2.141","19","Low_HMMActual","","","","","","null","","","","Images/WhiteBeadChoiceCorrect.png","","null"
"image-button-response","485","552391","0.0-13.0-0.142","19","Low_HMMActual","","","","","","410.19999999925494","","","","Images/NewTrialWC.png","","2"
"image-button-response","486","552697","0.0-13.0-1.142","19","Low_HMMActual","","","","","","null","","","","Images/WhiteBeadChoice.png","","null"
"image-button-response","487","553203","0.0-13.0-2.142","19","Low_HMMActual","","","","","","null","","","","Images/WhiteBeadChoiceWrong.png","","null"
"image-button-response","488","553996","0.0-13.0-0.143","19","Low_HMMActual","","","","","","774","","","","Images/NewTrialBC.png","","2"
"image-button-response","489","554305","0.0-13.0-1.143","19","Low_HMMActual","","","","","","null","","","","Images/WhiteBeadChoice.png","","null"
"image-button-response","490","554808","0.0-13.0-2.143","19","Low_HMMActual","","","","","","null","","","","Images/WhiteBeadChoiceCorrect.png","","null"
"image-button-response","491","555116","0.0-13.0-0.144","19","Low_HMMActual","","","","","","305","","","","Images/NewTrialWC.png","","2"
"image-button-response","492","555430","0.0-13.0-1.144","19","Low_HMMActual","","","","","","null","","","","Images/WhiteBeadChoice.png","","null"
"image-button-response","493","555950","0.0-13.0-2.144","19","Low_HMMActual","","","","","","null","","","","Images/WhiteBeadChoiceCorrect.png","","null"
"image-button-response","494","556262","0.0-13.0-0.145","19","Low_HMMActual","","","","","","308.80000000074506","","","","Images/NewTrialWC.png","","2"
"image-button-response","495","556574","0.0-13.0-1.145","19","Low_HMMActual","","","","","","null","","","","Images/WhiteBeadChoice.png","","null"
"image-button-response","496","557092","0.0-13.0-2.145","19","Low_HMMActual","","","","","","null","","","","Images/WhiteBeadChoiceCorrect.png","","null"
"image-button-response","497","557422","0.0-13.0-0.146","19","Low_HMMActual","","","","","","326.90000000037253","","","","Images/NewTrialWC.png","","2"
"image-button-response","498","557728","0.0-13.0-1.146","19","Low_HMMActual","","","","","","null","","","","Images/WhiteBeadChoice.png","","null"
"image-button-response","499","558246","0.0-13.0-2.146","19","Low_HMMActual","","","","","","null","","","","Images/WhiteBeadChoiceWrong.png","","null"
"image-button-response","500","558633","0.0-13.0-0.147","19","Low_HMMActual","","","","","","383.5","","","","Images/NewTrialBC.png","","2"
"image-button-response","501","558937","0.0-13.0-1.147","19","Low_HMMActual","","","","","","null","","","","Images/WhiteBeadChoice.png","","null"
"image-button-response","502","559458","0.0-13.0-2.147","19","Low_HMMActual","","","","","","null","","","","Images/WhiteBeadChoiceCorrect.png","","null"
"image-button-response","503","559818","0.0-13.0-0.148","19","Low_HMMActual","","","","","","357.80000000074506","","","","Images/NewTrialWC.png","","2"
"image-button-response","504","560128","0.0-13.0-1.148","19","Low_HMMActual","","","","","","null","","","","Images/WhiteBeadChoice.png","","null"
"image-button-response","505","560632","0.0-13.0-2.148","19","Low_HMMActual","","","","","","null","","","","Images/WhiteBeadChoiceCorrect.png","","null"
"image-button-response","506","561101","0.0-13.0-0.149","19","Low_HMMActual","","","","","","458.40000000037253","","","","Images/NewTrialWC.png","","2"
"image-button-response","507","561403","0.0-13.0-1.149","19","Low_HMMActual","","","","","","null","","","","Images/WhiteBeadChoice.png","","null"
"image-button-response","508","561919","0.0-13.0-2.149","19","Low_HMMActual","","","","","","null","","","","Images/WhiteBeadChoiceWrong.png","","null"
"image-button-response","509","562483","0.0-13.0-0.150","19","Low_HMMActual","","","","","","561.8000000007451","","","","Images/NewTrialBC.png","","2"
"image-button-response","510","562787","0.0-13.0-1.150","19","Low_HMMActual","","","","","","null","","","","Images/WhiteBeadChoice.png","","null"
"image-button-response","511","563304","0.0-13.0-2.150","19","Low_HMMActual","","","","","","null","","","","Images/WhiteBeadChoiceCorrect.png","","null"
"image-button-response","512","563649","0.0-13.0-0.151","19","Low_HMMActual","","","","","","342","","","","Images/NewTrialWC.png","","2"
"image-button-response","513","563958","0.0-13.0-1.151","19","Low_HMMActual","","","","","","null","","","","Images/WhiteBeadChoice.png","","null"
"image-button-response","514","564474","0.0-13.0-2.151","19","Low_HMMActual","","","","","","null","","","","Images/WhiteBeadChoiceCorrect.png","","null"
"image-button-response","515","564879","0.0-13.0-0.152","19","Low_HMMActual","","","","","","403.7000000011176","","","","Images/NewTrialWC.png","","2"
"image-button-response","516","565198","0.0-13.0-1.152","19","Low_HMMActual","","","","","","null","","","","Images/WhiteBeadChoice.png","","null"
"image-button-response","517","565715","0.0-13.0-2.152","19","Low_HMMActual","","","","","","null","","","","Images/WhiteBeadChoiceCorrect.png","","null"
"image-button-response","518","566145","0.0-13.0-0.153","19","Low_HMMActual","","","","","","426.2999999988824","","","","Images/NewTrialWC.png","","2"
"image-button-response","519","566453","0.0-13.0-1.153","19","Low_HMMActual","","","","","","null","","","","Images/WhiteBeadChoice.png","","null"
"image-button-response","520","566956","0.0-13.0-2.153","19","Low_HMMActual","","","","","","null","","","","Images/WhiteBeadChoiceCorrect.png","","null"
"image-button-response","521","567351","0.0-13.0-0.154","19","Low_HMMActual","","","","","","389.5","","","","Images/NewTrialWC.png","","2"
"image-button-response","522","567664","0.0-13.0-1.154","19","Low_HMMActual","","","","","","null","","","","Images/WhiteBeadChoice.png","","null"
"image-button-response","523","568171","0.0-13.0-2.154","19","Low_HMMActual","","","","","","null","","","","Images/WhiteBeadChoiceCorrect.png","","null"
"image-button-response","524","568670","0.0-13.0-0.155","19","Low_HMMActual","","","","","","496.09999999962747","","","","Images/NewTrialWC.png","","2"
"image-button-response","525","568978","0.0-13.0-1.155","19","Low_HMMActual","","","","","","null","","","","Images/WhiteBeadChoice.png","","null"
"image-button-response","526","569508","0.0-13.0-2.155","19","Low_HMMActual","","","","","","null","","","","Images/WhiteBeadChoiceWrong.png","","null"
"image-button-response","527","570170","0.0-13.0-0.156","19","Low_HMMActual","","","","","","658.5999999996275","","","","Images/NewTrialBC.png","","2"
"image-button-response","528","570484","0.0-13.0-1.156","19","Low_HMMActual","","","","","","null","","","","Images/WhiteBeadChoice.png","","null"
"image-button-response","529","570987","0.0-13.0-2.156","19","Low_HMMActual","","","","","","null","","","","Images/WhiteBeadChoiceWrong.png","","null"
"image-button-response","530","571461","0.0-13.0-0.157","19","Low_HMMActual","","","","","","472.2000000011176","","","","Images/NewTrialBC.png","","0"
"image-button-response","531","571767","0.0-13.0-1.157","19","Low_HMMActual","","","","","","null","","","","Images/BlackBeadChoice.png","","null"
"image-button-response","532","572289","0.0-13.0-2.157","19","Low_HMMActual","","","","","","null","","","","Images/BlackBeadChoiceCorrect.png","","null"
"image-button-response","533","572636","0.0-13.0-0.158","19","Low_HMMActual","","","","","","343.90000000037253","","","","Images/NewTrialBC.png","","0"
"image-button-response","534","572941","0.0-13.0-1.158","19","Low_HMMActual","","","","","","null","","","","Images/BlackBeadChoice.png","","null"
"image-button-response","535","573476","0.0-13.0-2.158","19","Low_HMMActual","","","","","","null","","","","Images/BlackBeadChoiceCorrect.png","","null"
"image-button-response","536","573846","0.0-13.0-0.159","19","Low_HMMActual","","","","","","366.5","","","","Images/NewTrialBC.png","","0"
"image-button-response","537","574151","0.0-13.0-1.159","19","Low_HMMActual","","","","","","null","","","","Images/BlackBeadChoice.png","","null"
"image-button-response","538","574668","0.0-13.0-2.159","19","Low_HMMActual","","","","","","null","","","","Images/BlackBeadChoiceCorrect.png","","null"
"image-button-response","539","574931","0.0-13.0-0.160","19","Low_HMMActual","","","","","","260","","","","Images/NewTrialBC.png","","0"
"image-button-response","540","575236","0.0-13.0-1.160","19","Low_HMMActual","","","","","","null","","","","Images/BlackBeadChoice.png","","null"
"image-button-response","541","575757","0.0-13.0-2.160","19","Low_HMMActual","","","","","","null","","","","Images/BlackBeadChoiceCorrect.png","","null"
"image-button-response","542","576077","0.0-13.0-0.161","19","Low_HMMActual","","","","","","317.30000000074506","","","","Images/NewTrialBC.png","","0"
"image-button-response","543","576382","0.0-13.0-1.161","19","Low_HMMActual","","","","","","null","","","","Images/BlackBeadChoice.png","","null"
"image-button-response","544","576915","0.0-13.0-2.161","19","Low_HMMActual","","","","","","null","","","","Images/BlackBeadChoiceWrong.png","","null"
"image-button-response","545","577367","0.0-13.0-0.162","19","Low_HMMActual","","","","","","450","","","","Images/NewTrialWC.png","","0"
"image-button-response","546","577672","0.0-13.0-1.162","19","Low_HMMActual","","","","","","null","","","","Images/BlackBeadChoice.png","","null"
"image-button-response","547","578176","0.0-13.0-2.162","19","Low_HMMActual","","","","","","null","","","","Images/BlackBeadChoiceWrong.png","","null"
"image-button-response","548","578517","0.0-13.0-0.163","19","Low_HMMActual","","","","","","338.90000000037253","","","","Images/NewTrialWC.png","","2"
"image-button-response","549","578819","0.0-13.0-1.163","19","Low_HMMActual","","","","","","null","","","","Images/WhiteBeadChoice.png","","null"
"image-button-response","550","579334","0.0-13.0-2.163","19","Low_HMMActual","","","","","","null","","","","Images/WhiteBeadChoiceCorrect.png","","null"
"image-button-response","551","579778","0.0-13.0-0.164","19","Low_HMMActual","","","","","","441.09999999962747","","","","Images/NewTrialWC.png","","2"
"image-button-response","552","580091","0.0-13.0-1.164","19","Low_HMMActual","","","","","","null","","","","Images/WhiteBeadChoice.png","","null"
"image-button-response","553","580597","0.0-13.0-2.164","19","Low_HMMActual","","","","","","null","","","","Images/WhiteBeadChoiceCorrect.png","","null"
"image-button-response","554","580954","0.0-13.0-0.165","19","Low_HMMActual","","","","","","352.80000000074506","","","","Images/NewTrialWC.png","","2"
"image-button-response","555","581257","0.0-13.0-1.165","19","Low_HMMActual","","","","","","null","","","","Images/WhiteBeadChoice.png","","null"
"image-button-response","556","581773","0.0-13.0-2.165","19","Low_HMMActual","","","","","","null","","","","Images/WhiteBeadChoiceCorrect.png","","null"
"image-button-response","557","582098","0.0-13.0-0.166","19","Low_HMMActual","","","","","","318.59999999962747","","","","Images/NewTrialWC.png","","2"
"image-button-response","558","582401","0.0-13.0-1.166","19","Low_HMMActual","","","","","","null","","","","Images/WhiteBeadChoice.png","","null"
"image-button-response","559","582917","0.0-13.0-2.166","19","Low_HMMActual","","","","","","null","","","","Images/WhiteBeadChoiceCorrect.png","","null"
"image-button-response","560","583234","0.0-13.0-0.167","19","Low_HMMActual","","","","","","302.7999999988824","","","","Images/NewTrialWC.png","","2"
"image-button-response","561","583543","0.0-13.0-1.167","19","Low_HMMActual","","","","","","null","","","","Images/WhiteBeadChoice.png","","null"
"image-button-response","562","584046","0.0-13.0-2.167","19","Low_HMMActual","","","","","","null","","","","Images/WhiteBeadChoiceCorrect.png","","null"
"image-button-response","563","584184","0.0-13.0-0.168","19","Low_HMMActual","","","","","","134.30000000074506","","","","Images/NewTrialWC.png","","2"
"image-button-response","564","584487","0.0-13.0-1.168","19","Low_HMMActual","","","","","","null","","","","Images/WhiteBeadChoice.png","","null"
"image-button-response","565","585005","0.0-13.0-2.168","19","Low_HMMActual","","","","","","null","","","","Images/WhiteBeadChoiceWrong.png","","null"
"image-button-response","566","585394","0.0-13.0-0.169","19","Low_HMMActual","","","","","","387.40000000037253","","","","Images/NewTrialBC.png","","2"
"image-button-response","567","585727","0.0-13.0-1.169","19","Low_HMMActual","","","","","","null","","","","Images/WhiteBeadChoice.png","","null"
"image-button-response","568","586241","0.0-13.0-2.169","19","Low_HMMActual","","","","","","null","","","","Images/WhiteBeadChoiceCorrect.png","","null"
"image-button-response","569","586390","0.0-13.0-0.170","19","Low_HMMActual","","","","","","145.7000000011176","","","","Images/NewTrialWC.png","","2"
"image-button-response","570","586696","0.0-13.0-1.170","19","Low_HMMActual","","","","","","null","","","","Images/WhiteBeadChoice.png","","null"
"image-button-response","571","587203","0.0-13.0-2.170","19","Low_HMMActual","","","","","","null","","","","Images/WhiteBeadChoiceCorrect.png","","null"
"image-button-response","572","587766","0.0-13.0-0.171","19","Low_HMMActual","","","","","","556.0999999996275","","","","Images/NewTrialWC.png","","2"
"image-button-response","573","588068","0.0-13.0-1.171","19","Low_HMMActual","","","","","","null","","","","Images/WhiteBeadChoice.png","","null"
"image-button-response","574","588582","0.0-13.0-2.171","19","Low_HMMActual","","","","","","null","","","","Images/WhiteBeadChoiceCorrect.png","","null"
"image-button-response","575","588816","0.0-13.0-0.172","19","Low_HMMActual","","","","","","229.80000000074506","","","","Images/NewTrialWC.png","","2"
"image-button-response","576","589119","0.0-13.0-1.172","19","Low_HMMActual","","","","","","null","","","","Images/WhiteBeadChoice.png","","null"
"image-button-response","577","589637","0.0-13.0-2.172","19","Low_HMMActual","","","","","","null","","","","Images/WhiteBeadChoiceCorrect.png","","null"
"image-button-response","578","589991","0.0-13.0-0.173","19","Low_HMMActual","","","","","","349.69999999925494","","","","Images/NewTrialWC.png","","2"
"image-button-response","579","590298","0.0-13.0-1.173","19","Low_HMMActual","","","","","","null","","","","Images/WhiteBeadChoice.png","","null"
"image-button-response","580","590812","0.0-13.0-2.173","19","Low_HMMActual","","","","","","null","","","","Images/WhiteBeadChoiceCorrect.png","","null"
"image-button-response","581","591096","0.0-13.0-0.174","19","Low_HMMActual","","","","","","280","","","","Images/NewTrialWC.png","","2"
"image-button-response","582","591398","0.0-13.0-1.174","19","Low_HMMActual","","","","","","null","","","","Images/WhiteBeadChoice.png","","null"
"image-button-response","583","591916","0.0-13.0-2.174","19","Low_HMMActual","","","","","","null","","","","Images/WhiteBeadChoiceCorrect.png","","null"
"image-button-response","584","592197","0.0-13.0-0.175","19","Low_HMMActual","","","","","","277.69999999925494","","","","Images/NewTrialWC.png","","2"
"image-button-response","585","592502","0.0-13.0-1.175","19","Low_HMMActual","","","","","","null","","","","Images/WhiteBeadChoice.png","","null"
"image-button-response","586","593037","0.0-13.0-2.175","19","Low_HMMActual","","","","","","null","","","","Images/WhiteBeadChoiceWrong.png","","null"
"image-button-response","587","593427","0.0-13.0-0.176","19","Low_HMMActual","","","","","","386.5","","","","Images/NewTrialBC.png","","2"
"image-button-response","588","593732","0.0-13.0-1.176","19","Low_HMMActual","","","","","","null","","","","Images/WhiteBeadChoice.png","","null"
"image-button-response","589","594236","0.0-13.0-2.176","19","Low_HMMActual","","","","","","null","","","","Images/WhiteBeadChoiceWrong.png","","null"
"image-button-response","590","594631","0.0-13.0-0.177","19","Low_HMMActual","","","","","","393.80000000074506","","","","Images/NewTrialBC.png","","0"
"image-button-response","591","594941","0.0-13.0-1.177","19","Low_HMMActual","","","","","","null","","","","Images/BlackBeadChoice.png","","null"
"image-button-response","592","595443","0.0-13.0-2.177","19","Low_HMMActual","","","","","","488.7000000011176","","","","Images/BlackBeadChoiceCorrect.png","","0"
"image-button-response","593","595946","0.0-13.0-0.178","19","Low_HMMActual","","","","","","501.6000000014901","","","","Images/NewTrialBC.png","","0"
"image-button-response","594","596259","0.0-13.0-1.178","19","Low_HMMActual","","","","","","null","","","","Images/BlackBeadChoice.png","","null"
"image-button-response","595","596766","0.0-13.0-2.178","19","Low_HMMActual","","","","","","null","","","","Images/BlackBeadChoiceWrong.png","","null"
"image-button-response","596","597182","0.0-13.0-0.179","19","Low_HMMActual","","","","","","413","","","","Images/NewTrialWC.png","","0"
"image-button-response","597","597490","0.0-13.0-1.179","19","Low_HMMActual","","","","","","null","","","","Images/BlackBeadChoice.png","","null"
"image-button-response","598","597999","0.0-13.0-2.179","19","Low_HMMActual","","","","","","null","","","","Images/BlackBeadChoiceCorrect.png","","null"
"image-button-response","599","598673","0.0-13.0-0.180","19","Low_HMMActual","","","","","","652.2000000011176","","","","Images/NewTrialBC.png","","0"
"image-button-response","600","598990","0.0-13.0-1.180","19","Low_HMMActual","","","","","","null","","","","Images/BlackBeadChoice.png","","null"
"image-button-response","601","599493","0.0-13.0-2.180","19","Low_HMMActual","","","","","","null","","","","Images/BlackBeadChoiceCorrect.png","","null"
"image-button-response","602","599918","0.0-13.0-0.181","19","Low_HMMActual","","","","","","420.2000000011176","","","","Images/NewTrialBC.png","","0"
"image-button-response","603","600233","0.0-13.0-1.181","19","Low_HMMActual","","","","","","null","","","","Images/BlackBeadChoice.png","","null"
"image-button-response","604","600748","0.0-13.0-2.181","19","Low_HMMActual","","","","","","null","","","","Images/BlackBeadChoiceCorrect.png","","null"
"image-button-response","605","600908","0.0-13.0-0.182","19","Low_HMMActual","","","","","","153.30000000074506","","","","Images/NewTrialBC.png","","0"
"image-button-response","606","601222","0.0-13.0-1.182","19","Low_HMMActual","","","","","","null","","","","Images/BlackBeadChoice.png","","null"
"image-button-response","607","601727","0.0-13.0-2.182","19","Low_HMMActual","","","","","","null","","","","Images/BlackBeadChoiceCorrect.png","","null"
"image-button-response","608","602068","0.0-13.0-0.183","19","Low_HMMActual","","","","","","337.19999999925494","","","","Images/NewTrialBC.png","","0"
"image-button-response","609","602378","0.0-13.0-1.183","19","Low_HMMActual","","","","","","null","","","","Images/BlackBeadChoice.png","","null"
"image-button-response","610","602884","0.0-13.0-2.183","19","Low_HMMActual","","","","","","null","","","","Images/BlackBeadChoiceCorrect.png","","null"
"image-button-response","611","603323","0.0-13.0-0.184","19","Low_HMMActual","","","","","","435.40000000037253","","","","Images/NewTrialBC.png","","0"
"image-button-response","612","603629","0.0-13.0-1.184","19","Low_HMMActual","","","","","","null","","","","Images/BlackBeadChoice.png","","null"
"image-button-response","613","604146","0.0-13.0-2.184","19","Low_HMMActual","","","","","","null","","","","Images/BlackBeadChoiceCorrect.png","","null"
"image-button-response","614","604369","0.0-13.0-0.185","19","Low_HMMActual","","","","","","216.80000000074506","","","","Images/NewTrialBC.png","","0"
"image-button-response","615","604679","0.0-13.0-1.185","19","Low_HMMActual","","","","","","null","","","","Images/BlackBeadChoice.png","","null"
"image-button-response","616","605197","0.0-13.0-2.185","19","Low_HMMActual","","","","","","null","","","","Images/BlackBeadChoiceCorrect.png","","null"
"image-button-response","617","605474","0.0-13.0-0.186","19","Low_HMMActual","","","","","","274.69999999925494","","","","Images/NewTrialBC.png","","0"
"image-button-response","618","605790","0.0-13.0-1.186","19","Low_HMMActual","","","","","","null","","","","Images/BlackBeadChoice.png","","null"
"image-button-response","619","606307","0.0-13.0-2.186","19","Low_HMMActual","","","","","","null","","","","Images/BlackBeadChoiceCorrect.png","","null"
"image-button-response","620","606599","0.0-13.0-0.187","19","Low_HMMActual","","","","","","288.7000000011176","","","","Images/NewTrialBC.png","","0"
"image-button-response","621","606905","0.0-13.0-1.187","19","Low_HMMActual","","","","","","null","","","","Images/BlackBeadChoice.png","","null"
"image-button-response","622","607411","0.0-13.0-2.187","19","Low_HMMActual","","","","","","null","","","","Images/BlackBeadChoiceWrong.png","","null"
"image-button-response","623","607934","0.0-13.0-0.188","19","Low_HMMActual","","","","","","520.7999999988824","","","","Images/NewTrialWC.png","","0"
"image-button-response","624","608247","0.0-13.0-1.188","19","Low_HMMActual","","","","","","null","","","","Images/BlackBeadChoice.png","","null"
"image-button-response","625","608751","0.0-13.0-2.188","19","Low_HMMActual","","","","","","null","","","","Images/BlackBeadChoiceWrong.png","","null"
"image-button-response","626","609209","0.0-13.0-0.189","19","Low_HMMActual","","","","","","455.80000000074506","","","","Images/NewTrialWC.png","","2"
"image-button-response","627","609519","0.0-13.0-1.189","19","Low_HMMActual","","","","","","null","","","","Images/WhiteBeadChoice.png","","null"
"image-button-response","628","610024","0.0-13.0-2.189","19","Low_HMMActual","","","","","","null","","","","Images/WhiteBeadChoiceCorrect.png","","null"
"image-button-response","629","610180","0.0-13.0-0.190","19","Low_HMMActual","","","","","","152.69999999925494","","","","Images/NewTrialWC.png","","2"
"image-button-response","630","610483","0.0-13.0-1.190","19","Low_HMMActual","","","","","","null","","","","Images/WhiteBeadChoice.png","","null"
"image-button-response","631","610998","0.0-13.0-2.190","19","Low_HMMActual","","","","","","null","","","","Images/WhiteBeadChoiceCorrect.png","","null"
"image-button-response","632","611175","0.0-13.0-0.191","19","Low_HMMActual","","","","","","154.09999999962747","","","","Images/NewTrialWC.png","","2"
"image-button-response","633","611487","0.0-13.0-1.191","19","Low_HMMActual","","","","","","null","","","","Images/WhiteBeadChoice.png","","null"
"image-button-response","634","612003","0.0-13.0-2.191","19","Low_HMMActual","","","","","","null","","","","Images/WhiteBeadChoiceCorrect.png","","null"
"image-button-response","635","612160","0.0-13.0-0.192","19","Low_HMMActual","","","","","","152.90000000037253","","","","Images/NewTrialWC.png","","2"
"image-button-response","636","612477","0.0-13.0-1.192","19","Low_HMMActual","","","","","","null","","","","Images/WhiteBeadChoice.png","","null"
"image-button-response","637","612981","0.0-13.0-2.192","19","Low_HMMActual","","","","","","null","","","","Images/WhiteBeadChoiceCorrect.png","","null"
"image-button-response","638","613606","0.0-13.0-0.193","19","Low_HMMActual","","","","","","622.2000000011176","","","","Images/NewTrialWC.png","","2"
"image-button-response","639","613908","0.0-13.0-1.193","19","Low_HMMActual","","","","","","null","","","","Images/WhiteBeadChoice.png","","null"
"image-button-response","640","614413","0.0-13.0-2.193","19","Low_HMMActual","","","","","","null","","","","Images/WhiteBeadChoiceCorrect.png","","null"
"image-button-response","641","614551","0.0-13.0-0.194","19","Low_HMMActual","","","","","","134.09999999962747","","","","Images/NewTrialWC.png","","2"
"image-button-response","642","614868","0.0-13.0-1.194","19","Low_HMMActual","","","","","","null","","","","Images/WhiteBeadChoice.png","","null"
"image-button-response","643","615384","0.0-13.0-2.194","19","Low_HMMActual","","","","","","null","","","","Images/WhiteBeadChoiceCorrect.png","","null"
"image-button-response","644","616386","0.0-13.0-0.195","19","Low_HMMActual","","","","","","999.2000000011176","","","","Images/NewTrialWC.png","","2"
"image-button-response","645","616700","0.0-13.0-1.195","19","Low_HMMActual","","","","","","null","","","","Images/WhiteBeadChoice.png","","null"
"image-button-response","646","617203","0.0-13.0-2.195","19","Low_HMMActual","","","","","","null","","","","Images/WhiteBeadChoiceCorrect.png","","null"
"image-button-response","647","617737","0.0-13.0-0.196","19","Low_HMMActual","","","","","","530.1999999992549","","","","Images/NewTrialWC.png","","2"
"image-button-response","648","618050","0.0-13.0-1.196","19","Low_HMMActual","","","","","","null","","","","Images/WhiteBeadChoice.png","","null"
"image-button-response","649","618554","0.0-13.0-2.196","19","Low_HMMActual","","","","","","null","","","","Images/WhiteBeadChoiceCorrect.png","","null"
"image-button-response","650","618877","0.0-13.0-0.197","19","Low_HMMActual","","","","","","318.90000000037253","","","","Images/NewTrialWC.png","","2"
"image-button-response","651","619187","0.0-13.0-1.197","19","Low_HMMActual","","","","","","null","","","","Images/WhiteBeadChoice.png","","null"
"image-button-response","652","619704","0.0-13.0-2.197","19","Low_HMMActual","","","","","","null","","","","Images/WhiteBeadChoiceCorrect.png","","null"
"image-button-response","653","620182","0.0-13.0-0.198","19","Low_HMMActual","","","","","","473.90000000037253","","","","Images/NewTrialWC.png","","2"
"image-button-response","654","620491","0.0-13.0-1.198","19","Low_HMMActual","","","","","","null","","","","Images/WhiteBeadChoice.png","","null"
"image-button-response","655","621008","0.0-13.0-2.198","19","Low_HMMActual","","","","","","null","","","","Images/WhiteBeadChoiceWrong.png","","null"
"image-button-response","656","621673","0.0-13.0-0.199","19","Low_HMMActual","","","","","","662.7999999988824","","","","Images/NewTrialBC.png","","2"
"image-button-response","657","621986","0.0-13.0-1.199","19","Low_HMMActual","","","","","","null","","","","Images/WhiteBeadChoice.png","","null"
"image-button-response","658","622490","0.0-13.0-2.199","19","Low_HMMActual","","","","","","null","","","","Images/WhiteBeadChoiceCorrect.png","","null"
"image-button-response","659","622803","0.0-13.0-0.200","19","Low_HMMActual","","","","","","309.80000000074506","","","","Images/NewTrialWC.png","","2"
"image-button-response","660","623119","0.0-13.0-1.200","19","Low_HMMActual","","","","","","null","","","","Images/WhiteBeadChoice.png","","null"
"image-button-response","661","623636","0.0-13.0-2.200","19","Low_HMMActual","","","","","","null","","","","Images/WhiteBeadChoiceCorrect.png","","null"
"image-button-response","662","624043","0.0-13.0-0.201","19","Low_HMMActual","","","","","","403.59999999962747","","","","Images/NewTrialWC.png","","2"
"image-button-response","663","624346","0.0-13.0-1.201","19","Low_HMMActual","","","","","","null","","","","Images/WhiteBeadChoice.png","","null"
"image-button-response","664","624853","0.0-13.0-2.201","19","Low_HMMActual","","","","","","null","","","","Images/WhiteBeadChoiceWrong.png","","null"
"image-button-response","665","629129","0.0-13.0-0.202","19","Low_HMMActual","","","","","","4274.299999998882","","","","Images/NewTrialBC.png","","2"
