"trial_type","trial_index","time_elapsed","internal_node_id","Script_Picker","Block_Type","success","timeout","failed_images","failed_audio","failed_video","rt","url","responses","question_order","stimulus","key_press","response"
"pavlovia","0","33","0.0-0.0","17","Low_HMMActual","","","","","","","","","","","",""
"preload","1","35","0.0-1.0","17","Low_HMMActual","true","false","[]","[]","[]","","","","","","",""
"external-html","2","121855","0.0-2.0-0.0","17","Low_HMMActual","","","","","","121692.69999999925","consent.html","","","","",""
"survey-multi-choice","3","129479","0.0-2.0-1.0","17","Low_HMMActual","","","","","","7620","","{""Q0"":""Male"",""Q1"":""White""}","[0,1]","","",""
"survey-text","4","132374","0.0-2.0-2.0","17","Low_HMMActual","","","","","","2889.099999997765","","{""Q0"":""19""}","","","",""
"survey-text","5","137502","0.0-2.0-3.0","17","Low_HMMActual","","","","","","5022.39999999851","","{""Q0"":""5ff1ca015ce3ae12f36ea637""}","","","",""
"image-keyboard-response","6","155853","0.0-3.0-0.0","17","Low_HMMActual","","","","","","18248.199999999255","","","","tutorial/tutorial1.png"," ",""
"image-keyboard-response","7","162695","0.0-3.0-0.1","17","Low_HMMActual","","","","","","6840.39999999851","","","","tutorial/tutorial2.png"," ",""
"image-keyboard-response","8","165718","0.0-3.0-0.2","17","Low_HMMActual","","","","","","3021.39999999851","","","","tutorial/tutorial3.png"," ",""
"image-keyboard-response","9","167667","0.0-3.0-0.3","17","Low_HMMActual","","","","","","1947.800000000745","","","","tutorial/tutorial4.png"," ",""
"image-keyboard-response","10","171626","0.0-3.0-0.4","17","Low_HMMActual","","","","","","3957.599999997765","","","","tutorial/tutorial5.png"," ",""
"image-keyboard-response","11","179286","0.0-3.0-0.5","17","Low_HMMActual","","","","","","7659.5","","","","tutorial/tutorial6.png"," ",""
"image-keyboard-response","12","184536","0.0-3.0-0.6","17","Low_HMMActual","","","","","","5248.699999999255","","","","tutorial/tutorial7.png"," ",""
"image-keyboard-response","13","203948","0.0-3.0-0.7","17","Low_HMMActual","","","","","","19411.199999999255","","","","tutorial/tutorial8.png"," ",""
"image-keyboard-response","14","209385","0.0-3.0-0.8","17","Low_HMMActual","","","","","","5435.5","","","","tutorial/tutorial9.png"," ",""
"image-keyboard-response","15","221037","0.0-3.0-0.9","17","Low_HMMActual","","","","","","11650","","","","tutorial/tutorial10.png"," ",""
"image-keyboard-response","16","223671","0.0-3.0-0.10","17","Low_HMMActual","","","","","","2633.2000000029802","","","","tutorial/tutorial11.png"," ",""
"image-keyboard-response","17","228537","0.0-3.0-0.11","17","Low_HMMActual","","","","","","4864.599999997765","","","","tutorial/tutorial12.png"," ",""
"image-keyboard-response","18","269721","0.0-3.0-0.12","17","Low_HMMActual","","","","","","41182.60000000149","","","","tutorial/tutorial13.png"," ",""
"image-keyboard-response","19","276608","0.0-3.0-0.13","17","Low_HMMActual","","","","","","6885.79999999702","","","","tutorial/tutorial14.png"," ",""
"image-keyboard-response","20","278847","0.0-3.0-0.14","17","Low_HMMActual","","","","","","2237.5","","","","tutorial/tutorial15.png"," ",""
"image-keyboard-response","21","288780","0.0-4.0","17","Low_HMMActual","","","","","","9932.10000000149","","","","tutorial/tutorial16.png","arrowup",""
"image-keyboard-response","22","299145","0.0-5.0","17","Low_HMMActual","","","","","","7730.19999999553","","","","tutorial/tutorial17.png","arrowright",""
"image-keyboard-response","23","310429","0.0-6.0","17","Low_HMMActual","","","","","","9470.30000000447","","","","tutorial/tutorial18.png","arrowleft",""
"image-keyboard-response","24","326003","0.0-7.0","17","Low_HMMActual","","","","","","14461.60000000149","","","","tutorial/tutorial19.png"," ",""
"html-keyboard-response","25","366372","0.0-8.0","18","Low_HMMActual","","","","","","40365.30000000447","","","","<div class=""container"" style=""height:800px;width:800px;display:flex;flex-direction:column;justify-content:center;align-items:center;text-align:center;font-weight:normal;font-family:Arial;font-size:20px""><p>Loading episode&hellip;</p><div>"," ",""
"image-button-response","26","374887","0.0-9.0-0.0","18","Low_HMMActual","","","","","","8509.19999999553","","","","Images/NoChoice.png","","3"
"image-button-response","27","375191","0.0-9.0-1.0","18","Low_HMMActual","","","","","","null","","","","Images/WhiteBeadChoice.png","","null"
"image-button-response","28","375693","0.0-9.0-2.0","18","Low_HMMActual","","","","","","null","","","","Images/WhiteBeadChoiceCorrect.png","","null"
"image-button-response","29","379310","0.0-9.0-0.1","18","Low_HMMActual","","","","","","3612.5999999940395","","","","Images/NewTrialWC.png","","2"
"image-button-response","30","379613","0.0-9.0-1.1","18","Low_HMMActual","","","","","","null","","","","Images/WhiteBeadChoice.png","","null"
"image-button-response","31","380116","0.0-9.0-2.1","18","Low_HMMActual","","","","","","null","","","","Images/WhiteBeadChoiceCorrect.png","","null"
"image-button-response","32","381166","0.0-9.0-0.2","18","Low_HMMActual","","","","","","1045.2999999970198","","","","Images/NewTrialWC.png","","2"
"image-button-response","33","381470","0.0-9.0-1.2","18","Low_HMMActual","","","","","","null","","","","Images/WhiteBeadChoice.png","","null"
"image-button-response","34","381973","0.0-9.0-2.2","18","Low_HMMActual","","","","","","null","","","","Images/WhiteBeadChoiceCorrect.png","","null"
"image-button-response","35","383470","0.0-9.0-0.3","18","Low_HMMActual","","","","","","1492.5999999940395","","","","Images/NewTrialWC.png","","2"
"image-button-response","36","383772","0.0-9.0-1.3","18","Low_HMMActual","","","","","","null","","","","Images/WhiteBeadChoice.png","","null"
"image-button-response","37","384274","0.0-9.0-2.3","18","Low_HMMActual","","","","","","null","","","","Images/WhiteBeadChoiceWrong.png","","null"
"image-button-response","38","386709","0.0-9.0-0.4","18","Low_HMMActual","","","","","","2432.7999999970198","","","","Images/NewTrialBC.png","","0"
"image-button-response","39","387012","0.0-9.0-1.4","18","Low_HMMActual","","","","","","null","","","","Images/BlackBeadChoice.png","","null"
"image-button-response","40","387514","0.0-9.0-2.4","18","Low_HMMActual","","","","","","null","","","","Images/BlackBeadChoiceWrong.png","","null"
"image-button-response","41","389286","0.0-9.0-0.5","18","Low_HMMActual","","","","","","1768.2999999970198","","","","Images/NewTrialWC.png","","2"
"image-button-response","42","389588","0.0-9.0-1.5","18","Low_HMMActual","","","","","","null","","","","Images/WhiteBeadChoice.png","","null"
"image-button-response","43","390090","0.0-9.0-2.5","18","Low_HMMActual","","","","","","null","","","","Images/WhiteBeadChoiceCorrect.png","","null"
"image-button-response","44","390774","0.0-9.0-0.6","18","Low_HMMActual","","","","","","679.8999999985099","","","","Images/NewTrialWC.png","","2"
"image-button-response","45","391076","0.0-9.0-1.6","18","Low_HMMActual","","","","","","null","","","","Images/WhiteBeadChoice.png","","null"
"image-button-response","46","391587","0.0-9.0-2.6","18","Low_HMMActual","","","","","","null","","","","Images/WhiteBeadChoiceWrong.png","","null"
"image-button-response","47","393717","0.0-9.0-0.7","18","Low_HMMActual","","","","","","2127.2999999970198","","","","Images/NewTrialBC.png","","0"
"image-button-response","48","394019","0.0-9.0-1.7","18","Low_HMMActual","","","","","","null","","","","Images/BlackBeadChoice.png","","null"
"image-button-response","49","394521","0.0-9.0-2.7","18","Low_HMMActual","","","","","","null","","","","Images/BlackBeadChoiceWrong.png","","null"
"image-button-response","50","395454","0.0-9.0-0.8","18","Low_HMMActual","","","","","","928.5","","","","Images/NewTrialWC.png","","2"
"image-button-response","51","395756","0.0-9.0-1.8","18","Low_HMMActual","","","","","","null","","","","Images/WhiteBeadChoice.png","","null"
"image-button-response","52","396258","0.0-9.0-2.8","18","Low_HMMActual","","","","","","null","","","","Images/WhiteBeadChoiceCorrect.png","","null"
"image-button-response","53","396390","0.0-9.0-0.9","18","Low_HMMActual","","","","","","127.69999999552965","","","","Images/NewTrialWC.png","","2"
"image-button-response","54","396700","0.0-9.0-1.9","18","Low_HMMActual","","","","","","null","","","","Images/WhiteBeadChoice.png","","null"
"image-button-response","55","397202","0.0-9.0-2.9","18","Low_HMMActual","","","","","","null","","","","Images/WhiteBeadChoiceWrong.png","","null"
"html-keyboard-response","56","400054","0.0-10.0","18","Low_HMMActual","","","","","","2849.89999999851","","","",""," ",""
"image-keyboard-response","57","402113","0.0-11.0","18","Low_HMMActual","","","","","","2058.39999999851","","","","tutorial/tutorial20.png"," ",""
"html-keyboard-response","58","407325","0.0-12.0","19","Low_HMMActual","","","","","","5208.19999999553","","","","<div class=""container"" style=""height:800px;width:800px;display:flex;flex-direction:column;justify-content:center;align-items:center;text-align:center;font-weight:normal;font-family:Arial;font-size:20px""><p>Loading episode&hellip;</p><div>"," ",""
"image-button-response","59","409845","0.0-13.0-0.0","19","Low_HMMActual","","","","","","2518","","","","Images/NoChoice.png","","3"
"image-button-response","60","410148","0.0-13.0-1.0","19","Low_HMMActual","","","","","","null","","","","Images/WhiteBeadChoice.png","","null"
"image-button-response","61","410650","0.0-13.0-2.0","19","Low_HMMActual","","","","","","null","","","","Images/WhiteBeadChoiceCorrect.png","","null"
"image-button-response","62","411902","0.0-13.0-0.1","19","Low_HMMActual","","","","","","1247.6000000014901","","","","Images/NewTrialWC.png","","2"
"image-button-response","63","412204","0.0-13.0-1.1","19","Low_HMMActual","","","","","","null","","","","Images/WhiteBeadChoice.png","","null"
"image-button-response","64","412707","0.0-13.0-2.1","19","Low_HMMActual","","","","","","null","","","","Images/WhiteBeadChoiceCorrect.png","","null"
"image-button-response","65","413701","0.0-13.0-0.2","19","Low_HMMActual","","","","","","990.5","","","","Images/NewTrialWC.png","","2"
"image-button-response","66","414003","0.0-13.0-1.2","19","Low_HMMActual","","","","","","null","","","","Images/WhiteBeadChoice.png","","null"
"image-button-response","67","414505","0.0-13.0-2.2","19","Low_HMMActual","","","","","","null","","","","Images/WhiteBeadChoiceCorrect.png","","null"
"image-button-response","68","416797","0.0-13.0-0.3","19","Low_HMMActual","","","","","","2288.39999999851","","","","Images/NewTrialWC.png","","3"
"image-button-response","69","417099","0.0-13.0-1.3","19","Low_HMMActual","","","","","","null","","","","Images/WhiteBeadChoice.png","","null"
"image-button-response","70","417602","0.0-13.0-2.3","19","Low_HMMActual","","","","","","null","","","","Images/WhiteBeadChoiceCorrect.png","","null"
"image-button-response","71","418157","0.0-13.0-0.4","19","Low_HMMActual","","","","","","551.8000000044703","","","","Images/NewTrialWC.png","","2"
"image-button-response","72","418460","0.0-13.0-1.4","19","Low_HMMActual","","","","","","null","","","","Images/WhiteBeadChoice.png","","null"
"image-button-response","73","418963","0.0-13.0-2.4","19","Low_HMMActual","","","","","","null","","","","Images/WhiteBeadChoiceCorrect.png","","null"
"image-button-response","74","419422","0.0-13.0-0.5","19","Low_HMMActual","","","","","","455.29999999701977","","","","Images/NewTrialWC.png","","3"
"image-button-response","75","419724","0.0-13.0-1.5","19","Low_HMMActual","","","","","","null","","","","Images/WhiteBeadChoice.png","","null"
"image-button-response","76","420235","0.0-13.0-2.5","19","Low_HMMActual","","","","","","null","","","","Images/WhiteBeadChoiceWrong.png","","null"
"image-button-response","77","421116","0.0-13.0-0.6","19","Low_HMMActual","","","","","","878.7999999970198","","","","Images/NewTrialBC.png","","0"
"image-button-response","78","421418","0.0-13.0-1.6","19","Low_HMMActual","","","","","","null","","","","Images/BlackBeadChoice.png","","null"
"image-button-response","79","421920","0.0-13.0-2.6","19","Low_HMMActual","","","","","","null","","","","Images/BlackBeadChoiceCorrect.png","","null"
"image-button-response","80","422666","0.0-13.0-0.7","19","Low_HMMActual","","","","","","742.6000000014901","","","","Images/NewTrialBC.png","","0"
"image-button-response","81","422969","0.0-13.0-1.7","19","Low_HMMActual","","","","","","null","","","","Images/BlackBeadChoice.png","","null"
"image-button-response","82","423472","0.0-13.0-2.7","19","Low_HMMActual","","","","","","null","","","","Images/BlackBeadChoiceCorrect.png","","null"
"image-button-response","83","423949","0.0-13.0-0.8","19","Low_HMMActual","","","","","","474.3999999985099","","","","Images/NewTrialBC.png","","0"
"image-button-response","84","424251","0.0-13.0-1.8","19","Low_HMMActual","","","","","","null","","","","Images/BlackBeadChoice.png","","null"
"image-button-response","85","424754","0.0-13.0-2.8","19","Low_HMMActual","","","","","","399","","","","Images/BlackBeadChoiceCorrect.png","","0"
"image-button-response","86","426093","0.0-13.0-0.9","19","Low_HMMActual","","","","","","1336.4000000059605","","","","Images/NewTrialBC.png","","0"
"image-button-response","87","426396","0.0-13.0-1.9","19","Low_HMMActual","","","","","","null","","","","Images/BlackBeadChoice.png","","null"
"image-button-response","88","426899","0.0-13.0-2.9","19","Low_HMMActual","","","","","","null","","","","Images/BlackBeadChoiceCorrect.png","","null"
"image-button-response","89","427573","0.0-13.0-0.10","19","Low_HMMActual","","","","","","671.5","","","","Images/NewTrialBC.png","","1"
"image-button-response","90","427875","0.0-13.0-1.10","19","Low_HMMActual","","","","","","null","","","","Images/BlackBeadChoice.png","","null"
"image-button-response","91","428377","0.0-13.0-2.10","19","Low_HMMActual","","","","","","null","","","","Images/BlackBeadChoiceWrong.png","","null"
"image-button-response","92","429470","0.0-13.0-0.11","19","Low_HMMActual","","","","","","1090","","","","Images/NewTrialWC.png","","2"
"image-button-response","93","429772","0.0-13.0-1.11","19","Low_HMMActual","","","","","","null","","","","Images/WhiteBeadChoice.png","","null"
"image-button-response","94","430274","0.0-13.0-2.11","19","Low_HMMActual","","","","","","null","","","","Images/WhiteBeadChoiceWrong.png","","null"
"image-button-response","95","432077","0.0-13.0-0.12","19","Low_HMMActual","","","","","","1800.1000000014901","","","","Images/NewTrialBC.png","","0"
"image-button-response","96","432379","0.0-13.0-1.12","19","Low_HMMActual","","","","","","null","","","","Images/BlackBeadChoice.png","","null"
"image-button-response","97","432882","0.0-13.0-2.12","19","Low_HMMActual","","","","","","null","","","","Images/BlackBeadChoiceWrong.png","","null"
"image-button-response","98","433557","0.0-13.0-0.13","19","Low_HMMActual","","","","","","671.6000000014901","","","","Images/NewTrialWC.png","","2"
"image-button-response","99","433860","0.0-13.0-1.13","19","Low_HMMActual","","","","","","null","","","","Images/WhiteBeadChoice.png","","null"
"image-button-response","100","434362","0.0-13.0-2.13","19","Low_HMMActual","","","","","","null","","","","Images/WhiteBeadChoiceCorrect.png","","null"
"image-button-response","101","434485","0.0-13.0-0.14","19","Low_HMMActual","","","","","","111.39999999850988","","","","Images/NewTrialWC.png","","2"
"image-button-response","102","434788","0.0-13.0-1.14","19","Low_HMMActual","","","","","","null","","","","Images/WhiteBeadChoice.png","","null"
"image-button-response","103","435291","0.0-13.0-2.14","19","Low_HMMActual","","","","","","null","","","","Images/WhiteBeadChoiceCorrect.png","","null"
"image-button-response","104","436125","0.0-13.0-0.15","19","Low_HMMActual","","","","","","831","","","","Images/NewTrialWC.png","","2"
"image-button-response","105","436427","0.0-13.0-1.15","19","Low_HMMActual","","","","","","null","","","","Images/WhiteBeadChoice.png","","null"
"image-button-response","106","436929","0.0-13.0-2.15","19","Low_HMMActual","","","","","","null","","","","Images/WhiteBeadChoiceCorrect.png","","null"
"image-button-response","107","437149","0.0-13.0-0.16","19","Low_HMMActual","","","","","","217.19999999552965","","","","Images/NewTrialWC.png","","2"
"image-button-response","108","437452","0.0-13.0-1.16","19","Low_HMMActual","","","","","","null","","","","Images/WhiteBeadChoice.png","","null"
"image-button-response","109","437954","0.0-13.0-2.16","19","Low_HMMActual","","","","","","null","","","","Images/WhiteBeadChoiceWrong.png","","null"
"image-button-response","110","438485","0.0-13.0-0.17","19","Low_HMMActual","","","","","","528.2000000029802","","","","Images/NewTrialBC.png","","0"
"image-button-response","111","438787","0.0-13.0-1.17","19","Low_HMMActual","","","","","","null","","","","Images/BlackBeadChoice.png","","null"
"image-button-response","112","439289","0.0-13.0-2.17","19","Low_HMMActual","","","","","","426.69999999552965","","","","Images/BlackBeadChoiceCorrect.png","","0"
"image-button-response","113","440253","0.0-13.0-0.18","19","Low_HMMActual","","","","","","960.6000000014901","","","","Images/NewTrialBC.png","","0"
"image-button-response","114","440556","0.0-13.0-1.18","19","Low_HMMActual","","","","","","null","","","","Images/BlackBeadChoice.png","","null"
"image-button-response","115","441058","0.0-13.0-2.18","19","Low_HMMActual","","","","","","366.5","","","","Images/BlackBeadChoiceCorrect.png","","0"
"image-button-response","116","441477","0.0-13.0-0.19","19","Low_HMMActual","","","","","","415","","","","Images/NewTrialBC.png","","0"
"image-button-response","117","441780","0.0-13.0-1.19","19","Low_HMMActual","","","","","","null","","","","Images/BlackBeadChoice.png","","null"
"image-button-response","118","442283","0.0-13.0-2.19","19","Low_HMMActual","","","","","","null","","","","Images/BlackBeadChoiceCorrect.png","","null"
"image-button-response","119","442373","0.0-13.0-0.20","19","Low_HMMActual","","","","","","87","","","","Images/NewTrialBC.png","","0"
"image-button-response","120","442676","0.0-13.0-1.20","19","Low_HMMActual","","","","","","null","","","","Images/BlackBeadChoice.png","","null"
"image-button-response","121","443179","0.0-13.0-2.20","19","Low_HMMActual","","","","","","null","","","","Images/BlackBeadChoiceCorrect.png","","null"
"image-button-response","122","443485","0.0-13.0-0.21","19","Low_HMMActual","","","","","","302.6000000014901","","","","Images/NewTrialBC.png","","1"
"image-button-response","123","443788","0.0-13.0-1.21","19","Low_HMMActual","","","","","","null","","","","Images/BlackBeadChoice.png","","null"
"image-button-response","124","444290","0.0-13.0-2.21","19","Low_HMMActual","","","","","","null","","","","Images/BlackBeadChoiceWrong.png","","null"
"image-button-response","125","445222","0.0-13.0-0.22","19","Low_HMMActual","","","","","","927.8999999985099","","","","Images/NewTrialWC.png","","2"
"image-button-response","126","445524","0.0-13.0-1.22","19","Low_HMMActual","","","","","","null","","","","Images/WhiteBeadChoice.png","","null"
"image-button-response","127","446026","0.0-13.0-2.22","19","Low_HMMActual","","","","","","null","","","","Images/WhiteBeadChoiceWrong.png","","null"
"image-button-response","128","447277","0.0-13.0-0.23","19","Low_HMMActual","","","","","","1247.7000000029802","","","","Images/NewTrialBC.png","","0"
"image-button-response","129","447579","0.0-13.0-1.23","19","Low_HMMActual","","","","","","null","","","","Images/BlackBeadChoice.png","","null"
"image-button-response","130","448081","0.0-13.0-2.23","19","Low_HMMActual","","","","","","null","","","","Images/BlackBeadChoiceWrong.png","","null"
"image-button-response","131","450197","0.0-13.0-0.24","19","Low_HMMActual","","","","","","2112.3000000044703","","","","Images/NewTrialWC.png","","2"
"image-button-response","132","450500","0.0-13.0-1.24","19","Low_HMMActual","","","","","","null","","","","Images/WhiteBeadChoice.png","","null"
"image-button-response","133","451003","0.0-13.0-2.24","19","Low_HMMActual","","","","","","null","","","","Images/WhiteBeadChoiceWrong.png","","null"
"image-button-response","134","451581","0.0-13.0-0.25","19","Low_HMMActual","","","","","","574.7000000029802","","","","Images/NewTrialBC.png","","0"
"image-button-response","135","451883","0.0-13.0-1.25","19","Low_HMMActual","","","","","","null","","","","Images/BlackBeadChoice.png","","null"
"image-button-response","136","452385","0.0-13.0-2.25","19","Low_HMMActual","","","","","","null","","","","Images/BlackBeadChoiceWrong.png","","null"
"image-button-response","137","452846","0.0-13.0-0.26","19","Low_HMMActual","","","","","","456.80000000447035","","","","Images/NewTrialWC.png","","3"
"image-button-response","138","453148","0.0-13.0-1.26","19","Low_HMMActual","","","","","","null","","","","Images/WhiteBeadChoice.png","","null"
"image-button-response","139","453650","0.0-13.0-2.26","19","Low_HMMActual","","","","","","null","","","","Images/WhiteBeadChoiceWrong.png","","null"
"image-button-response","140","454317","0.0-13.0-0.27","19","Low_HMMActual","","","","","","663.3000000044703","","","","Images/NewTrialBC.png","","0"
"image-button-response","141","454620","0.0-13.0-1.27","19","Low_HMMActual","","","","","","null","","","","Images/BlackBeadChoice.png","","null"
"image-button-response","142","455122","0.0-13.0-2.27","19","Low_HMMActual","","","","","","null","","","","Images/BlackBeadChoiceCorrect.png","","null"
"image-button-response","143","455685","0.0-13.0-0.28","19","Low_HMMActual","","","","","","559.8999999985099","","","","Images/NewTrialBC.png","","0"
"image-button-response","144","455989","0.0-13.0-1.28","19","Low_HMMActual","","","","","","null","","","","Images/BlackBeadChoice.png","","null"
"image-button-response","145","456491","0.0-13.0-2.28","19","Low_HMMActual","","","","","","null","","","","Images/BlackBeadChoiceWrong.png","","null"
"image-button-response","146","457213","0.0-13.0-0.29","19","Low_HMMActual","","","","","","718.3999999985099","","","","Images/NewTrialWC.png","","2"
"image-button-response","147","457516","0.0-13.0-1.29","19","Low_HMMActual","","","","","","null","","","","Images/WhiteBeadChoice.png","","null"
"image-button-response","148","458019","0.0-13.0-2.29","19","Low_HMMActual","","","","","","null","","","","Images/WhiteBeadChoiceWrong.png","","null"
"image-button-response","149","458437","0.0-13.0-0.30","19","Low_HMMActual","","","","","","415.20000000298023","","","","Images/NewTrialBC.png","","0"
"image-button-response","150","458740","0.0-13.0-1.30","19","Low_HMMActual","","","","","","null","","","","Images/BlackBeadChoice.png","","null"
"image-button-response","151","459243","0.0-13.0-2.30","19","Low_HMMActual","","","","","","null","","","","Images/BlackBeadChoiceWrong.png","","null"
"image-button-response","152","459886","0.0-13.0-0.31","19","Low_HMMActual","","","","","","639.1000000014901","","","","Images/NewTrialWC.png","","3"
"image-button-response","153","460188","0.0-13.0-1.31","19","Low_HMMActual","","","","","","null","","","","Images/WhiteBeadChoice.png","","null"
"image-button-response","154","460690","0.0-13.0-2.31","19","Low_HMMActual","","","","","","null","","","","Images/WhiteBeadChoiceCorrect.png","","null"
"image-button-response","155","461465","0.0-13.0-0.32","19","Low_HMMActual","","","","","","772.3999999985099","","","","Images/NewTrialWC.png","","3"
"image-button-response","156","461767","0.0-13.0-1.32","19","Low_HMMActual","","","","","","null","","","","Images/WhiteBeadChoice.png","","null"
"image-button-response","157","462270","0.0-13.0-2.32","19","Low_HMMActual","","","","","","null","","","","Images/WhiteBeadChoiceCorrect.png","","null"
"image-button-response","158","462446","0.0-13.0-0.33","19","Low_HMMActual","","","","","","171.70000000298023","","","","Images/NewTrialWC.png","","3"
"image-button-response","159","462748","0.0-13.0-1.33","19","Low_HMMActual","","","","","","null","","","","Images/WhiteBeadChoice.png","","null"
"image-button-response","160","463251","0.0-13.0-2.33","19","Low_HMMActual","","","","","","null","","","","Images/WhiteBeadChoiceCorrect.png","","null"
"image-button-response","161","463342","0.0-13.0-0.34","19","Low_HMMActual","","","","","","86.60000000149012","","","","Images/NewTrialWC.png","","3"
"image-button-response","162","463644","0.0-13.0-1.34","19","Low_HMMActual","","","","","","null","","","","Images/WhiteBeadChoice.png","","null"
"image-button-response","163","464155","0.0-13.0-2.34","19","Low_HMMActual","","","","","","null","","","","Images/WhiteBeadChoiceWrong.png","","null"
"image-button-response","164","465229","0.0-13.0-0.35","19","Low_HMMActual","","","","","","1071.8000000044703","","","","Images/NewTrialBC.png","","0"
"image-button-response","165","465531","0.0-13.0-1.35","19","Low_HMMActual","","","","","","null","","","","Images/BlackBeadChoice.png","","null"
"image-button-response","166","466033","0.0-13.0-2.35","19","Low_HMMActual","","","","","","null","","","","Images/BlackBeadChoiceWrong.png","","null"
"image-button-response","167","466637","0.0-13.0-0.36","19","Low_HMMActual","","","","","","600.1000000014901","","","","Images/NewTrialWC.png","","2"
"image-button-response","168","466939","0.0-13.0-1.36","19","Low_HMMActual","","","","","","null","","","","Images/WhiteBeadChoice.png","","null"
"image-button-response","169","467441","0.0-13.0-2.36","19","Low_HMMActual","","","","","","null","","","","Images/WhiteBeadChoiceWrong.png","","null"
"image-button-response","170","468133","0.0-13.0-0.37","19","Low_HMMActual","","","","","","688.2000000029802","","","","Images/NewTrialBC.png","","2"
"image-button-response","171","468435","0.0-13.0-1.37","19","Low_HMMActual","","","","","","null","","","","Images/WhiteBeadChoice.png","","null"
"image-button-response","172","468938","0.0-13.0-2.37","19","Low_HMMActual","","","","","","null","","","","Images/WhiteBeadChoiceWrong.png","","null"
"image-button-response","173","469445","0.0-13.0-0.38","19","Low_HMMActual","","","","","","503.5","","","","Images/NewTrialBC.png","","2"
"image-button-response","174","469748","0.0-13.0-1.38","19","Low_HMMActual","","","","","","null","","","","Images/WhiteBeadChoice.png","","null"
"image-button-response","175","470251","0.0-13.0-2.38","19","Low_HMMActual","","","","","","null","","","","Images/WhiteBeadChoiceWrong.png","","null"
"image-button-response","176","470701","0.0-13.0-0.39","19","Low_HMMActual","","","","","","446.70000000298023","","","","Images/NewTrialBC.png","","0"
"image-button-response","177","471003","0.0-13.0-1.39","19","Low_HMMActual","","","","","","null","","","","Images/BlackBeadChoice.png","","null"
"image-button-response","178","471505","0.0-13.0-2.39","19","Low_HMMActual","","","","","","null","","","","Images/BlackBeadChoiceWrong.png","","null"
"image-button-response","179","471749","0.0-13.0-0.40","19","Low_HMMActual","","","","","","241.30000000447035","","","","Images/NewTrialWC.png","","2"
"image-button-response","180","472052","0.0-13.0-1.40","19","Low_HMMActual","","","","","","null","","","","Images/WhiteBeadChoice.png","","null"
"image-button-response","181","472554","0.0-13.0-2.40","19","Low_HMMActual","","","","","","null","","","","Images/WhiteBeadChoiceCorrect.png","","null"
"image-button-response","182","472630","0.0-13.0-0.41","19","Low_HMMActual","","","","","","62.100000001490116","","","","Images/NewTrialWC.png","","2"
"image-button-response","183","472932","0.0-13.0-1.41","19","Low_HMMActual","","","","","","null","","","","Images/WhiteBeadChoice.png","","null"
"image-button-response","184","473435","0.0-13.0-2.41","19","Low_HMMActual","","","","","","null","","","","Images/WhiteBeadChoiceCorrect.png","","null"
"image-button-response","185","473597","0.0-13.0-0.42","19","Low_HMMActual","","","","","","159","","","","Images/NewTrialWC.png","","2"
"image-button-response","186","473900","0.0-13.0-1.42","19","Low_HMMActual","","","","","","null","","","","Images/WhiteBeadChoice.png","","null"
"image-button-response","187","474402","0.0-13.0-2.42","19","Low_HMMActual","","","","","","null","","","","Images/WhiteBeadChoiceWrong.png","","null"
"image-button-response","188","476278","0.0-13.0-0.43","19","Low_HMMActual","","","","","","1872.7999999970198","","","","Images/NewTrialBC.png","","3"
"image-button-response","189","476581","0.0-13.0-1.43","19","Low_HMMActual","","","","","","null","","","","Images/WhiteBeadChoice.png","","null"
"image-button-response","190","477090","0.0-13.0-2.43","19","Low_HMMActual","","","","","","null","","","","Images/WhiteBeadChoiceCorrect.png","","null"
"image-button-response","191","480021","0.0-13.0-0.44","19","Low_HMMActual","","","","","","2927.9000000059605","","","","Images/NewTrialWC.png","","2"
"image-button-response","192","480324","0.0-13.0-1.44","19","Low_HMMActual","","","","","","null","","","","Images/WhiteBeadChoice.png","","null"
"image-button-response","193","480826","0.0-13.0-2.44","19","Low_HMMActual","","","","","","null","","","","Images/WhiteBeadChoiceWrong.png","","null"
"image-button-response","194","516237","0.0-13.0-0.45","19","Low_HMMActual","","","","","","35407.19999999553","","","","Images/NewTrialBC.png","","3"
"image-button-response","195","516540","0.0-13.0-1.45","19","Low_HMMActual","","","","","","null","","","","Images/WhiteBeadChoice.png","","null"
"image-button-response","196","517043","0.0-13.0-2.45","19","Low_HMMActual","","","","","","null","","","","Images/WhiteBeadChoiceWrong.png","","null"
"image-button-response","197","519149","0.0-13.0-0.46","19","Low_HMMActual","","","","","","2102.1999999955297","","","","Images/NewTrialBC.png","","3"
"image-button-response","198","519452","0.0-13.0-1.46","19","Low_HMMActual","","","","","","null","","","","Images/WhiteBeadChoice.png","","null"
"image-button-response","199","519955","0.0-13.0-2.46","19","Low_HMMActual","","","","","","null","","","","Images/WhiteBeadChoiceCorrect.png","","null"
"image-button-response","200","521061","0.0-13.0-0.47","19","Low_HMMActual","","","","","","1102.3999999985099","","","","Images/NewTrialWC.png","","3"
"image-button-response","201","521365","0.0-13.0-1.47","19","Low_HMMActual","","","","","","null","","","","Images/WhiteBeadChoice.png","","null"
"image-button-response","202","521867","0.0-13.0-2.47","19","Low_HMMActual","","","","","","null","","","","Images/WhiteBeadChoiceCorrect.png","","null"
"image-button-response","203","522597","0.0-13.0-0.48","19","Low_HMMActual","","","","","","726.7999999970198","","","","Images/NewTrialWC.png","","2"
"image-button-response","204","522899","0.0-13.0-1.48","19","Low_HMMActual","","","","","","null","","","","Images/WhiteBeadChoice.png","","null"
"image-button-response","205","523402","0.0-13.0-2.48","19","Low_HMMActual","","","","","","431","","","","Images/WhiteBeadChoiceCorrect.png","","2"
"image-button-response","206","523917","0.0-13.0-0.49","19","Low_HMMActual","","","","","","511.6000000014901","","","","Images/NewTrialWC.png","","2"
"image-button-response","207","524220","0.0-13.0-1.49","19","Low_HMMActual","","","","","","null","","","","Images/WhiteBeadChoice.png","","null"
"image-button-response","208","524723","0.0-13.0-2.49","19","Low_HMMActual","","","","","","389.6000000014901","","","","Images/WhiteBeadChoiceCorrect.png","","2"
"image-button-response","209","525485","0.0-13.0-0.50","19","Low_HMMActual","","","","","","759","","","","Images/NewTrialWC.png","","2"
"image-button-response","210","525788","0.0-13.0-1.50","19","Low_HMMActual","","","","","","null","","","","Images/WhiteBeadChoice.png","","null"
"image-button-response","211","526290","0.0-13.0-2.50","19","Low_HMMActual","","","","","","null","","","","Images/WhiteBeadChoiceWrong.png","","null"
"image-button-response","212","526749","0.0-13.0-0.51","19","Low_HMMActual","","","","","","456.29999999701977","","","","Images/NewTrialBC.png","","2"
"image-button-response","213","527052","0.0-13.0-1.51","19","Low_HMMActual","","","","","","null","","","","Images/WhiteBeadChoice.png","","null"
"image-button-response","214","527555","0.0-13.0-2.51","19","Low_HMMActual","","","","","","null","","","","Images/WhiteBeadChoiceWrong.png","","null"
"image-button-response","215","528237","0.0-13.0-0.52","19","Low_HMMActual","","","","","","678.8000000044703","","","","Images/NewTrialBC.png","","2"
"image-button-response","216","528540","0.0-13.0-1.52","19","Low_HMMActual","","","","","","null","","","","Images/WhiteBeadChoice.png","","null"
"image-button-response","217","529043","0.0-13.0-2.52","19","Low_HMMActual","","","","","","405.70000000298023","","","","Images/WhiteBeadChoiceWrong.png","","2"
"image-button-response","218","530061","0.0-13.0-0.53","19","Low_HMMActual","","","","","","1013.2000000029802","","","","Images/NewTrialBC.png","","0"
"image-button-response","219","530363","0.0-13.0-1.53","19","Low_HMMActual","","","","","","null","","","","Images/BlackBeadChoice.png","","null"
"image-button-response","220","530866","0.0-13.0-2.53","19","Low_HMMActual","","","","","","null","","","","Images/BlackBeadChoiceWrong.png","","null"
"image-button-response","221","531989","0.0-13.0-0.54","19","Low_HMMActual","","","","","","1120","","","","Images/NewTrialWC.png","","0"
"image-button-response","222","532292","0.0-13.0-1.54","19","Low_HMMActual","","","","","","null","","","","Images/BlackBeadChoice.png","","null"
"image-button-response","223","532793","0.0-13.0-2.54","19","Low_HMMActual","","","","","","495.3999999985099","","","","Images/BlackBeadChoiceCorrect.png","","0"
"image-button-response","224","533493","0.0-13.0-0.55","19","Low_HMMActual","","","","","","696.1000000014901","","","","Images/NewTrialBC.png","","0"
"image-button-response","225","533795","0.0-13.0-1.55","19","Low_HMMActual","","","","","","null","","","","Images/BlackBeadChoice.png","","null"
"image-button-response","226","534298","0.0-13.0-2.55","19","Low_HMMActual","","","","","","422.3999999985099","","","","Images/BlackBeadChoiceCorrect.png","","0"
"image-button-response","227","534821","0.0-13.0-0.56","19","Low_HMMActual","","","","","","516.7999999970198","","","","Images/NewTrialBC.png","","0"
"image-button-response","228","535131","0.0-13.0-1.56","19","Low_HMMActual","","","","","","null","","","","Images/BlackBeadChoice.png","","null"
"image-button-response","229","535633","0.0-13.0-2.56","19","Low_HMMActual","","","","","","null","","","","Images/BlackBeadChoiceCorrect.png","","null"
"image-button-response","230","535829","0.0-13.0-0.57","19","Low_HMMActual","","","","","","192.30000000447035","","","","Images/NewTrialBC.png","","0"
"image-button-response","231","536132","0.0-13.0-1.57","19","Low_HMMActual","","","","","","null","","","","Images/BlackBeadChoice.png","","null"
"image-button-response","232","536635","0.0-13.0-2.57","19","Low_HMMActual","","","","","","493.8999999985099","","","","Images/BlackBeadChoiceCorrect.png","","0"
"image-button-response","233","537277","0.0-13.0-0.58","19","Low_HMMActual","","","","","","638.3999999985099","","","","Images/NewTrialBC.png","","0"
"image-button-response","234","537580","0.0-13.0-1.58","19","Low_HMMActual","","","","","","null","","","","Images/BlackBeadChoice.png","","null"
"image-button-response","235","538083","0.0-13.0-2.58","19","Low_HMMActual","","","","","","478.1000000014901","","","","Images/BlackBeadChoiceCorrect.png","","0"
"image-button-response","236","538597","0.0-13.0-0.59","19","Low_HMMActual","","","","","","510.80000000447035","","","","Images/NewTrialBC.png","","0"
"image-button-response","237","538899","0.0-13.0-1.59","19","Low_HMMActual","","","","","","null","","","","Images/BlackBeadChoice.png","","null"
"image-button-response","238","539402","0.0-13.0-2.59","19","Low_HMMActual","","","","","","null","","","","Images/BlackBeadChoiceWrong.png","","null"
"image-button-response","239","539517","0.0-13.0-0.60","19","Low_HMMActual","","","","","","112.60000000149012","","","","Images/NewTrialWC.png","","0"
"image-button-response","240","539820","0.0-13.0-1.60","19","Low_HMMActual","","","","","","null","","","","Images/BlackBeadChoice.png","","null"
"image-button-response","241","540323","0.0-13.0-2.60","19","Low_HMMActual","","","","","","null","","","","Images/BlackBeadChoiceWrong.png","","null"
"image-button-response","242","540861","0.0-13.0-0.61","19","Low_HMMActual","","","","","","534.8000000044703","","","","Images/NewTrialWC.png","","0"
"image-button-response","243","541164","0.0-13.0-1.61","19","Low_HMMActual","","","","","","null","","","","Images/BlackBeadChoice.png","","null"
"image-button-response","244","541667","0.0-13.0-2.61","19","Low_HMMActual","","","","","","null","","","","Images/BlackBeadChoiceWrong.png","","null"
"image-button-response","245","541805","0.0-13.0-0.62","19","Low_HMMActual","","","","","","124.20000000298023","","","","Images/NewTrialWC.png","","0"
"image-button-response","246","542107","0.0-13.0-1.62","19","Low_HMMActual","","","","","","null","","","","Images/BlackBeadChoice.png","","null"
"image-button-response","247","542609","0.0-13.0-2.62","19","Low_HMMActual","","","","","","null","","","","Images/BlackBeadChoiceCorrect.png","","null"
"image-button-response","248","543021","0.0-13.0-0.63","19","Low_HMMActual","","","","","","409.20000000298023","","","","Images/NewTrialBC.png","","0"
"image-button-response","249","543324","0.0-13.0-1.63","19","Low_HMMActual","","","","","","null","","","","Images/BlackBeadChoice.png","","null"
"image-button-response","250","543826","0.0-13.0-2.63","19","Low_HMMActual","","","","","","null","","","","Images/BlackBeadChoiceCorrect.png","","null"
"image-button-response","251","544085","0.0-13.0-0.64","19","Low_HMMActual","","","","","","255.70000000298023","","","","Images/NewTrialBC.png","","0"
"image-button-response","252","544388","0.0-13.0-1.64","19","Low_HMMActual","","","","","","null","","","","Images/BlackBeadChoice.png","","null"
"image-button-response","253","544891","0.0-13.0-2.64","19","Low_HMMActual","","","","","","null","","","","Images/BlackBeadChoiceWrong.png","","null"
"image-button-response","254","545941","0.0-13.0-0.65","19","Low_HMMActual","","","","","","1047.3000000044703","","","","Images/NewTrialWC.png","","1"
"image-button-response","255","546245","0.0-13.0-1.65","19","Low_HMMActual","","","","","","null","","","","Images/BlackBeadChoice.png","","null"
"image-button-response","256","546748","0.0-13.0-2.65","19","Low_HMMActual","","","","","","null","","","","Images/BlackBeadChoiceCorrect.png","","null"
"image-button-response","257","547053","0.0-13.0-0.66","19","Low_HMMActual","","","","","","301.6000000014901","","","","Images/NewTrialBC.png","","1"
"image-button-response","258","547356","0.0-13.0-1.66","19","Low_HMMActual","","","","","","null","","","","Images/BlackBeadChoice.png","","null"
"image-button-response","259","547859","0.0-13.0-2.66","19","Low_HMMActual","","","","","","null","","","","Images/BlackBeadChoiceCorrect.png","","null"
"image-button-response","260","548349","0.0-13.0-0.67","19","Low_HMMActual","","","","","","486.8999999985099","","","","Images/NewTrialBC.png","","0"
"image-button-response","261","548662","0.0-13.0-1.67","19","Low_HMMActual","","","","","","null","","","","Images/BlackBeadChoice.png","","null"
"image-button-response","262","549164","0.0-13.0-2.67","19","Low_HMMActual","","","","","","476.79999999701977","","","","Images/BlackBeadChoiceCorrect.png","","0"
"image-button-response","263","549645","0.0-13.0-0.68","19","Low_HMMActual","","","","","","477.5","","","","Images/NewTrialBC.png","","0"
"image-button-response","264","549948","0.0-13.0-1.68","19","Low_HMMActual","","","","","","null","","","","Images/BlackBeadChoice.png","","null"
"image-button-response","265","550450","0.0-13.0-2.68","19","Low_HMMActual","","","","","","null","","","","Images/BlackBeadChoiceWrong.png","","null"
"image-button-response","266","550901","0.0-13.0-0.69","19","Low_HMMActual","","","","","","447.8999999985099","","","","Images/NewTrialWC.png","","0"
"image-button-response","267","551204","0.0-13.0-1.69","19","Low_HMMActual","","","","","","null","","","","Images/BlackBeadChoice.png","","null"
"image-button-response","268","551706","0.0-13.0-2.69","19","Low_HMMActual","","","","","","null","","","","Images/BlackBeadChoiceCorrect.png","","null"
"image-button-response","269","551869","0.0-13.0-0.70","19","Low_HMMActual","","","","","","159.39999999850988","","","","Images/NewTrialBC.png","","0"
"image-button-response","270","552171","0.0-13.0-1.70","19","Low_HMMActual","","","","","","null","","","","Images/BlackBeadChoice.png","","null"
"image-button-response","271","552674","0.0-13.0-2.70","19","Low_HMMActual","","","","","","null","","","","Images/BlackBeadChoiceWrong.png","","null"
"image-button-response","272","553397","0.0-13.0-0.71","19","Low_HMMActual","","","","","","720.6000000014901","","","","Images/NewTrialWC.png","","1"
"image-button-response","273","553700","0.0-13.0-1.71","19","Low_HMMActual","","","","","","null","","","","Images/BlackBeadChoice.png","","null"
"image-button-response","274","554202","0.0-13.0-2.71","19","Low_HMMActual","","","","","","null","","","","Images/BlackBeadChoiceCorrect.png","","null"
"image-button-response","275","554749","0.0-13.0-0.72","19","Low_HMMActual","","","","","","543","","","","Images/NewTrialBC.png","","1"
"image-button-response","276","555051","0.0-13.0-1.72","19","Low_HMMActual","","","","","","null","","","","Images/BlackBeadChoice.png","","null"
"image-button-response","277","555554","0.0-13.0-2.72","19","Low_HMMActual","","","","","","null","","","","Images/BlackBeadChoiceCorrect.png","","null"
"image-button-response","278","556165","0.0-13.0-0.73","19","Low_HMMActual","","","","","","605.3999999985099","","","","Images/NewTrialBC.png","","1"
"image-button-response","279","556468","0.0-13.0-1.73","19","Low_HMMActual","","","","","","null","","","","Images/BlackBeadChoice.png","","null"
"image-button-response","280","556970","0.0-13.0-2.73","19","Low_HMMActual","","","","","","null","","","","Images/BlackBeadChoiceCorrect.png","","null"
"image-button-response","281","557485","0.0-13.0-0.74","19","Low_HMMActual","","","","","","511.30000000447035","","","","Images/NewTrialBC.png","","1"
"image-button-response","282","557788","0.0-13.0-1.74","19","Low_HMMActual","","","","","","null","","","","Images/BlackBeadChoice.png","","null"
"image-button-response","283","558291","0.0-13.0-2.74","19","Low_HMMActual","","","","","","null","","","","Images/BlackBeadChoiceCorrect.png","","null"
"image-button-response","284","558581","0.0-13.0-0.75","19","Low_HMMActual","","","","","","286.79999999701977","","","","Images/NewTrialBC.png","","0"
"image-button-response","285","558884","0.0-13.0-1.75","19","Low_HMMActual","","","","","","null","","","","Images/BlackBeadChoice.png","","null"
"image-button-response","286","559387","0.0-13.0-2.75","19","Low_HMMActual","","","","","","null","","","","Images/BlackBeadChoiceCorrect.png","","null"
"image-button-response","287","559597","0.0-13.0-0.76","19","Low_HMMActual","","","","","","206.60000000149012","","","","Images/NewTrialBC.png","","0"
"image-button-response","288","559902","0.0-13.0-1.76","19","Low_HMMActual","","","","","","null","","","","Images/BlackBeadChoice.png","","null"
"image-button-response","289","560404","0.0-13.0-2.76","19","Low_HMMActual","","","","","","null","","","","Images/BlackBeadChoiceCorrect.png","","null"
"image-button-response","290","560477","0.0-13.0-0.77","19","Low_HMMActual","","","","","","69.19999999552965","","","","Images/NewTrialBC.png","","0"
"image-button-response","291","560779","0.0-13.0-1.77","19","Low_HMMActual","","","","","","null","","","","Images/BlackBeadChoice.png","","null"
"image-button-response","292","561281","0.0-13.0-2.77","19","Low_HMMActual","","","","","","null","","","","Images/BlackBeadChoiceWrong.png","","null"
"image-button-response","293","563373","0.0-13.0-0.78","19","Low_HMMActual","","","","","","2089.2000000029802","","","","Images/NewTrialWC.png","","0"
"image-button-response","294","563676","0.0-13.0-1.78","19","Low_HMMActual","","","","","","null","","","","Images/BlackBeadChoice.png","","null"
"image-button-response","295","564178","0.0-13.0-2.78","19","Low_HMMActual","","","","","","null","","","","Images/BlackBeadChoiceCorrect.png","","null"
"image-button-response","296","564261","0.0-13.0-0.79","19","Low_HMMActual","","","","","","79.29999999701977","","","","Images/NewTrialBC.png","","0"
"image-button-response","297","564563","0.0-13.0-1.79","19","Low_HMMActual","","","","","","null","","","","Images/BlackBeadChoice.png","","null"
"image-button-response","298","565066","0.0-13.0-2.79","19","Low_HMMActual","","","","","","null","","","","Images/BlackBeadChoiceCorrect.png","","null"
"image-button-response","299","565653","0.0-13.0-0.80","19","Low_HMMActual","","","","","","582.7999999970198","","","","Images/NewTrialBC.png","","0"
"image-button-response","300","565956","0.0-13.0-1.80","19","Low_HMMActual","","","","","","null","","","","Images/BlackBeadChoice.png","","null"
"image-button-response","301","566459","0.0-13.0-2.80","19","Low_HMMActual","","","","","","null","","","","Images/BlackBeadChoiceWrong.png","","null"
"image-button-response","302","567005","0.0-13.0-0.81","19","Low_HMMActual","","","","","","543.3999999985099","","","","Images/NewTrialWC.png","","0"
"image-button-response","303","567308","0.0-13.0-1.81","19","Low_HMMActual","","","","","","null","","","","Images/BlackBeadChoice.png","","null"
"image-button-response","304","567813","0.0-13.0-2.81","19","Low_HMMActual","","","","","","null","","","","Images/BlackBeadChoiceWrong.png","","null"
"image-button-response","305","568309","0.0-13.0-0.82","19","Low_HMMActual","","","","","","492.8999999985099","","","","Images/NewTrialWC.png","","0"
"image-button-response","306","568612","0.0-13.0-1.82","19","Low_HMMActual","","","","","","null","","","","Images/BlackBeadChoice.png","","null"
"image-button-response","307","569115","0.0-13.0-2.82","19","Low_HMMActual","","","","","","null","","","","Images/BlackBeadChoiceCorrect.png","","null"
"image-button-response","308","569253","0.0-13.0-0.83","19","Low_HMMActual","","","","","","134.89999999850988","","","","Images/NewTrialBC.png","","0"
"image-button-response","309","569556","0.0-13.0-1.83","19","Low_HMMActual","","","","","","null","","","","Images/BlackBeadChoice.png","","null"
"image-button-response","310","570059","0.0-13.0-2.83","19","Low_HMMActual","","","","","","null","","","","Images/BlackBeadChoiceCorrect.png","","null"
"image-button-response","311","570301","0.0-13.0-0.84","19","Low_HMMActual","","","","","","238.5","","","","Images/NewTrialBC.png","","0"
"image-button-response","312","570606","0.0-13.0-1.84","19","Low_HMMActual","","","","","","null","","","","Images/BlackBeadChoice.png","","null"
"image-button-response","313","571109","0.0-13.0-2.84","19","Low_HMMActual","","","","","","null","","","","Images/BlackBeadChoiceCorrect.png","","null"
"image-button-response","314","571269","0.0-13.0-0.85","19","Low_HMMActual","","","","","","157","","","","Images/NewTrialBC.png","","0"
"image-button-response","315","571571","0.0-13.0-1.85","19","Low_HMMActual","","","","","","null","","","","Images/BlackBeadChoice.png","","null"
"image-button-response","316","572074","0.0-13.0-2.85","19","Low_HMMActual","","","","","","null","","","","Images/BlackBeadChoiceCorrect.png","","null"
"image-button-response","317","572237","0.0-13.0-0.86","19","Low_HMMActual","","","","","","160.10000000149012","","","","Images/NewTrialBC.png","","0"
"image-button-response","318","572538","0.0-13.0-1.86","19","Low_HMMActual","","","","","","null","","","","Images/BlackBeadChoice.png","","null"
"image-button-response","319","573041","0.0-13.0-2.86","19","Low_HMMActual","","","","","","null","","","","Images/BlackBeadChoiceWrong.png","","null"
"image-button-response","320","573733","0.0-13.0-0.87","19","Low_HMMActual","","","","","","689","","","","Images/NewTrialWC.png","","2"
"image-button-response","321","574035","0.0-13.0-1.87","19","Low_HMMActual","","","","","","null","","","","Images/WhiteBeadChoice.png","","null"
"image-button-response","322","574540","0.0-13.0-2.87","19","Low_HMMActual","","","","","","null","","","","Images/WhiteBeadChoiceCorrect.png","","null"
"image-button-response","323","575389","0.0-13.0-0.88","19","Low_HMMActual","","","","","","845.2000000029802","","","","Images/NewTrialWC.png","","2"
"image-button-response","324","575691","0.0-13.0-1.88","19","Low_HMMActual","","","","","","null","","","","Images/WhiteBeadChoice.png","","null"
"image-button-response","325","576202","0.0-13.0-2.88","19","Low_HMMActual","","","","","","446.19999999552965","","","","Images/WhiteBeadChoiceCorrect.png","","2"
"image-button-response","326","576773","0.0-13.0-0.89","19","Low_HMMActual","","","","","","566.7999999970198","","","","Images/NewTrialWC.png","","2"
"image-button-response","327","577076","0.0-13.0-1.89","19","Low_HMMActual","","","","","","null","","","","Images/WhiteBeadChoice.png","","null"
"image-button-response","328","577578","0.0-13.0-2.89","19","Low_HMMActual","","","","","","null","","","","Images/WhiteBeadChoiceWrong.png","","null"
"image-button-response","329","578109","0.0-13.0-0.90","19","Low_HMMActual","","","","","","527.6000000014901","","","","Images/NewTrialBC.png","","2"
"image-button-response","330","578412","0.0-13.0-1.90","19","Low_HMMActual","","","","","","null","","","","Images/WhiteBeadChoice.png","","null"
"image-button-response","331","578915","0.0-13.0-2.90","19","Low_HMMActual","","","","","","null","","","","Images/WhiteBeadChoiceWrong.png","","null"
"image-button-response","332","579445","0.0-13.0-0.91","19","Low_HMMActual","","","","","","523.6000000014901","","","","Images/NewTrialBC.png","","2"
"image-button-response","333","579748","0.0-13.0-1.91","19","Low_HMMActual","","","","","","null","","","","Images/WhiteBeadChoice.png","","null"
"image-button-response","334","580250","0.0-13.0-2.91","19","Low_HMMActual","","","","","","null","","","","Images/WhiteBeadChoiceWrong.png","","null"
"image-button-response","335","580485","0.0-13.0-0.92","19","Low_HMMActual","","","","","","231.20000000298023","","","","Images/NewTrialBC.png","","2"
"image-button-response","336","580788","0.0-13.0-1.92","19","Low_HMMActual","","","","","","null","","","","Images/WhiteBeadChoice.png","","null"
"image-button-response","337","581290","0.0-13.0-2.92","19","Low_HMMActual","","","","","","null","","","","Images/WhiteBeadChoiceCorrect.png","","null"
"image-button-response","338","582117","0.0-13.0-0.93","19","Low_HMMActual","","","","","","823.6999999955297","","","","Images/NewTrialWC.png","","2"
"image-button-response","339","582420","0.0-13.0-1.93","19","Low_HMMActual","","","","","","null","","","","Images/WhiteBeadChoice.png","","null"
"image-button-response","340","582923","0.0-13.0-2.93","19","Low_HMMActual","","","","","","null","","","","Images/WhiteBeadChoiceCorrect.png","","null"
"image-button-response","341","583477","0.0-13.0-0.94","19","Low_HMMActual","","","","","","548.1000000014901","","","","Images/NewTrialWC.png","","2"
"image-button-response","342","583780","0.0-13.0-1.94","19","Low_HMMActual","","","","","","null","","","","Images/WhiteBeadChoice.png","","null"
"image-button-response","343","584291","0.0-13.0-2.94","19","Low_HMMActual","","","","","","null","","","","Images/WhiteBeadChoiceWrong.png","","null"
"image-button-response","344","585109","0.0-13.0-0.95","19","Low_HMMActual","","","","","","814.5","","","","Images/NewTrialBC.png","","3"
"image-button-response","345","585412","0.0-13.0-1.95","19","Low_HMMActual","","","","","","null","","","","Images/WhiteBeadChoice.png","","null"
"image-button-response","346","585915","0.0-13.0-2.95","19","Low_HMMActual","","","","","","null","","","","Images/WhiteBeadChoiceWrong.png","","null"
"image-button-response","347","586053","0.0-13.0-0.96","19","Low_HMMActual","","","","","","134","","","","Images/NewTrialBC.png","","3"
"image-button-response","348","586356","0.0-13.0-1.96","19","Low_HMMActual","","","","","","null","","","","Images/WhiteBeadChoice.png","","null"
"image-button-response","349","586859","0.0-13.0-2.96","19","Low_HMMActual","","","","","","null","","","","Images/WhiteBeadChoiceWrong.png","","null"
"image-button-response","350","587349","0.0-13.0-0.97","19","Low_HMMActual","","","","","","483.79999999701977","","","","Images/NewTrialBC.png","","3"
"image-button-response","351","587652","0.0-13.0-1.97","19","Low_HMMActual","","","","","","null","","","","Images/WhiteBeadChoice.png","","null"
"image-button-response","352","588154","0.0-13.0-2.97","19","Low_HMMActual","","","","","","null","","","","Images/WhiteBeadChoiceWrong.png","","null"
"image-button-response","353","588949","0.0-13.0-0.98","19","Low_HMMActual","","","","","","791.5","","","","Images/NewTrialBC.png","","0"
"image-button-response","354","589251","0.0-13.0-1.98","19","Low_HMMActual","","","","","","null","","","","Images/BlackBeadChoice.png","","null"
"image-button-response","355","589754","0.0-13.0-2.98","19","Low_HMMActual","","","","","","null","","","","Images/BlackBeadChoiceWrong.png","","null"
"image-button-response","356","589925","0.0-13.0-0.99","19","Low_HMMActual","","","","","","168.29999999701977","","","","Images/NewTrialWC.png","","0"
"image-button-response","357","590228","0.0-13.0-1.99","19","Low_HMMActual","","","","","","null","","","","Images/BlackBeadChoice.png","","null"
"image-button-response","358","590730","0.0-13.0-2.99","19","Low_HMMActual","","","","","","null","","","","Images/BlackBeadChoiceCorrect.png","","null"
"image-button-response","359","590901","0.0-13.0-0.100","19","Low_HMMActual","","","","","","166.39999999850988","","","","Images/NewTrialBC.png","","0"
"image-button-response","360","591202","0.0-13.0-1.100","19","Low_HMMActual","","","","","","null","","","","Images/BlackBeadChoice.png","","null"
"image-button-response","361","591705","0.0-13.0-2.100","19","Low_HMMActual","","","","","","null","","","","Images/BlackBeadChoiceWrong.png","","null"
"image-button-response","362","592173","0.0-13.0-0.101","19","Low_HMMActual","","","","","","464.1000000014901","","","","Images/NewTrialWC.png","","0"
"image-button-response","363","592476","0.0-13.0-1.101","19","Low_HMMActual","","","","","","null","","","","Images/BlackBeadChoice.png","","null"
"image-button-response","364","592978","0.0-13.0-2.101","19","Low_HMMActual","","","","","","null","","","","Images/BlackBeadChoiceWrong.png","","null"
"image-button-response","365","593405","0.0-13.0-0.102","19","Low_HMMActual","","","","","","423.3999999985099","","","","Images/NewTrialWC.png","","0"
"image-button-response","366","593708","0.0-13.0-1.102","19","Low_HMMActual","","","","","","null","","","","Images/BlackBeadChoice.png","","null"
"image-button-response","367","594213","0.0-13.0-2.102","19","Low_HMMActual","","","","","","null","","","","Images/BlackBeadChoiceWrong.png","","null"
"image-button-response","368","594653","0.0-13.0-0.103","19","Low_HMMActual","","","","","","436.69999999552965","","","","Images/NewTrialWC.png","","2"
"image-button-response","369","594956","0.0-13.0-1.103","19","Low_HMMActual","","","","","","null","","","","Images/WhiteBeadChoice.png","","null"
"image-button-response","370","595458","0.0-13.0-2.103","19","Low_HMMActual","","","","","","null","","","","Images/WhiteBeadChoiceWrong.png","","null"
"image-button-response","371","595597","0.0-13.0-0.104","19","Low_HMMActual","","","","","","135.89999999850988","","","","Images/NewTrialBC.png","","2"
"image-button-response","372","595899","0.0-13.0-1.104","19","Low_HMMActual","","","","","","null","","","","Images/WhiteBeadChoice.png","","null"
"image-button-response","373","596402","0.0-13.0-2.104","19","Low_HMMActual","","","","","","null","","","","Images/WhiteBeadChoiceCorrect.png","","null"
"image-button-response","374","596981","0.0-13.0-0.105","19","Low_HMMActual","","","","","","573.5","","","","Images/NewTrialWC.png","","2"
"image-button-response","375","597284","0.0-13.0-1.105","19","Low_HMMActual","","","","","","null","","","","Images/WhiteBeadChoice.png","","null"
"image-button-response","376","597787","0.0-13.0-2.105","19","Low_HMMActual","","","","","","null","","","","Images/WhiteBeadChoiceCorrect.png","","null"
"image-button-response","377","627437","0.0-13.0-0.106","19","Low_HMMActual","","","","","","29646.40000000596","","","","Images/NewTrialWC.png","","2"
"image-button-response","378","627740","0.0-13.0-1.106","19","Low_HMMActual","","","","","","null","","","","Images/WhiteBeadChoice.png","","null"
"image-button-response","379","628243","0.0-13.0-2.106","19","Low_HMMActual","","","","","","357.6000000014901","","","","Images/WhiteBeadChoiceCorrect.png","","2"
"image-button-response","380","628829","0.0-13.0-0.107","19","Low_HMMActual","","","","","","581.7999999970198","","","","Images/NewTrialWC.png","","2"
"image-button-response","381","629132","0.0-13.0-1.107","19","Low_HMMActual","","","","","","null","","","","Images/WhiteBeadChoice.png","","null"
"image-button-response","382","629635","0.0-13.0-2.107","19","Low_HMMActual","","","","","","469.3999999985099","","","","Images/WhiteBeadChoiceCorrect.png","","2"
"image-button-response","383","630229","0.0-13.0-0.108","19","Low_HMMActual","","","","","","580.1999999955297","","","","Images/NewTrialWC.png","","2"
"image-button-response","384","630531","0.0-13.0-1.108","19","Low_HMMActual","","","","","","null","","","","Images/WhiteBeadChoice.png","","null"
"image-button-response","385","631034","0.0-13.0-2.108","19","Low_HMMActual","","","","","","439","","","","Images/WhiteBeadChoiceCorrect.png","","2"
"image-button-response","386","631693","0.0-13.0-0.109","19","Low_HMMActual","","","","","","655.5999999940395","","","","Images/NewTrialWC.png","","2"
"image-button-response","387","631996","0.0-13.0-1.109","19","Low_HMMActual","","","","","","null","","","","Images/WhiteBeadChoice.png","","null"
"image-button-response","388","632499","0.0-13.0-2.109","19","Low_HMMActual","","","","","","429.80000000447035","","","","Images/WhiteBeadChoiceCorrect.png","","2"
"image-button-response","389","633029","0.0-13.0-0.110","19","Low_HMMActual","","","","","","526.7999999970198","","","","Images/NewTrialWC.png","","2"
"image-button-response","390","633332","0.0-13.0-1.110","19","Low_HMMActual","","","","","","null","","","","Images/WhiteBeadChoice.png","","null"
"image-button-response","391","633834","0.0-13.0-2.110","19","Low_HMMActual","","","","","","null","","","","Images/WhiteBeadChoiceWrong.png","","null"
"image-button-response","392","634685","0.0-13.0-0.111","19","Low_HMMActual","","","","","","839.6000000014901","","","","Images/NewTrialBC.png","","2"
"image-button-response","393","634987","0.0-13.0-1.111","19","Low_HMMActual","","","","","","null","","","","Images/WhiteBeadChoice.png","","null"
"image-button-response","394","635490","0.0-13.0-2.111","19","Low_HMMActual","","","","","","358.69999999552965","","","","Images/WhiteBeadChoiceWrong.png","","2"
"image-button-response","395","636517","0.0-13.0-0.112","19","Low_HMMActual","","","","","","1023.9000000059605","","","","Images/NewTrialBC.png","","1"
"image-button-response","396","636818","0.0-13.0-1.112","19","Low_HMMActual","","","","","","null","","","","Images/BlackBeadChoice.png","","null"
"image-button-response","397","637321","0.0-13.0-2.112","19","Low_HMMActual","","","","","","null","","","","Images/BlackBeadChoiceWrong.png","","null"
"image-button-response","398","637757","0.0-13.0-0.113","19","Low_HMMActual","","","","","","430.19999999552965","","","","Images/NewTrialWC.png","","1"
"image-button-response","399","638068","0.0-13.0-1.113","19","Low_HMMActual","","","","","","null","","","","Images/BlackBeadChoice.png","","null"
"image-button-response","400","638571","0.0-13.0-2.113","19","Low_HMMActual","","","","","","null","","","","Images/BlackBeadChoiceWrong.png","","null"
"image-button-response","401","638989","0.0-13.0-0.114","19","Low_HMMActual","","","","","","415","","","","Images/NewTrialWC.png","","1"
"image-button-response","402","639292","0.0-13.0-1.114","19","Low_HMMActual","","","","","","null","","","","Images/BlackBeadChoice.png","","null"
"image-button-response","403","639795","0.0-13.0-2.114","19","Low_HMMActual","","","","","","null","","","","Images/BlackBeadChoiceWrong.png","","null"
"image-button-response","404","640221","0.0-13.0-0.115","19","Low_HMMActual","","","","","","422.19999999552965","","","","Images/NewTrialWC.png","","2"
"image-button-response","405","640525","0.0-13.0-1.115","19","Low_HMMActual","","","","","","null","","","","Images/WhiteBeadChoice.png","","null"
"image-button-response","406","641027","0.0-13.0-2.115","19","Low_HMMActual","","","","","","445.69999999552965","","","","Images/WhiteBeadChoiceCorrect.png","","2"
"image-button-response","407","641629","0.0-13.0-0.116","19","Low_HMMActual","","","","","","598.3999999985099","","","","Images/NewTrialWC.png","","2"
"image-button-response","408","641932","0.0-13.0-1.116","19","Low_HMMActual","","","","","","null","","","","Images/WhiteBeadChoice.png","","null"
"image-button-response","409","642434","0.0-13.0-2.116","19","Low_HMMActual","","","","","","462.59999999403954","","","","Images/WhiteBeadChoiceWrong.png","","2"
"image-button-response","410","642981","0.0-13.0-0.117","19","Low_HMMActual","","","","","","543.7999999970198","","","","Images/NewTrialBC.png","","2"
"image-button-response","411","643284","0.0-13.0-1.117","19","Low_HMMActual","","","","","","null","","","","Images/WhiteBeadChoice.png","","null"
"image-button-response","412","643787","0.0-13.0-2.117","19","Low_HMMActual","","","","","","381.80000000447035","","","","Images/WhiteBeadChoiceWrong.png","","2"
"image-button-response","413","644261","0.0-13.0-0.118","19","Low_HMMActual","","","","","","470.30000000447035","","","","Images/NewTrialBC.png","","2"
"image-button-response","414","644563","0.0-13.0-1.118","19","Low_HMMActual","","","","","","null","","","","Images/WhiteBeadChoice.png","","null"
"image-button-response","415","645068","0.0-13.0-2.118","19","Low_HMMActual","","","","","","null","","","","Images/WhiteBeadChoiceWrong.png","","null"
"image-button-response","416","645685","0.0-13.0-0.119","19","Low_HMMActual","","","","","","613.6000000014901","","","","Images/NewTrialBC.png","","0"
"image-button-response","417","645987","0.0-13.0-1.119","19","Low_HMMActual","","","","","","null","","","","Images/BlackBeadChoice.png","","null"
"image-button-response","418","646489","0.0-13.0-2.119","19","Low_HMMActual","","","","","","431.5","","","","Images/BlackBeadChoiceCorrect.png","","0"
"image-button-response","419","647181","0.0-13.0-0.120","19","Low_HMMActual","","","","","","687.7999999970198","","","","Images/NewTrialBC.png","","0"
"image-button-response","420","647483","0.0-13.0-1.120","19","Low_HMMActual","","","","","","null","","","","Images/BlackBeadChoice.png","","null"
"image-button-response","421","647986","0.0-13.0-2.120","19","Low_HMMActual","","","","","","null","","","","Images/BlackBeadChoiceWrong.png","","null"
"image-button-response","422","649069","0.0-13.0-0.121","19","Low_HMMActual","","","","","","1080","","","","Images/NewTrialWC.png","","0"
"image-button-response","423","649372","0.0-13.0-1.121","19","Low_HMMActual","","","","","","null","","","","Images/BlackBeadChoice.png","","null"
"image-button-response","424","649875","0.0-13.0-2.121","19","Low_HMMActual","","","","","","null","","","","Images/BlackBeadChoiceWrong.png","","null"
"image-button-response","425","650692","0.0-13.0-0.122","19","Low_HMMActual","","","","","","811.8999999985099","","","","Images/NewTrialWC.png","","1"
"image-button-response","426","650994","0.0-13.0-1.122","19","Low_HMMActual","","","","","","null","","","","Images/BlackBeadChoice.png","","null"
"image-button-response","427","651497","0.0-13.0-2.122","19","Low_HMMActual","","","","","","null","","","","Images/BlackBeadChoiceWrong.png","","null"
"image-button-response","428","652012","0.0-13.0-0.123","19","Low_HMMActual","","","","","","512.1999999955297","","","","Images/NewTrialWC.png","","2"
"image-button-response","429","652314","0.0-13.0-1.123","19","Low_HMMActual","","","","","","null","","","","Images/WhiteBeadChoice.png","","null"
"image-button-response","430","652816","0.0-13.0-2.123","19","Low_HMMActual","","","","","","null","","","","Images/WhiteBeadChoiceWrong.png","","null"
"image-button-response","431","653661","0.0-13.0-0.124","19","Low_HMMActual","","","","","","841.6000000014901","","","","Images/NewTrialBC.png","","2"
"image-button-response","432","653965","0.0-13.0-1.124","19","Low_HMMActual","","","","","","null","","","","Images/WhiteBeadChoice.png","","null"
"image-button-response","433","654468","0.0-13.0-2.124","19","Low_HMMActual","","","","","","null","","","","Images/WhiteBeadChoiceWrong.png","","null"
"image-button-response","434","654901","0.0-13.0-0.125","19","Low_HMMActual","","","","","","429.5","","","","Images/NewTrialBC.png","","3"
"image-button-response","435","655204","0.0-13.0-1.125","19","Low_HMMActual","","","","","","null","","","","Images/WhiteBeadChoice.png","","null"
"image-button-response","436","655706","0.0-13.0-2.125","19","Low_HMMActual","","","","","","494.09999999403954","","","","Images/WhiteBeadChoiceCorrect.png","","3"
"image-button-response","437","656429","0.0-13.0-0.126","19","Low_HMMActual","","","","","","719.1999999955297","","","","Images/NewTrialWC.png","","3"
"image-button-response","438","656732","0.0-13.0-1.126","19","Low_HMMActual","","","","","","null","","","","Images/WhiteBeadChoice.png","","null"
"image-button-response","439","657234","0.0-13.0-2.126","19","Low_HMMActual","","","","","","null","","","","Images/WhiteBeadChoiceWrong.png","","null"
"image-button-response","440","657525","0.0-13.0-0.127","19","Low_HMMActual","","","","","","285.20000000298023","","","","Images/NewTrialBC.png","","3"
"image-button-response","441","657828","0.0-13.0-1.127","19","Low_HMMActual","","","","","","null","","","","Images/WhiteBeadChoice.png","","null"
"image-button-response","442","658330","0.0-13.0-2.127","19","Low_HMMActual","","","","","","null","","","","Images/WhiteBeadChoiceWrong.png","","null"
"image-button-response","443","658884","0.0-13.0-0.128","19","Low_HMMActual","","","","","","551.2999999970198","","","","Images/NewTrialBC.png","","3"
"image-button-response","444","659186","0.0-13.0-1.128","19","Low_HMMActual","","","","","","null","","","","Images/WhiteBeadChoice.png","","null"
"image-button-response","445","659688","0.0-13.0-2.128","19","Low_HMMActual","","","","","","null","","","","Images/WhiteBeadChoiceWrong.png","","null"
"image-button-response","446","660581","0.0-13.0-0.129","19","Low_HMMActual","","","","","","890.6999999955297","","","","Images/NewTrialBC.png","","1"
"image-button-response","447","660884","0.0-13.0-1.129","19","Low_HMMActual","","","","","","null","","","","Images/BlackBeadChoice.png","","null"
"image-button-response","448","661386","0.0-13.0-2.129","19","Low_HMMActual","","","","","","null","","","","Images/BlackBeadChoiceCorrect.png","","null"
"image-button-response","449","661844","0.0-13.0-0.130","19","Low_HMMActual","","","","","","455","","","","Images/NewTrialBC.png","","0"
"image-button-response","450","662147","0.0-13.0-1.130","19","Low_HMMActual","","","","","","null","","","","Images/BlackBeadChoice.png","","null"
"image-button-response","451","662652","0.0-13.0-2.130","19","Low_HMMActual","","","","","","null","","","","Images/BlackBeadChoiceCorrect.png","","null"
"image-button-response","452","662797","0.0-13.0-0.131","19","Low_HMMActual","","","","","","141.39999999850988","","","","Images/NewTrialBC.png","","0"
"image-button-response","453","663100","0.0-13.0-1.131","19","Low_HMMActual","","","","","","null","","","","Images/BlackBeadChoice.png","","null"
"image-button-response","454","663602","0.0-13.0-2.131","19","Low_HMMActual","","","","","","null","","","","Images/BlackBeadChoiceCorrect.png","","null"
"image-button-response","455","663669","0.0-13.0-0.132","19","Low_HMMActual","","","","","","62.600000001490116","","","","Images/NewTrialBC.png","","0"
"image-button-response","456","663971","0.0-13.0-1.132","19","Low_HMMActual","","","","","","null","","","","Images/BlackBeadChoice.png","","null"
"image-button-response","457","664475","0.0-13.0-2.132","19","Low_HMMActual","","","","","","null","","","","Images/BlackBeadChoiceCorrect.png","","null"
"image-button-response","458","665205","0.0-13.0-0.133","19","Low_HMMActual","","","","","","726.1999999955297","","","","Images/NewTrialBC.png","","0"
"image-button-response","459","665508","0.0-13.0-1.133","19","Low_HMMActual","","","","","","null","","","","Images/BlackBeadChoice.png","","null"
"image-button-response","460","666011","0.0-13.0-2.133","19","Low_HMMActual","","","","","","null","","","","Images/BlackBeadChoiceCorrect.png","","null"
"image-button-response","461","666133","0.0-13.0-0.134","19","Low_HMMActual","","","","","","116.19999999552965","","","","Images/NewTrialBC.png","","0"
"image-button-response","462","666435","0.0-13.0-1.134","19","Low_HMMActual","","","","","","null","","","","Images/BlackBeadChoice.png","","null"
"image-button-response","463","666938","0.0-13.0-2.134","19","Low_HMMActual","","","","","","null","","","","Images/BlackBeadChoiceCorrect.png","","null"
"image-button-response","464","667597","0.0-13.0-0.135","19","Low_HMMActual","","","","","","654.8000000044703","","","","Images/NewTrialBC.png","","0"
"image-button-response","465","667899","0.0-13.0-1.135","19","Low_HMMActual","","","","","","null","","","","Images/BlackBeadChoice.png","","null"
"image-button-response","466","668402","0.0-13.0-2.135","19","Low_HMMActual","","","","","","null","","","","Images/BlackBeadChoiceWrong.png","","null"
"image-button-response","467","668909","0.0-13.0-0.136","19","Low_HMMActual","","","","","","503.90000000596046","","","","Images/NewTrialWC.png","","2"
"image-button-response","468","669211","0.0-13.0-1.136","19","Low_HMMActual","","","","","","null","","","","Images/WhiteBeadChoice.png","","null"
"image-button-response","469","669714","0.0-13.0-2.136","19","Low_HMMActual","","","","","","null","","","","Images/WhiteBeadChoiceCorrect.png","","null"
"image-button-response","470","670413","0.0-13.0-0.137","19","Low_HMMActual","","","","","","695","","","","Images/NewTrialWC.png","","2"
"image-button-response","471","670716","0.0-13.0-1.137","19","Low_HMMActual","","","","","","null","","","","Images/WhiteBeadChoice.png","","null"
"image-button-response","472","671221","0.0-13.0-2.137","19","Low_HMMActual","","","","","","434.80000000447035","","","","Images/WhiteBeadChoiceCorrect.png","","2"
"image-button-response","473","671773","0.0-13.0-0.138","19","Low_HMMActual","","","","","","547.8999999985099","","","","Images/NewTrialWC.png","","2"
"image-button-response","474","672076","0.0-13.0-1.138","19","Low_HMMActual","","","","","","null","","","","Images/WhiteBeadChoice.png","","null"
"image-button-response","475","672579","0.0-13.0-2.138","19","Low_HMMActual","","","","","","477.80000000447035","","","","Images/WhiteBeadChoiceCorrect.png","","2"
"image-button-response","476","673165","0.0-13.0-0.139","19","Low_HMMActual","","","","","","582","","","","Images/NewTrialWC.png","","2"
"image-button-response","477","673468","0.0-13.0-1.139","19","Low_HMMActual","","","","","","null","","","","Images/WhiteBeadChoice.png","","null"
"image-button-response","478","673971","0.0-13.0-2.139","19","Low_HMMActual","","","","","","437.1000000014901","","","","Images/WhiteBeadChoiceCorrect.png","","2"
"image-button-response","479","675237","0.0-13.0-0.140","19","Low_HMMActual","","","","","","1261.5999999940395","","","","Images/NewTrialWC.png","","0"
"image-button-response","480","675539","0.0-13.0-1.140","19","Low_HMMActual","","","","","","null","","","","Images/BlackBeadChoice.png","","null"
"image-button-response","481","676044","0.0-13.0-2.140","19","Low_HMMActual","","","","","","null","","","","Images/BlackBeadChoiceWrong.png","","null"
"image-button-response","482","677133","0.0-13.0-0.141","19","Low_HMMActual","","","","","","1085.3999999985099","","","","Images/NewTrialWC.png","","0"
"image-button-response","483","677435","0.0-13.0-1.141","19","Low_HMMActual","","","","","","null","","","","Images/BlackBeadChoice.png","","null"
"image-button-response","484","677946","0.0-13.0-2.141","19","Low_HMMActual","","","","","","null","","","","Images/BlackBeadChoiceWrong.png","","null"
"image-button-response","485","678437","0.0-13.0-0.142","19","Low_HMMActual","","","","","","487","","","","Images/NewTrialWC.png","","2"
"image-button-response","486","678739","0.0-13.0-1.142","19","Low_HMMActual","","","","","","null","","","","Images/WhiteBeadChoice.png","","null"
"image-button-response","487","679242","0.0-13.0-2.142","19","Low_HMMActual","","","","","","null","","","","Images/WhiteBeadChoiceWrong.png","","null"
"image-button-response","488","679461","0.0-13.0-0.143","19","Low_HMMActual","","","","","","216.09999999403954","","","","Images/NewTrialBC.png","","0"
"image-button-response","489","679764","0.0-13.0-1.143","19","Low_HMMActual","","","","","","null","","","","Images/BlackBeadChoice.png","","null"
"image-button-response","490","680267","0.0-13.0-2.143","19","Low_HMMActual","","","","","","null","","","","Images/BlackBeadChoiceWrong.png","","null"
"image-button-response","491","680613","0.0-13.0-0.144","19","Low_HMMActual","","","","","","342.29999999701977","","","","Images/NewTrialWC.png","","0"
"image-button-response","492","680915","0.0-13.0-1.144","19","Low_HMMActual","","","","","","null","","","","Images/BlackBeadChoice.png","","null"
"image-button-response","493","681418","0.0-13.0-2.144","19","Low_HMMActual","","","","","","null","","","","Images/BlackBeadChoiceWrong.png","","null"
"image-button-response","494","681957","0.0-13.0-0.145","19","Low_HMMActual","","","","","","535","","","","Images/NewTrialWC.png","","1"
"image-button-response","495","682259","0.0-13.0-1.145","19","Low_HMMActual","","","","","","null","","","","Images/BlackBeadChoice.png","","null"
"image-button-response","496","682762","0.0-13.0-2.145","19","Low_HMMActual","","","","","","null","","","","Images/BlackBeadChoiceWrong.png","","null"
"image-button-response","497","683269","0.0-13.0-0.146","19","Low_HMMActual","","","","","","502.8999999985099","","","","Images/NewTrialWC.png","","3"
"image-button-response","498","683571","0.0-13.0-1.146","19","Low_HMMActual","","","","","","null","","","","Images/WhiteBeadChoice.png","","null"
"image-button-response","499","684074","0.0-13.0-2.146","19","Low_HMMActual","","","","","","null","","","","Images/WhiteBeadChoiceWrong.png","","null"
"image-button-response","500","685469","0.0-13.0-0.147","19","Low_HMMActual","","","","","","1392.1999999955297","","","","Images/NewTrialBC.png","","3"
"image-button-response","501","685772","0.0-13.0-1.147","19","Low_HMMActual","","","","","","null","","","","Images/WhiteBeadChoice.png","","null"
"image-button-response","502","686274","0.0-13.0-2.147","19","Low_HMMActual","","","","","","null","","","","Images/WhiteBeadChoiceCorrect.png","","null"
"image-button-response","503","686869","0.0-13.0-0.148","19","Low_HMMActual","","","","","","591.4000000059605","","","","Images/NewTrialWC.png","","3"
"image-button-response","504","687171","0.0-13.0-1.148","19","Low_HMMActual","","","","","","null","","","","Images/WhiteBeadChoice.png","","null"
"image-button-response","505","687675","0.0-13.0-2.148","19","Low_HMMActual","","","","","","381.8999999985099","","","","Images/WhiteBeadChoiceCorrect.png","","3"
"image-button-response","506","688181","0.0-13.0-0.149","19","Low_HMMActual","","","","","","502","","","","Images/NewTrialWC.png","","3"
"image-button-response","507","688484","0.0-13.0-1.149","19","Low_HMMActual","","","","","","null","","","","Images/WhiteBeadChoice.png","","null"
"image-button-response","508","688987","0.0-13.0-2.149","19","Low_HMMActual","","","","","","null","","","","Images/WhiteBeadChoiceWrong.png","","null"
"image-button-response","509","689261","0.0-13.0-0.150","19","Low_HMMActual","","","","","","267.30000000447035","","","","Images/NewTrialBC.png","","3"
"image-button-response","510","689564","0.0-13.0-1.150","19","Low_HMMActual","","","","","","null","","","","Images/WhiteBeadChoice.png","","null"
"image-button-response","511","690066","0.0-13.0-2.150","19","Low_HMMActual","","","","","","454.29999999701977","","","","Images/WhiteBeadChoiceCorrect.png","","3"
"image-button-response","512","690581","0.0-13.0-0.151","19","Low_HMMActual","","","","","","511","","","","Images/NewTrialWC.png","","3"
"image-button-response","513","690892","0.0-13.0-1.151","19","Low_HMMActual","","","","","","null","","","","Images/WhiteBeadChoice.png","","null"
"image-button-response","514","691394","0.0-13.0-2.151","19","Low_HMMActual","","","","","","432.6000000014901","","","","Images/WhiteBeadChoiceCorrect.png","","3"
"image-button-response","515","691869","0.0-13.0-0.152","19","Low_HMMActual","","","","","","470.30000000447035","","","","Images/NewTrialWC.png","","3"
"image-button-response","516","692171","0.0-13.0-1.152","19","Low_HMMActual","","","","","","null","","","","Images/WhiteBeadChoice.png","","null"
"image-button-response","517","692674","0.0-13.0-2.152","19","Low_HMMActual","","","","","","374.59999999403954","","","","Images/WhiteBeadChoiceCorrect.png","","3"
"image-button-response","518","693157","0.0-13.0-0.153","19","Low_HMMActual","","","","","","478.70000000298023","","","","Images/NewTrialWC.png","","3"
"image-button-response","519","693462","0.0-13.0-1.153","19","Low_HMMActual","","","","","","null","","","","Images/WhiteBeadChoice.png","","null"
"image-button-response","520","693965","0.0-13.0-2.153","19","Low_HMMActual","","","","","","371.80000000447035","","","","Images/WhiteBeadChoiceCorrect.png","","3"
"image-button-response","521","696527","0.0-13.0-0.154","19","Low_HMMActual","","","","","","2559.39999999851","","","","Images/NewTrialWC.png","","3"
"image-button-response","522","696829","0.0-13.0-1.154","19","Low_HMMActual","","","","","","null","","","","Images/WhiteBeadChoice.png","","null"
"image-button-response","523","697332","0.0-13.0-2.154","19","Low_HMMActual","","","","","","428.6000000014901","","","","Images/WhiteBeadChoiceCorrect.png","","3"
"image-button-response","524","697789","0.0-13.0-0.155","19","Low_HMMActual","","","","","","452.8999999985099","","","","Images/NewTrialWC.png","","3"
"image-button-response","525","698092","0.0-13.0-1.155","19","Low_HMMActual","","","","","","null","","","","Images/WhiteBeadChoice.png","","null"
"image-button-response","526","698594","0.0-13.0-2.155","19","Low_HMMActual","","","","","","null","","","","Images/WhiteBeadChoiceWrong.png","","null"
"image-button-response","527","698981","0.0-13.0-0.156","19","Low_HMMActual","","","","","","383.80000000447035","","","","Images/NewTrialBC.png","","3"
"image-button-response","528","699286","0.0-13.0-1.156","19","Low_HMMActual","","","","","","null","","","","Images/WhiteBeadChoice.png","","null"
"image-button-response","529","699789","0.0-13.0-2.156","19","Low_HMMActual","","","","","","null","","","","Images/WhiteBeadChoiceWrong.png","","null"
"image-button-response","530","749853","0.0-13.0-0.157","19","Low_HMMActual","","","","","","50060.20000000298","","","","Images/NewTrialBC.png","","3"
"image-button-response","531","750155","0.0-13.0-1.157","19","Low_HMMActual","","","","","","null","","","","Images/WhiteBeadChoice.png","","null"
"image-button-response","532","750658","0.0-13.0-2.157","19","Low_HMMActual","","","","","","null","","","","Images/WhiteBeadChoiceWrong.png","","null"
"image-button-response","533","751269","0.0-13.0-0.158","19","Low_HMMActual","","","","","","607","","","","Images/NewTrialBC.png","","3"
"image-button-response","534","751572","0.0-13.0-1.158","19","Low_HMMActual","","","","","","null","","","","Images/WhiteBeadChoice.png","","null"
"image-button-response","535","752074","0.0-13.0-2.158","19","Low_HMMActual","","","","","","373.8999999985099","","","","Images/WhiteBeadChoiceWrong.png","","3"
"image-button-response","536","752844","0.0-13.0-0.159","19","Low_HMMActual","","","","","","766.5","","","","Images/NewTrialBC.png","","0"
"image-button-response","537","753147","0.0-13.0-1.159","19","Low_HMMActual","","","","","","null","","","","Images/BlackBeadChoice.png","","null"
"image-button-response","538","753650","0.0-13.0-2.159","19","Low_HMMActual","","","","","","390.90000000596046","","","","Images/BlackBeadChoiceCorrect.png","","0"
"image-button-response","539","754173","0.0-13.0-0.160","19","Low_HMMActual","","","","","","518.8999999985099","","","","Images/NewTrialBC.png","","0"
"image-button-response","540","754476","0.0-13.0-1.160","19","Low_HMMActual","","","","","","null","","","","Images/BlackBeadChoice.png","","null"
"image-button-response","541","754979","0.0-13.0-2.160","19","Low_HMMActual","","","","","","357.3999999985099","","","","Images/BlackBeadChoiceCorrect.png","","0"
"image-button-response","542","755381","0.0-13.0-0.161","19","Low_HMMActual","","","","","","395.5","","","","Images/NewTrialBC.png","","0"
"image-button-response","543","755683","0.0-13.0-1.161","19","Low_HMMActual","","","","","","null","","","","Images/BlackBeadChoice.png","","null"
"image-button-response","544","756185","0.0-13.0-2.161","19","Low_HMMActual","","","","","","479.1000000014901","","","","Images/BlackBeadChoiceWrong.png","","0"
"image-button-response","545","756749","0.0-13.0-0.162","19","Low_HMMActual","","","","","","554.2000000029802","","","","Images/NewTrialWC.png","","0"
"image-button-response","546","757051","0.0-13.0-1.162","19","Low_HMMActual","","","","","","null","","","","Images/BlackBeadChoice.png","","null"
"image-button-response","547","757555","0.0-13.0-2.162","19","Low_HMMActual","","","","","","421.80000000447035","","","","Images/BlackBeadChoiceWrong.png","","0"
"image-button-response","548","758245","0.0-13.0-0.163","19","Low_HMMActual","","","","","","686","","","","Images/NewTrialWC.png","","1"
"image-button-response","549","758548","0.0-13.0-1.163","19","Low_HMMActual","","","","","","null","","","","Images/BlackBeadChoice.png","","null"
"image-button-response","550","759053","0.0-13.0-2.163","19","Low_HMMActual","","","","","","null","","","","Images/BlackBeadChoiceWrong.png","","null"
"image-button-response","551","759692","0.0-13.0-0.164","19","Low_HMMActual","","","","","","636.3999999985099","","","","Images/NewTrialWC.png","","1"
"image-button-response","552","759995","0.0-13.0-1.164","19","Low_HMMActual","","","","","","null","","","","Images/BlackBeadChoice.png","","null"
"image-button-response","553","760498","0.0-13.0-2.164","19","Low_HMMActual","","","","","","null","","","","Images/BlackBeadChoiceWrong.png","","null"
"image-button-response","554","760613","0.0-13.0-0.165","19","Low_HMMActual","","","","","","111.30000000447035","","","","Images/NewTrialWC.png","","2"
"image-button-response","555","760915","0.0-13.0-1.165","19","Low_HMMActual","","","","","","null","","","","Images/WhiteBeadChoice.png","","null"
"image-button-response","556","761417","0.0-13.0-2.165","19","Low_HMMActual","","","","","","447","","","","Images/WhiteBeadChoiceCorrect.png","","2"
"image-button-response","557","761861","0.0-13.0-0.166","19","Low_HMMActual","","","","","","437.1000000014901","","","","Images/NewTrialWC.png","","2"
"image-button-response","558","762164","0.0-13.0-1.166","19","Low_HMMActual","","","","","","null","","","","Images/WhiteBeadChoice.png","","null"
"image-button-response","559","762666","0.0-13.0-2.166","19","Low_HMMActual","","","","","","342.20000000298023","","","","Images/WhiteBeadChoiceCorrect.png","","2"
"image-button-response","560","763037","0.0-13.0-0.167","19","Low_HMMActual","","","","","","366.80000000447035","","","","Images/NewTrialWC.png","","2"
"image-button-response","561","763339","0.0-13.0-1.167","19","Low_HMMActual","","","","","","null","","","","Images/WhiteBeadChoice.png","","null"
"image-button-response","562","763842","0.0-13.0-2.167","19","Low_HMMActual","","","","","","334.29999999701977","","","","Images/WhiteBeadChoiceCorrect.png","","2"
"image-button-response","563","764237","0.0-13.0-0.168","19","Low_HMMActual","","","","","","391.70000000298023","","","","Images/NewTrialWC.png","","2"
"image-button-response","564","764540","0.0-13.0-1.168","19","Low_HMMActual","","","","","","null","","","","Images/WhiteBeadChoice.png","","null"
"image-button-response","565","765044","0.0-13.0-2.168","19","Low_HMMActual","","","","","","null","","","","Images/WhiteBeadChoiceWrong.png","","null"
"image-button-response","566","765836","0.0-13.0-0.169","19","Low_HMMActual","","","","","","789.7000000029802","","","","Images/NewTrialBC.png","","0"
"image-button-response","567","766139","0.0-13.0-1.169","19","Low_HMMActual","","","","","","null","","","","Images/BlackBeadChoice.png","","null"
"image-button-response","568","766641","0.0-13.0-2.169","19","Low_HMMActual","","","","","","495.5","","","","Images/BlackBeadChoiceWrong.png","","0"
"image-button-response","569","767189","0.0-13.0-0.170","19","Low_HMMActual","","","","","","544","","","","Images/NewTrialWC.png","","0"
"image-button-response","570","767491","0.0-13.0-1.170","19","Low_HMMActual","","","","","","null","","","","Images/BlackBeadChoice.png","","null"
"image-button-response","571","767994","0.0-13.0-2.170","19","Low_HMMActual","","","","","","null","","","","Images/BlackBeadChoiceWrong.png","","null"
"image-button-response","572","768573","0.0-13.0-0.171","19","Low_HMMActual","","","","","","574.5","","","","Images/NewTrialWC.png","","2"
"image-button-response","573","768875","0.0-13.0-1.171","19","Low_HMMActual","","","","","","null","","","","Images/WhiteBeadChoice.png","","null"
"image-button-response","574","769378","0.0-13.0-2.171","19","Low_HMMActual","","","","","","374.30000000447035","","","","Images/WhiteBeadChoiceCorrect.png","","2"
"image-button-response","575","769813","0.0-13.0-0.172","19","Low_HMMActual","","","","","","431","","","","Images/NewTrialWC.png","","2"
"image-button-response","576","770116","0.0-13.0-1.172","19","Low_HMMActual","","","","","","null","","","","Images/WhiteBeadChoice.png","","null"
"image-button-response","577","770618","0.0-13.0-2.172","19","Low_HMMActual","","","","","","350.30000000447035","","","","Images/WhiteBeadChoiceCorrect.png","","2"
"image-button-response","578","771029","0.0-13.0-0.173","19","Low_HMMActual","","","","","","398.1000000014901","","","","Images/NewTrialWC.png","","2"
"image-button-response","579","771332","0.0-13.0-1.173","19","Low_HMMActual","","","","","","null","","","","Images/WhiteBeadChoice.png","","null"
"image-button-response","580","771835","0.0-13.0-2.173","19","Low_HMMActual","","","","","","453.5","","","","Images/WhiteBeadChoiceCorrect.png","","2"
"image-button-response","581","773157","0.0-13.0-0.174","19","Low_HMMActual","","","","","","1317.7999999970198","","","","Images/NewTrialWC.png","","1"
"image-button-response","582","773459","0.0-13.0-1.174","19","Low_HMMActual","","","","","","null","","","","Images/BlackBeadChoice.png","","null"
"image-button-response","583","773963","0.0-13.0-2.174","19","Low_HMMActual","","","","","","null","","","","Images/BlackBeadChoiceWrong.png","","null"
"image-button-response","584","774517","0.0-13.0-0.175","19","Low_HMMActual","","","","","","549.7999999970198","","","","Images/NewTrialWC.png","","1"
"image-button-response","585","774819","0.0-13.0-1.175","19","Low_HMMActual","","","","","","null","","","","Images/BlackBeadChoice.png","","null"
"image-button-response","586","775330","0.0-13.0-2.175","19","Low_HMMActual","","","","","","null","","","","Images/BlackBeadChoiceCorrect.png","","null"
"image-button-response","587","776125","0.0-13.0-0.176","19","Low_HMMActual","","","","","","791.5","","","","Images/NewTrialBC.png","","1"
"image-button-response","588","776428","0.0-13.0-1.176","19","Low_HMMActual","","","","","","null","","","","Images/BlackBeadChoice.png","","null"
"image-button-response","589","776931","0.0-13.0-2.176","19","Low_HMMActual","","","","","","null","","","","Images/BlackBeadChoiceCorrect.png","","null"
"image-button-response","590","777485","0.0-13.0-0.177","19","Low_HMMActual","","","","","","548.3000000044703","","","","Images/NewTrialBC.png","","0"
"image-button-response","591","777787","0.0-13.0-1.177","19","Low_HMMActual","","","","","","null","","","","Images/BlackBeadChoice.png","","null"
"image-button-response","592","778290","0.0-13.0-2.177","19","Low_HMMActual","","","","","","454.5","","","","Images/BlackBeadChoiceCorrect.png","","0"
"image-button-response","593","778781","0.0-13.0-0.178","19","Low_HMMActual","","","","","","488.1000000014901","","","","Images/NewTrialBC.png","","0"
"image-button-response","594","779083","0.0-13.0-1.178","19","Low_HMMActual","","","","","","null","","","","Images/BlackBeadChoice.png","","null"
"image-button-response","595","779585","0.0-13.0-2.178","19","Low_HMMActual","","","","","","null","","","","Images/BlackBeadChoiceWrong.png","","null"
"image-button-response","596","780461","0.0-13.0-0.179","19","Low_HMMActual","","","","","","872.2000000029802","","","","Images/NewTrialWC.png","","1"
"image-button-response","597","780763","0.0-13.0-1.179","19","Low_HMMActual","","","","","","null","","","","Images/BlackBeadChoice.png","","null"
"image-button-response","598","781266","0.0-13.0-2.179","19","Low_HMMActual","","","","","","null","","","","Images/BlackBeadChoiceCorrect.png","","null"
"image-button-response","599","781869","0.0-13.0-0.180","19","Low_HMMActual","","","","","","598.8000000044703","","","","Images/NewTrialBC.png","","0"
"image-button-response","600","782174","0.0-13.0-1.180","19","Low_HMMActual","","","","","","null","","","","Images/BlackBeadChoice.png","","null"
"image-button-response","601","782677","0.0-13.0-2.180","19","Low_HMMActual","","","","","","427.20000000298023","","","","Images/BlackBeadChoiceCorrect.png","","0"
"image-button-response","602","783157","0.0-13.0-0.181","19","Low_HMMActual","","","","","","476","","","","Images/NewTrialBC.png","","0"
"image-button-response","603","783459","0.0-13.0-1.181","19","Low_HMMActual","","","","","","null","","","","Images/BlackBeadChoice.png","","null"
"image-button-response","604","783962","0.0-13.0-2.181","19","Low_HMMActual","","","","","","358.29999999701977","","","","Images/BlackBeadChoiceCorrect.png","","0"
"image-button-response","605","784388","0.0-13.0-0.182","19","Low_HMMActual","","","","","","414.20000000298023","","","","Images/NewTrialBC.png","","0"
"image-button-response","606","784690","0.0-13.0-1.182","19","Low_HMMActual","","","","","","null","","","","Images/BlackBeadChoice.png","","null"
"image-button-response","607","785193","0.0-13.0-2.182","19","Low_HMMActual","","","","","","431.20000000298023","","","","Images/BlackBeadChoiceCorrect.png","","0"
"image-button-response","608","785685","0.0-13.0-0.183","19","Low_HMMActual","","","","","","487.3999999985099","","","","Images/NewTrialBC.png","","0"
"image-button-response","609","785990","0.0-13.0-1.183","19","Low_HMMActual","","","","","","null","","","","Images/BlackBeadChoice.png","","null"
"image-button-response","610","786493","0.0-13.0-2.183","19","Low_HMMActual","","","","","","323.5","","","","Images/BlackBeadChoiceCorrect.png","","0"
"image-button-response","611","786917","0.0-13.0-0.184","19","Low_HMMActual","","","","","","420.3999999985099","","","","Images/NewTrialBC.png","","0"
"image-button-response","612","787219","0.0-13.0-1.184","19","Low_HMMActual","","","","","","null","","","","Images/BlackBeadChoice.png","","null"
"image-button-response","613","787722","0.0-13.0-2.184","19","Low_HMMActual","","","","","","386.09999999403954","","","","Images/BlackBeadChoiceCorrect.png","","0"
"image-button-response","614","788180","0.0-13.0-0.185","19","Low_HMMActual","","","","","","445.30000000447035","","","","Images/NewTrialBC.png","","0"
"image-button-response","615","788482","0.0-13.0-1.185","19","Low_HMMActual","","","","","","null","","","","Images/BlackBeadChoice.png","","null"
"image-button-response","616","788985","0.0-13.0-2.185","19","Low_HMMActual","","","","","","383.29999999701977","","","","Images/BlackBeadChoiceCorrect.png","","0"
"image-button-response","617","789444","0.0-13.0-0.186","19","Low_HMMActual","","","","","","455.20000000298023","","","","Images/NewTrialBC.png","","0"
"image-button-response","618","789750","0.0-13.0-1.186","19","Low_HMMActual","","","","","","null","","","","Images/BlackBeadChoice.png","","null"
"image-button-response","619","790253","0.0-13.0-2.186","19","Low_HMMActual","","","","","","347.5","","","","Images/BlackBeadChoiceCorrect.png","","0"
"image-button-response","620","790692","0.0-13.0-0.187","19","Low_HMMActual","","","","","","436.5","","","","Images/NewTrialBC.png","","0"
"image-button-response","621","790995","0.0-13.0-1.187","19","Low_HMMActual","","","","","","null","","","","Images/BlackBeadChoice.png","","null"
"image-button-response","622","791498","0.0-13.0-2.187","19","Low_HMMActual","","","","","","null","","","","Images/BlackBeadChoiceWrong.png","","null"
"image-button-response","623","793437","0.0-13.0-0.188","19","Low_HMMActual","","","","","","1935.5","","","","Images/NewTrialWC.png","","3"
"image-button-response","624","793739","0.0-13.0-1.188","19","Low_HMMActual","","","","","","null","","","","Images/WhiteBeadChoice.png","","null"
"image-button-response","625","794242","0.0-13.0-2.188","19","Low_HMMActual","","","","","","470.19999999552965","","","","Images/WhiteBeadChoiceCorrect.png","","2"
"image-button-response","626","794859","0.0-13.0-0.189","19","Low_HMMActual","","","","","","610","","","","Images/NewTrialWC.png","","2"
"image-button-response","627","795161","0.0-13.0-1.189","19","Low_HMMActual","","","","","","null","","","","Images/WhiteBeadChoice.png","","null"
"image-button-response","628","795664","0.0-13.0-2.189","19","Low_HMMActual","","","","","","312.29999999701977","","","","Images/WhiteBeadChoiceCorrect.png","","2"
"image-button-response","629","796037","0.0-13.0-0.190","19","Low_HMMActual","","","","","","360.79999999701977","","","","Images/NewTrialWC.png","","2"
"image-button-response","630","796340","0.0-13.0-1.190","19","Low_HMMActual","","","","","","null","","","","Images/WhiteBeadChoice.png","","null"
"image-button-response","631","796843","0.0-13.0-2.190","19","Low_HMMActual","","","","","","301.5","","","","Images/WhiteBeadChoiceCorrect.png","","2"
"image-button-response","632","797212","0.0-13.0-0.191","19","Low_HMMActual","","","","","","365.29999999701977","","","","Images/NewTrialWC.png","","2"
"image-button-response","633","797517","0.0-13.0-1.191","19","Low_HMMActual","","","","","","null","","","","Images/WhiteBeadChoice.png","","null"
"image-button-response","634","798020","0.0-13.0-2.191","19","Low_HMMActual","","","","","","324.1000000014901","","","","Images/WhiteBeadChoiceCorrect.png","","2"
"image-button-response","635","798405","0.0-13.0-0.192","19","Low_HMMActual","","","","","","380.79999999701977","","","","Images/NewTrialWC.png","","2"
"image-button-response","636","798707","0.0-13.0-1.192","19","Low_HMMActual","","","","","","null","","","","Images/WhiteBeadChoice.png","","null"
"image-button-response","637","799219","0.0-13.0-2.192","19","Low_HMMActual","","","","","","341.8999999985099","","","","Images/WhiteBeadChoiceCorrect.png","","2"
"image-button-response","638","799621","0.0-13.0-0.193","19","Low_HMMActual","","","","","","397.5","","","","Images/NewTrialWC.png","","2"
"image-button-response","639","799924","0.0-13.0-1.193","19","Low_HMMActual","","","","","","null","","","","Images/WhiteBeadChoice.png","","null"
"image-button-response","640","800427","0.0-13.0-2.193","19","Low_HMMActual","","","","","","356.79999999701977","","","","Images/WhiteBeadChoiceCorrect.png","","2"
"image-button-response","641","800805","0.0-13.0-0.194","19","Low_HMMActual","","","","","","373","","","","Images/NewTrialWC.png","","2"
"image-button-response","642","801109","0.0-13.0-1.194","19","Low_HMMActual","","","","","","null","","","","Images/WhiteBeadChoice.png","","null"
"image-button-response","643","801612","0.0-13.0-2.194","19","Low_HMMActual","","","","","","316.29999999701977","","","","Images/WhiteBeadChoiceCorrect.png","","2"
"image-button-response","644","802021","0.0-13.0-0.195","19","Low_HMMActual","","","","","","405.1000000014901","","","","Images/NewTrialWC.png","","2"
"image-button-response","645","802323","0.0-13.0-1.195","19","Low_HMMActual","","","","","","null","","","","Images/WhiteBeadChoice.png","","null"
"image-button-response","646","802826","0.0-13.0-2.195","19","Low_HMMActual","","","","","","342.1000000014901","","","","Images/WhiteBeadChoiceCorrect.png","","2"
"image-button-response","647","803228","0.0-13.0-0.196","19","Low_HMMActual","","","","","","398.6000000014901","","","","Images/NewTrialWC.png","","2"
"image-button-response","648","803531","0.0-13.0-1.196","19","Low_HMMActual","","","","","","null","","","","Images/WhiteBeadChoice.png","","null"
"image-button-response","649","804034","0.0-13.0-2.196","19","Low_HMMActual","","","","","","358.3999999985099","","","","Images/WhiteBeadChoiceCorrect.png","","2"
"image-button-response","650","804437","0.0-13.0-0.197","19","Low_HMMActual","","","","","","398.6000000014901","","","","Images/NewTrialWC.png","","2"
"image-button-response","651","804740","0.0-13.0-1.197","19","Low_HMMActual","","","","","","null","","","","Images/WhiteBeadChoice.png","","null"
"image-button-response","652","805244","0.0-13.0-2.197","19","Low_HMMActual","","","","","","323.79999999701977","","","","Images/WhiteBeadChoiceCorrect.png","","2"
"image-button-response","653","805637","0.0-13.0-0.198","19","Low_HMMActual","","","","","","388.3999999985099","","","","Images/NewTrialWC.png","","2"
"image-button-response","654","805939","0.0-13.0-1.198","19","Low_HMMActual","","","","","","null","","","","Images/WhiteBeadChoice.png","","null"
"image-button-response","655","806441","0.0-13.0-2.198","19","Low_HMMActual","","","","","","null","","","","Images/WhiteBeadChoiceWrong.png","","null"
"image-button-response","656","807165","0.0-13.0-0.199","19","Low_HMMActual","","","","","","720.5","","","","Images/NewTrialBC.png","","1"
"image-button-response","657","807467","0.0-13.0-1.199","19","Low_HMMActual","","","","","","null","","","","Images/BlackBeadChoice.png","","null"
"image-button-response","658","807970","0.0-13.0-2.199","19","Low_HMMActual","","","","","","null","","","","Images/BlackBeadChoiceWrong.png","","null"
"image-button-response","659","808253","0.0-13.0-0.200","19","Low_HMMActual","","","","","","278.5","","","","Images/NewTrialWC.png","","1"
"image-button-response","660","808556","0.0-13.0-1.200","19","Low_HMMActual","","","","","","null","","","","Images/BlackBeadChoice.png","","null"
"image-button-response","661","809061","0.0-13.0-2.200","19","Low_HMMActual","","","","","","387","","","","Images/BlackBeadChoiceWrong.png","","1"
"image-button-response","662","810012","0.0-13.0-0.201","19","Low_HMMActual","","","","","","947.6000000014901","","","","Images/NewTrialWC.png","","3"
"image-button-response","663","810314","0.0-13.0-1.201","19","Low_HMMActual","","","","","","null","","","","Images/WhiteBeadChoice.png","","null"
