"trial_type","trial_index","time_elapsed","internal_node_id","Script_Picker","Block_Type","success","timeout","failed_images","failed_audio","failed_video","rt","url","responses","question_order","stimulus","key_press","response"
"pavlovia","0","45","0.0-0.0","17","Low_HMMActual","","","","","","","","","","","",""
"preload","1","53","0.0-1.0","17","Low_HMMActual","true","false","[]","[]","[]","","","","","","",""
"external-html","2","19212","0.0-2.0-0.0","17","Low_HMMActual","","","","","","19047","consent.html","","","","",""
"survey-multi-choice","3","25734","0.0-2.0-1.0","17","Low_HMMActual","","","","","","6516.300000071526","","{""Q0"":""Female"",""Q1"":""White""}","[0,1]","","",""
"survey-text","4","28659","0.0-2.0-2.0","17","Low_HMMActual","","","","","","2884.600000023842","","{""Q0"":""25""}","","","",""
"survey-text","5","38850","0.0-2.0-3.0","17","Low_HMMActual","","","","","","10055.699999928474","","{""Q0"":""5cd6bc4604748d000119f0a7""}","","","",""
"image-keyboard-response","6","176520","0.0-3.0-0.0","17","Low_HMMActual","","","","","","137561.70000004768","","","","tutorial/tutorial1.png"," ",""
"image-keyboard-response","7","185525","0.0-3.0-0.1","17","Low_HMMActual","","","","","","9000.799999952316","","","","tutorial/tutorial2.png"," ",""
"image-keyboard-response","8","190203","0.0-3.0-0.2","17","Low_HMMActual","","","","","","4675.800000071526","","","","tutorial/tutorial3.png"," ",""
"image-keyboard-response","9","192451","0.0-3.0-0.3","17","Low_HMMActual","","","","","","2244.2000000476837","","","","tutorial/tutorial4.png"," ",""
"image-keyboard-response","10","194308","0.0-3.0-0.4","17","Low_HMMActual","","","","","","1855.4000000953674","","","","tutorial/tutorial5.png"," ",""
"image-keyboard-response","11","202833","0.0-3.0-0.5","17","Low_HMMActual","","","","","","8523.200000047684","","","","tutorial/tutorial6.png"," ",""
"image-keyboard-response","12","210905","0.0-3.0-0.6","17","Low_HMMActual","","","","","","8068.799999952316","","","","tutorial/tutorial7.png"," ",""
"image-keyboard-response","13","232032","0.0-3.0-0.7","17","Low_HMMActual","","","","","","21124.700000047684","","","","tutorial/tutorial8.png"," ",""
"image-keyboard-response","14","237652","0.0-3.0-0.8","17","Low_HMMActual","","","","","","5618","","","","tutorial/tutorial9.png"," ",""
"image-keyboard-response","15","244705","0.0-3.0-0.9","17","Low_HMMActual","","","","","","7049.5","","","","tutorial/tutorial10.png"," ",""
"image-keyboard-response","16","250367","0.0-3.0-0.10","17","Low_HMMActual","","","","","","5658.799999952316","","","","tutorial/tutorial11.png"," ",""
"image-keyboard-response","17","260003","0.0-3.0-0.11","17","Low_HMMActual","","","","","","9634.099999904633","","","","tutorial/tutorial12.png"," ",""
"image-keyboard-response","18","271492","0.0-3.0-0.12","17","Low_HMMActual","","","","","","11485","","","","tutorial/tutorial13.png"," ",""
"image-keyboard-response","19","284726","0.0-3.0-0.13","17","Low_HMMActual","","","","","","13231.899999976158","","","","tutorial/tutorial14.png"," ",""
"image-keyboard-response","20","286875","0.0-3.0-0.14","17","Low_HMMActual","","","","","","2147.0999999046326","","","","tutorial/tutorial15.png"," ",""
"image-keyboard-response","21","291767","0.0-4.0","17","Low_HMMActual","","","","","","4888.799999952316","","","","tutorial/tutorial16.png","arrowup",""
"image-keyboard-response","22","299362","0.0-5.0","17","Low_HMMActual","","","","","","4824.400000095367","","","","tutorial/tutorial17.png","arrowright",""
"image-keyboard-response","23","305205","0.0-6.0","17","Low_HMMActual","","","","","","4073.600000023842","","","","tutorial/tutorial18.png","arrowleft",""
"image-keyboard-response","24","310302","0.0-7.0","17","Low_HMMActual","","","","","","3520.899999976158","","","","tutorial/tutorial19.png"," ",""
"html-keyboard-response","25","316799","0.0-8.0","18","Low_HMMActual","","","","","","6491.100000023842","","","","<div class=""container"" style=""height:800px;width:800px;display:flex;flex-direction:column;justify-content:center;align-items:center;text-align:center;font-weight:normal;font-family:Arial;font-size:20px""><p>Loading episode&hellip;</p><div>"," ",""
"image-button-response","26","324215","0.0-9.0-0.0","18","Low_HMMActual","","","","","","7410.900000095367","","","","Images/NoChoice.png","","2"
"image-button-response","27","324523","0.0-9.0-1.0","18","Low_HMMActual","","","","","","null","","","","Images/WhiteBeadChoice.png","","null"
"image-button-response","28","325037","0.0-9.0-2.0","18","Low_HMMActual","","","","","","null","","","","Images/WhiteBeadChoiceCorrect.png","","null"
"image-button-response","29","330049","0.0-9.0-0.1","18","Low_HMMActual","","","","","","4981.600000023842","","","","Images/NewTrialWC.png","","2"
"image-button-response","30","330360","0.0-9.0-1.1","18","Low_HMMActual","","","","","","null","","","","Images/WhiteBeadChoice.png","","null"
"image-button-response","31","330876","0.0-9.0-2.1","18","Low_HMMActual","","","","","","null","","","","Images/WhiteBeadChoiceCorrect.png","","null"
"image-button-response","32","333573","0.0-9.0-0.2","18","Low_HMMActual","","","","","","2693.899999976158","","","","Images/NewTrialWC.png","","1"
"image-button-response","33","333882","0.0-9.0-1.2","18","Low_HMMActual","","","","","","null","","","","Images/BlackBeadChoice.png","","null"
"image-button-response","34","334404","0.0-9.0-2.2","18","Low_HMMActual","","","","","","null","","","","Images/BlackBeadChoiceWrong.png","","null"
"image-button-response","35","336732","0.0-9.0-0.3","18","Low_HMMActual","","","","","","2324.600000023842","","","","Images/NewTrialWC.png","","1"
"image-button-response","36","337044","0.0-9.0-1.3","18","Low_HMMActual","","","","","","null","","","","Images/BlackBeadChoice.png","","null"
"image-button-response","37","337557","0.0-9.0-2.3","18","Low_HMMActual","","","","","","null","","","","Images/BlackBeadChoiceCorrect.png","","null"
"image-button-response","38","341972","0.0-9.0-0.4","18","Low_HMMActual","","","","","","4411.200000047684","","","","Images/NewTrialBC.png","","0"
"image-button-response","39","342279","0.0-9.0-1.4","18","Low_HMMActual","","","","","","null","","","","Images/BlackBeadChoice.png","","null"
"image-button-response","40","342796","0.0-9.0-2.4","18","Low_HMMActual","","","","","","null","","","","Images/BlackBeadChoiceWrong.png","","null"
"image-button-response","41","344467","0.0-9.0-0.5","18","Low_HMMActual","","","","","","1666.8999999761581","","","","Images/NewTrialWC.png","","2"
"image-button-response","42","344783","0.0-9.0-1.5","18","Low_HMMActual","","","","","","null","","","","Images/WhiteBeadChoice.png","","null"
"image-button-response","43","345300","0.0-9.0-2.5","18","Low_HMMActual","","","","","","null","","","","Images/WhiteBeadChoiceCorrect.png","","null"
"image-button-response","44","346961","0.0-9.0-0.6","18","Low_HMMActual","","","","","","1657.6999999284744","","","","Images/NewTrialWC.png","","3"
"image-button-response","45","347273","0.0-9.0-1.6","18","Low_HMMActual","","","","","","null","","","","Images/WhiteBeadChoice.png","","null"
"image-button-response","46","347789","0.0-9.0-2.6","18","Low_HMMActual","","","","","","null","","","","Images/WhiteBeadChoiceWrong.png","","null"
"image-button-response","47","351315","0.0-9.0-0.7","18","Low_HMMActual","","","","","","3522.899999976158","","","","Images/NewTrialBC.png","","1"
"image-button-response","48","351634","0.0-9.0-1.7","18","Low_HMMActual","","","","","","null","","","","Images/BlackBeadChoice.png","","null"
"image-button-response","49","352151","0.0-9.0-2.7","18","Low_HMMActual","","","","","","null","","","","Images/BlackBeadChoiceWrong.png","","null"
"image-button-response","50","354967","0.0-9.0-0.8","18","Low_HMMActual","","","","","","2811.600000023842","","","","Images/NewTrialWC.png","","2"
"image-button-response","51","355289","0.0-9.0-1.8","18","Low_HMMActual","","","","","","null","","","","Images/WhiteBeadChoice.png","","null"
"image-button-response","52","355804","0.0-9.0-2.8","18","Low_HMMActual","","","","","","null","","","","Images/WhiteBeadChoiceCorrect.png","","null"
"image-button-response","53","356367","0.0-9.0-0.9","18","Low_HMMActual","","","","","","559.3999999761581","","","","Images/NewTrialWC.png","","2"
"image-button-response","54","356698","0.0-9.0-1.9","18","Low_HMMActual","","","","","","null","","","","Images/WhiteBeadChoice.png","","null"
"image-button-response","55","357207","0.0-9.0-2.9","18","Low_HMMActual","","","","","","null","","","","Images/WhiteBeadChoiceWrong.png","","null"
"html-keyboard-response","56","360275","0.0-10.0","18","Low_HMMActual","","","","","","3065","","","",""," ",""
"image-keyboard-response","57","362772","0.0-11.0","18","Low_HMMActual","","","","","","2494.2999999523163","","","","tutorial/tutorial20.png"," ",""
"html-keyboard-response","58","375590","0.0-12.0","19","Low_HMMActual","","","","","","12810.5","","","","<div class=""container"" style=""height:800px;width:800px;display:flex;flex-direction:column;justify-content:center;align-items:center;text-align:center;font-weight:normal;font-family:Arial;font-size:20px""><p>Loading episode&hellip;</p><div>"," ",""
"image-button-response","59","378603","0.0-13.0-0.0","19","Low_HMMActual","","","","","","3010.5","","","","Images/NoChoice.png","","2"
"image-button-response","60","378923","0.0-13.0-1.0","19","Low_HMMActual","","","","","","null","","","","Images/WhiteBeadChoice.png","","null"
"image-button-response","61","379439","0.0-13.0-2.0","19","Low_HMMActual","","","","","","null","","","","Images/WhiteBeadChoiceCorrect.png","","null"
"image-button-response","62","380462","0.0-13.0-0.1","19","Low_HMMActual","","","","","","1018.6999999284744","","","","Images/NewTrialWC.png","","2"
"image-button-response","63","380781","0.0-13.0-1.1","19","Low_HMMActual","","","","","","null","","","","Images/WhiteBeadChoice.png","","null"
"image-button-response","64","381297","0.0-13.0-2.1","19","Low_HMMActual","","","","","","null","","","","Images/WhiteBeadChoiceCorrect.png","","null"
"image-button-response","65","381998","0.0-13.0-0.2","19","Low_HMMActual","","","","","","697.6999999284744","","","","Images/NewTrialWC.png","","2"
"image-button-response","66","382314","0.0-13.0-1.2","19","Low_HMMActual","","","","","","null","","","","Images/WhiteBeadChoice.png","","null"
"image-button-response","67","382831","0.0-13.0-2.2","19","Low_HMMActual","","","","","","null","","","","Images/WhiteBeadChoiceCorrect.png","","null"
"image-button-response","68","383906","0.0-13.0-0.3","19","Low_HMMActual","","","","","","1069.5","","","","Images/NewTrialWC.png","","1"
"image-button-response","69","384220","0.0-13.0-1.3","19","Low_HMMActual","","","","","","null","","","","Images/BlackBeadChoice.png","","null"
"image-button-response","70","384729","0.0-13.0-2.3","19","Low_HMMActual","","","","","","null","","","","Images/BlackBeadChoiceWrong.png","","null"
"image-button-response","71","385775","0.0-13.0-0.4","19","Low_HMMActual","","","","","","1042.5","","","","Images/NewTrialWC.png","","1"
"image-button-response","72","386094","0.0-13.0-1.4","19","Low_HMMActual","","","","","","null","","","","Images/BlackBeadChoice.png","","null"
"image-button-response","73","386609","0.0-13.0-2.4","19","Low_HMMActual","","","","","","null","","","","Images/BlackBeadChoiceWrong.png","","null"
"image-button-response","74","387706","0.0-13.0-0.5","19","Low_HMMActual","","","","","","1091.6000000238419","","","","Images/NewTrialWC.png","","2"
"image-button-response","75","388011","0.0-13.0-1.5","19","Low_HMMActual","","","","","","null","","","","Images/WhiteBeadChoice.png","","null"
"image-button-response","76","388524","0.0-13.0-2.5","19","Low_HMMActual","","","","","","null","","","","Images/WhiteBeadChoiceWrong.png","","null"
"image-button-response","77","403908","0.0-13.0-0.6","19","Low_HMMActual","","","","","","15381.300000071526","","","","Images/NewTrialBC.png","","3"
"image-button-response","78","404213","0.0-13.0-1.6","19","Low_HMMActual","","","","","","null","","","","Images/WhiteBeadChoice.png","","null"
"image-button-response","79","404717","0.0-13.0-2.6","19","Low_HMMActual","","","","","","null","","","","Images/WhiteBeadChoiceWrong.png","","null"
"image-button-response","80","406909","0.0-13.0-0.7","19","Low_HMMActual","","","","","","2185.899999976158","","","","Images/NewTrialBC.png","","1"
"image-button-response","81","407219","0.0-13.0-1.7","19","Low_HMMActual","","","","","","null","","","","Images/BlackBeadChoice.png","","null"
"image-button-response","82","407736","0.0-13.0-2.7","19","Low_HMMActual","","","","","","null","","","","Images/BlackBeadChoiceCorrect.png","","null"
"image-button-response","83","408525","0.0-13.0-0.8","19","Low_HMMActual","","","","","","785.5999999046326","","","","Images/NewTrialBC.png","","0"
"image-button-response","84","408838","0.0-13.0-1.8","19","Low_HMMActual","","","","","","null","","","","Images/BlackBeadChoice.png","","null"
"image-button-response","85","409353","0.0-13.0-2.8","19","Low_HMMActual","","","","","","null","","","","Images/BlackBeadChoiceCorrect.png","","null"
"image-button-response","86","410690","0.0-13.0-0.9","19","Low_HMMActual","","","","","","1333.4000000953674","","","","Images/NewTrialBC.png","","0"
"image-button-response","87","411002","0.0-13.0-1.9","19","Low_HMMActual","","","","","","null","","","","Images/BlackBeadChoice.png","","null"
"image-button-response","88","411524","0.0-13.0-2.9","19","Low_HMMActual","","","","","","null","","","","Images/BlackBeadChoiceCorrect.png","","null"
"image-button-response","89","412219","0.0-13.0-0.10","19","Low_HMMActual","","","","","","691.5","","","","Images/NewTrialBC.png","","0"
"image-button-response","90","412526","0.0-13.0-1.10","19","Low_HMMActual","","","","","","null","","","","Images/BlackBeadChoice.png","","null"
"image-button-response","91","413034","0.0-13.0-2.10","19","Low_HMMActual","","","","","","null","","","","Images/BlackBeadChoiceWrong.png","","null"
"image-button-response","92","414558","0.0-13.0-0.11","19","Low_HMMActual","","","","","","1518.1999999284744","","","","Images/NewTrialWC.png","","3"
"image-button-response","93","414877","0.0-13.0-1.11","19","Low_HMMActual","","","","","","null","","","","Images/WhiteBeadChoice.png","","null"
"image-button-response","94","415381","0.0-13.0-2.11","19","Low_HMMActual","","","","","","null","","","","Images/WhiteBeadChoiceWrong.png","","null"
"image-button-response","95","417115","0.0-13.0-0.12","19","Low_HMMActual","","","","","","1731.2999999523163","","","","Images/NewTrialBC.png","","1"
"image-button-response","96","417434","0.0-13.0-1.12","19","Low_HMMActual","","","","","","null","","","","Images/BlackBeadChoice.png","","null"
"image-button-response","97","417936","0.0-13.0-2.12","19","Low_HMMActual","","","","","","null","","","","Images/BlackBeadChoiceWrong.png","","null"
"image-button-response","98","419199","0.0-13.0-0.13","19","Low_HMMActual","","","","","","1251.6000000238419","","","","Images/NewTrialWC.png","","2"
"image-button-response","99","419515","0.0-13.0-1.13","19","Low_HMMActual","","","","","","null","","","","Images/WhiteBeadChoice.png","","null"
"image-button-response","100","420037","0.0-13.0-2.13","19","Low_HMMActual","","","","","","null","","","","Images/WhiteBeadChoiceCorrect.png","","null"
"image-button-response","101","421497","0.0-13.0-0.14","19","Low_HMMActual","","","","","","1456.2000000476837","","","","Images/NewTrialWC.png","","2"
"image-button-response","102","421804","0.0-13.0-1.14","19","Low_HMMActual","","","","","","null","","","","Images/WhiteBeadChoice.png","","null"
"image-button-response","103","422320","0.0-13.0-2.14","19","Low_HMMActual","","","","","","null","","","","Images/WhiteBeadChoiceCorrect.png","","null"
"image-button-response","104","422931","0.0-13.0-0.15","19","Low_HMMActual","","","","","","605.8000000715256","","","","Images/NewTrialWC.png","","2"
"image-button-response","105","423244","0.0-13.0-1.15","19","Low_HMMActual","","","","","","null","","","","Images/WhiteBeadChoice.png","","null"
"image-button-response","106","423776","0.0-13.0-2.15","19","Low_HMMActual","","","","","","null","","","","Images/WhiteBeadChoiceCorrect.png","","null"
"image-button-response","107","424467","0.0-13.0-0.16","19","Low_HMMActual","","","","","","688.7999999523163","","","","Images/NewTrialWC.png","","2"
"image-button-response","108","424779","0.0-13.0-1.16","19","Low_HMMActual","","","","","","null","","","","Images/WhiteBeadChoice.png","","null"
"image-button-response","109","425291","0.0-13.0-2.16","19","Low_HMMActual","","","","","","null","","","","Images/WhiteBeadChoiceWrong.png","","null"
"image-button-response","110","427852","0.0-13.0-0.17","19","Low_HMMActual","","","","","","2558.2999999523163","","","","Images/NewTrialBC.png","","2"
"image-button-response","111","428169","0.0-13.0-1.17","19","Low_HMMActual","","","","","","null","","","","Images/WhiteBeadChoice.png","","null"
"image-button-response","112","428683","0.0-13.0-2.17","19","Low_HMMActual","","","","","","null","","","","Images/WhiteBeadChoiceWrong.png","","null"
"image-button-response","113","429706","0.0-13.0-0.18","19","Low_HMMActual","","","","","","1013.2999999523163","","","","Images/NewTrialBC.png","","0"
"image-button-response","114","430021","0.0-13.0-1.18","19","Low_HMMActual","","","","","","null","","","","Images/BlackBeadChoice.png","","null"
"image-button-response","115","430537","0.0-13.0-2.18","19","Low_HMMActual","","","","","","null","","","","Images/BlackBeadChoiceCorrect.png","","null"
"image-button-response","116","431140","0.0-13.0-0.19","19","Low_HMMActual","","","","","","599.2999999523163","","","","Images/NewTrialBC.png","","0"
"image-button-response","117","431462","0.0-13.0-1.19","19","Low_HMMActual","","","","","","null","","","","Images/BlackBeadChoice.png","","null"
"image-button-response","118","431977","0.0-13.0-2.19","19","Low_HMMActual","","","","","","null","","","","Images/BlackBeadChoiceCorrect.png","","null"
"image-button-response","119","432143","0.0-13.0-0.20","19","Low_HMMActual","","","","","","138.80000007152557","","","","Images/NewTrialBC.png","","0"
"image-button-response","120","432462","0.0-13.0-1.20","19","Low_HMMActual","","","","","","null","","","","Images/BlackBeadChoice.png","","null"
"image-button-response","121","432979","0.0-13.0-2.20","19","Low_HMMActual","","","","","","null","","","","Images/BlackBeadChoiceCorrect.png","","null"
"image-button-response","122","433607","0.0-13.0-0.21","19","Low_HMMActual","","","","","","624.8999999761581","","","","Images/NewTrialBC.png","","0"
"image-button-response","123","433927","0.0-13.0-1.21","19","Low_HMMActual","","","","","","null","","","","Images/BlackBeadChoice.png","","null"
"image-button-response","124","434431","0.0-13.0-2.21","19","Low_HMMActual","","","","","","null","","","","Images/BlackBeadChoiceWrong.png","","null"
"image-button-response","125","436645","0.0-13.0-0.22","19","Low_HMMActual","","","","","","2212.2000000476837","","","","Images/NewTrialWC.png","","1"
"image-button-response","126","436971","0.0-13.0-1.22","19","Low_HMMActual","","","","","","null","","","","Images/BlackBeadChoice.png","","null"
"image-button-response","127","437502","0.0-13.0-2.22","19","Low_HMMActual","","","","","","null","","","","Images/BlackBeadChoiceCorrect.png","","null"
"image-button-response","128","439140","0.0-13.0-0.23","19","Low_HMMActual","","","","","","1634.1999999284744","","","","Images/NewTrialBC.png","","0"
"image-button-response","129","439450","0.0-13.0-1.23","19","Low_HMMActual","","","","","","null","","","","Images/BlackBeadChoice.png","","null"
"image-button-response","130","439953","0.0-13.0-2.23","19","Low_HMMActual","","","","","","null","","","","Images/BlackBeadChoiceWrong.png","","null"
"image-button-response","131","441804","0.0-13.0-0.24","19","Low_HMMActual","","","","","","1844.6000000238419","","","","Images/NewTrialWC.png","","3"
"image-button-response","132","442124","0.0-13.0-1.24","19","Low_HMMActual","","","","","","null","","","","Images/WhiteBeadChoice.png","","null"
"image-button-response","133","442626","0.0-13.0-2.24","19","Low_HMMActual","","","","","","null","","","","Images/WhiteBeadChoiceWrong.png","","null"
"image-button-response","134","443631","0.0-13.0-0.25","19","Low_HMMActual","","","","","","1000.1000000238419","","","","Images/NewTrialBC.png","","1"
"image-button-response","135","443959","0.0-13.0-1.25","19","Low_HMMActual","","","","","","null","","","","Images/BlackBeadChoice.png","","null"
"image-button-response","136","444461","0.0-13.0-2.25","19","Low_HMMActual","","","","","","null","","","","Images/BlackBeadChoiceWrong.png","","null"
"image-button-response","137","445989","0.0-13.0-0.26","19","Low_HMMActual","","","","","","1523.9000000953674","","","","Images/NewTrialWC.png","","2"
"image-button-response","138","446300","0.0-13.0-1.26","19","Low_HMMActual","","","","","","null","","","","Images/WhiteBeadChoice.png","","null"
"image-button-response","139","446818","0.0-13.0-2.26","19","Low_HMMActual","","","","","","null","","","","Images/WhiteBeadChoiceWrong.png","","null"
"image-button-response","140","447662","0.0-13.0-0.27","19","Low_HMMActual","","","","","","839.2999999523163","","","","Images/NewTrialBC.png","","2"
"image-button-response","141","447987","0.0-13.0-1.27","19","Low_HMMActual","","","","","","null","","","","Images/WhiteBeadChoice.png","","null"
"image-button-response","142","448491","0.0-13.0-2.27","19","Low_HMMActual","","","","","","null","","","","Images/WhiteBeadChoiceWrong.png","","null"
"image-button-response","143","448976","0.0-13.0-0.28","19","Low_HMMActual","","","","","","481.5","","","","Images/NewTrialBC.png","","0"
"image-button-response","144","449289","0.0-13.0-1.28","19","Low_HMMActual","","","","","","null","","","","Images/BlackBeadChoice.png","","null"
"image-button-response","145","449805","0.0-13.0-2.28","19","Low_HMMActual","","","","","","null","","","","Images/BlackBeadChoiceWrong.png","","null"
"image-button-response","146","450755","0.0-13.0-0.29","19","Low_HMMActual","","","","","","945.7999999523163","","","","Images/NewTrialWC.png","","0"
"image-button-response","147","451092","0.0-13.0-1.29","19","Low_HMMActual","","","","","","null","","","","Images/BlackBeadChoice.png","","null"
"image-button-response","148","451609","0.0-13.0-2.29","19","Low_HMMActual","","","","","","null","","","","Images/BlackBeadChoiceCorrect.png","","null"
"image-button-response","149","451998","0.0-13.0-0.30","19","Low_HMMActual","","","","","","385.6999999284744","","","","Images/NewTrialBC.png","","0"
"image-button-response","150","452311","0.0-13.0-1.30","19","Low_HMMActual","","","","","","null","","","","Images/BlackBeadChoice.png","","null"
"image-button-response","151","452827","0.0-13.0-2.30","19","Low_HMMActual","","","","","","null","","","","Images/BlackBeadChoiceWrong.png","","null"
"image-button-response","152","454796","0.0-13.0-0.31","19","Low_HMMActual","","","","","","1965","","","","Images/NewTrialWC.png","","3"
"image-button-response","153","455116","0.0-13.0-1.31","19","Low_HMMActual","","","","","","null","","","","Images/WhiteBeadChoice.png","","null"
"image-button-response","154","455632","0.0-13.0-2.31","19","Low_HMMActual","","","","","","null","","","","Images/WhiteBeadChoiceCorrect.png","","null"
"image-button-response","155","456291","0.0-13.0-0.32","19","Low_HMMActual","","","","","","656.1000000238419","","","","Images/NewTrialWC.png","","2"
"image-button-response","156","456603","0.0-13.0-1.32","19","Low_HMMActual","","","","","","null","","","","Images/WhiteBeadChoice.png","","null"
"image-button-response","157","457120","0.0-13.0-2.32","19","Low_HMMActual","","","","","","null","","","","Images/WhiteBeadChoiceCorrect.png","","null"
"image-button-response","158","457332","0.0-13.0-0.33","19","Low_HMMActual","","","","","","207.59999990463257","","","","Images/NewTrialWC.png","","2"
"image-button-response","159","457636","0.0-13.0-1.33","19","Low_HMMActual","","","","","","null","","","","Images/WhiteBeadChoice.png","","null"
"image-button-response","160","458178","0.0-13.0-2.33","19","Low_HMMActual","","","","","","null","","","","Images/WhiteBeadChoiceCorrect.png","","null"
"image-button-response","161","459551","0.0-13.0-0.34","19","Low_HMMActual","","","","","","1369.2999999523163","","","","Images/NewTrialWC.png","","2"
"image-button-response","162","459858","0.0-13.0-1.34","19","Low_HMMActual","","","","","","null","","","","Images/WhiteBeadChoice.png","","null"
"image-button-response","163","460361","0.0-13.0-2.34","19","Low_HMMActual","","","","","","null","","","","Images/WhiteBeadChoiceWrong.png","","null"
"image-button-response","164","462407","0.0-13.0-0.35","19","Low_HMMActual","","","","","","2044","","","","Images/NewTrialBC.png","","2"
"image-button-response","165","462715","0.0-13.0-1.35","19","Low_HMMActual","","","","","","null","","","","Images/WhiteBeadChoice.png","","null"
"image-button-response","166","463218","0.0-13.0-2.35","19","Low_HMMActual","","","","","","null","","","","Images/WhiteBeadChoiceCorrect.png","","null"
"image-button-response","167","463936","0.0-13.0-0.36","19","Low_HMMActual","","","","","","709.2999999523163","","","","Images/NewTrialWC.png","","2"
"image-button-response","168","464260","0.0-13.0-1.36","19","Low_HMMActual","","","","","","null","","","","Images/WhiteBeadChoice.png","","null"
"image-button-response","169","464763","0.0-13.0-2.36","19","Low_HMMActual","","","","","","null","","","","Images/WhiteBeadChoiceWrong.png","","null"
"image-button-response","170","465624","0.0-13.0-0.37","19","Low_HMMActual","","","","","","855.8999999761581","","","","Images/NewTrialBC.png","","2"
"image-button-response","171","465937","0.0-13.0-1.37","19","Low_HMMActual","","","","","","null","","","","Images/WhiteBeadChoice.png","","null"
"image-button-response","172","466441","0.0-13.0-2.37","19","Low_HMMActual","","","","","","null","","","","Images/WhiteBeadChoiceWrong.png","","null"
"image-button-response","173","466885","0.0-13.0-0.38","19","Low_HMMActual","","","","","","441.5","","","","Images/NewTrialBC.png","","0"
"image-button-response","174","467202","0.0-13.0-1.38","19","Low_HMMActual","","","","","","null","","","","Images/BlackBeadChoice.png","","null"
"image-button-response","175","467725","0.0-13.0-2.38","19","Low_HMMActual","","","","","","null","","","","Images/BlackBeadChoiceCorrect.png","","null"
"image-button-response","176","467959","0.0-13.0-0.39","19","Low_HMMActual","","","","","","230.80000007152557","","","","Images/NewTrialBC.png","","0"
"image-button-response","177","468272","0.0-13.0-1.39","19","Low_HMMActual","","","","","","null","","","","Images/BlackBeadChoice.png","","null"
"image-button-response","178","468789","0.0-13.0-2.39","19","Low_HMMActual","","","","","","null","","","","Images/BlackBeadChoiceWrong.png","","null"
"image-button-response","179","470161","0.0-13.0-0.40","19","Low_HMMActual","","","","","","1369.8999999761581","","","","Images/NewTrialWC.png","","3"
"image-button-response","180","470478","0.0-13.0-1.40","19","Low_HMMActual","","","","","","null","","","","Images/WhiteBeadChoice.png","","null"
"image-button-response","181","470980","0.0-13.0-2.40","19","Low_HMMActual","","","","","","null","","","","Images/WhiteBeadChoiceCorrect.png","","null"
"image-button-response","182","471813","0.0-13.0-0.41","19","Low_HMMActual","","","","","","829.8999999761581","","","","Images/NewTrialWC.png","","2"
"image-button-response","183","472134","0.0-13.0-1.41","19","Low_HMMActual","","","","","","null","","","","Images/WhiteBeadChoice.png","","null"
"image-button-response","184","472650","0.0-13.0-2.41","19","Low_HMMActual","","","","","","null","","","","Images/WhiteBeadChoiceCorrect.png","","null"
"image-button-response","185","472942","0.0-13.0-0.42","19","Low_HMMActual","","","","","","288.89999997615814","","","","Images/NewTrialWC.png","","2"
"image-button-response","186","473251","0.0-13.0-1.42","19","Low_HMMActual","","","","","","null","","","","Images/WhiteBeadChoice.png","","null"
"image-button-response","187","473753","0.0-13.0-2.42","19","Low_HMMActual","","","","","","null","","","","Images/WhiteBeadChoiceWrong.png","","null"
"image-button-response","188","474978","0.0-13.0-0.43","19","Low_HMMActual","","","","","","1219.5","","","","Images/NewTrialBC.png","","1"
"image-button-response","189","475286","0.0-13.0-1.43","19","Low_HMMActual","","","","","","null","","","","Images/BlackBeadChoice.png","","null"
"image-button-response","190","475802","0.0-13.0-2.43","19","Low_HMMActual","","","","","","null","","","","Images/BlackBeadChoiceWrong.png","","null"
"image-button-response","191","477040","0.0-13.0-0.44","19","Low_HMMActual","","","","","","1234.2000000476837","","","","Images/NewTrialWC.png","","2"
"image-button-response","192","477359","0.0-13.0-1.44","19","Low_HMMActual","","","","","","null","","","","Images/WhiteBeadChoice.png","","null"
"image-button-response","193","477876","0.0-13.0-2.44","19","Low_HMMActual","","","","","","null","","","","Images/WhiteBeadChoiceWrong.png","","null"
"image-button-response","194","478677","0.0-13.0-0.45","19","Low_HMMActual","","","","","","797.5","","","","Images/NewTrialBC.png","","2"
"image-button-response","195","478983","0.0-13.0-1.45","19","Low_HMMActual","","","","","","null","","","","Images/WhiteBeadChoice.png","","null"
"image-button-response","196","479494","0.0-13.0-2.45","19","Low_HMMActual","","","","","","null","","","","Images/WhiteBeadChoiceWrong.png","","null"
"image-button-response","197","480078","0.0-13.0-0.46","19","Low_HMMActual","","","","","","576.7999999523163","","","","Images/NewTrialBC.png","","0"
"image-button-response","198","480382","0.0-13.0-1.46","19","Low_HMMActual","","","","","","null","","","","Images/BlackBeadChoice.png","","null"
"image-button-response","199","480898","0.0-13.0-2.46","19","Low_HMMActual","","","","","","null","","","","Images/BlackBeadChoiceWrong.png","","null"
"image-button-response","200","481392","0.0-13.0-0.47","19","Low_HMMActual","","","","","","490.7000000476837","","","","Images/NewTrialWC.png","","0"
"image-button-response","201","481700","0.0-13.0-1.47","19","Low_HMMActual","","","","","","null","","","","Images/BlackBeadChoice.png","","null"
"image-button-response","202","482215","0.0-13.0-2.47","19","Low_HMMActual","","","","","","null","","","","Images/BlackBeadChoiceWrong.png","","null"
"image-button-response","203","483336","0.0-13.0-0.48","19","Low_HMMActual","","","","","","1116.9000000953674","","","","Images/NewTrialWC.png","","2"
"image-button-response","204","483656","0.0-13.0-1.48","19","Low_HMMActual","","","","","","null","","","","Images/WhiteBeadChoice.png","","null"
"image-button-response","205","484174","0.0-13.0-2.48","19","Low_HMMActual","","","","","","null","","","","Images/WhiteBeadChoiceCorrect.png","","null"
"image-button-response","206","484642","0.0-13.0-0.49","19","Low_HMMActual","","","","","","464","","","","Images/NewTrialWC.png","","2"
"image-button-response","207","484958","0.0-13.0-1.49","19","Low_HMMActual","","","","","","null","","","","Images/WhiteBeadChoice.png","","null"
"image-button-response","208","485478","0.0-13.0-2.49","19","Low_HMMActual","","","","","","null","","","","Images/WhiteBeadChoiceCorrect.png","","null"
"image-button-response","209","487390","0.0-13.0-0.50","19","Low_HMMActual","","","","","","1907.7999999523163","","","","Images/NewTrialWC.png","","1"
"image-button-response","210","487712","0.0-13.0-1.50","19","Low_HMMActual","","","","","","null","","","","Images/BlackBeadChoice.png","","null"
"image-button-response","211","488215","0.0-13.0-2.50","19","Low_HMMActual","","","","","","null","","","","Images/BlackBeadChoiceCorrect.png","","null"
"image-button-response","212","491019","0.0-13.0-0.51","19","Low_HMMActual","","","","","","2801.8000000715256","","","","Images/NewTrialBC.png","","3"
"image-button-response","213","491328","0.0-13.0-1.51","19","Low_HMMActual","","","","","","null","","","","Images/WhiteBeadChoice.png","","null"
"image-button-response","214","491841","0.0-13.0-2.51","19","Low_HMMActual","","","","","","null","","","","Images/WhiteBeadChoiceWrong.png","","null"
"image-button-response","215","492701","0.0-13.0-0.52","19","Low_HMMActual","","","","","","855.2999999523163","","","","Images/NewTrialBC.png","","0"
"image-button-response","216","493016","0.0-13.0-1.52","19","Low_HMMActual","","","","","","null","","","","Images/BlackBeadChoice.png","","null"
"image-button-response","217","493547","0.0-13.0-2.52","19","Low_HMMActual","","","","","","null","","","","Images/BlackBeadChoiceCorrect.png","","null"
"image-button-response","218","494856","0.0-13.0-0.53","19","Low_HMMActual","","","","","","1299.2999999523163","","","","Images/NewTrialBC.png","","0"
"image-button-response","219","495175","0.0-13.0-1.53","19","Low_HMMActual","","","","","","null","","","","Images/BlackBeadChoice.png","","null"
"image-button-response","220","495690","0.0-13.0-2.53","19","Low_HMMActual","","","","","","null","","","","Images/BlackBeadChoiceWrong.png","","null"
"image-button-response","221","497181","0.0-13.0-0.54","19","Low_HMMActual","","","","","","1487.2000000476837","","","","Images/NewTrialWC.png","","0"
"image-button-response","222","497493","0.0-13.0-1.54","19","Low_HMMActual","","","","","","null","","","","Images/BlackBeadChoice.png","","null"
"image-button-response","223","498009","0.0-13.0-2.54","19","Low_HMMActual","","","","","","null","","","","Images/BlackBeadChoiceCorrect.png","","null"
"image-button-response","224","499567","0.0-13.0-0.55","19","Low_HMMActual","","","","","","1555.1000000238419","","","","Images/NewTrialBC.png","","0"
"image-button-response","225","499904","0.0-13.0-1.55","19","Low_HMMActual","","","","","","null","","","","Images/BlackBeadChoice.png","","null"
"image-button-response","226","500413","0.0-13.0-2.55","19","Low_HMMActual","","","","","","null","","","","Images/BlackBeadChoiceCorrect.png","","null"
"image-button-response","227","501547","0.0-13.0-0.56","19","Low_HMMActual","","","","","","1130.5","","","","Images/NewTrialBC.png","","0"
"image-button-response","228","501864","0.0-13.0-1.56","19","Low_HMMActual","","","","","","null","","","","Images/BlackBeadChoice.png","","null"
"image-button-response","229","502385","0.0-13.0-2.56","19","Low_HMMActual","","","","","","null","","","","Images/BlackBeadChoiceCorrect.png","","null"
"image-button-response","230","503602","0.0-13.0-0.57","19","Low_HMMActual","","","","","","1212.7000000476837","","","","Images/NewTrialBC.png","","3"
"image-button-response","231","503920","0.0-13.0-1.57","19","Low_HMMActual","","","","","","null","","","","Images/WhiteBeadChoice.png","","null"
"image-button-response","232","504436","0.0-13.0-2.57","19","Low_HMMActual","","","","","","null","","","","Images/WhiteBeadChoiceWrong.png","","null"
"image-button-response","233","505075","0.0-13.0-0.58","19","Low_HMMActual","","","","","","635.1000000238419","","","","Images/NewTrialBC.png","","0"
"image-button-response","234","505392","0.0-13.0-1.58","19","Low_HMMActual","","","","","","null","","","","Images/BlackBeadChoice.png","","null"
"image-button-response","235","505911","0.0-13.0-2.58","19","Low_HMMActual","","","","","","null","","","","Images/BlackBeadChoiceCorrect.png","","null"
"image-button-response","236","507090","0.0-13.0-0.59","19","Low_HMMActual","","","","","","1174.5","","","","Images/NewTrialBC.png","","0"
"image-button-response","237","507410","0.0-13.0-1.59","19","Low_HMMActual","","","","","","null","","","","Images/BlackBeadChoice.png","","null"
"image-button-response","238","507913","0.0-13.0-2.59","19","Low_HMMActual","","","","","","null","","","","Images/BlackBeadChoiceWrong.png","","null"
"image-button-response","239","509777","0.0-13.0-0.60","19","Low_HMMActual","","","","","","1860.6000000238419","","","","Images/NewTrialWC.png","","3"
"image-button-response","240","510100","0.0-13.0-1.60","19","Low_HMMActual","","","","","","null","","","","Images/WhiteBeadChoice.png","","null"
"image-button-response","241","510616","0.0-13.0-2.60","19","Low_HMMActual","","","","","","null","","","","Images/WhiteBeadChoiceCorrect.png","","null"
"image-button-response","242","511241","0.0-13.0-0.61","19","Low_HMMActual","","","","","","599.8000000715256","","","","Images/NewTrialWC.png","","2"
"image-button-response","243","511549","0.0-13.0-1.61","19","Low_HMMActual","","","","","","null","","","","Images/WhiteBeadChoice.png","","null"
"image-button-response","244","512065","0.0-13.0-2.61","19","Low_HMMActual","","","","","","null","","","","Images/WhiteBeadChoiceCorrect.png","","null"
"image-button-response","245","512840","0.0-13.0-0.62","19","Low_HMMActual","","","","","","771.6000000238419","","","","Images/NewTrialWC.png","","2"
"image-button-response","246","513151","0.0-13.0-1.62","19","Low_HMMActual","","","","","","null","","","","Images/WhiteBeadChoice.png","","null"
"image-button-response","247","513656","0.0-13.0-2.62","19","Low_HMMActual","","","","","","null","","","","Images/WhiteBeadChoiceWrong.png","","null"
"image-button-response","248","515777","0.0-13.0-0.63","19","Low_HMMActual","","","","","","2117.2000000476837","","","","Images/NewTrialBC.png","","1"
"image-button-response","249","516089","0.0-13.0-1.63","19","Low_HMMActual","","","","","","null","","","","Images/BlackBeadChoice.png","","null"
"image-button-response","250","516628","0.0-13.0-2.63","19","Low_HMMActual","","","","","","null","","","","Images/BlackBeadChoiceCorrect.png","","null"
"image-button-response","251","517544","0.0-13.0-0.64","19","Low_HMMActual","","","","","","912.2000000476837","","","","Images/NewTrialBC.png","","0"
"image-button-response","252","517861","0.0-13.0-1.64","19","Low_HMMActual","","","","","","null","","","","Images/BlackBeadChoice.png","","null"
"image-button-response","253","518377","0.0-13.0-2.64","19","Low_HMMActual","","","","","","null","","","","Images/BlackBeadChoiceWrong.png","","null"
"image-button-response","254","519590","0.0-13.0-0.65","19","Low_HMMActual","","","","","","1208.3999999761581","","","","Images/NewTrialWC.png","","0"
"image-button-response","255","519917","0.0-13.0-1.65","19","Low_HMMActual","","","","","","null","","","","Images/BlackBeadChoice.png","","null"
"image-button-response","256","520433","0.0-13.0-2.65","19","Low_HMMActual","","","","","","null","","","","Images/BlackBeadChoiceCorrect.png","","null"
"image-button-response","257","521456","0.0-13.0-0.66","19","Low_HMMActual","","","","","","1020.1000000238419","","","","Images/NewTrialBC.png","","3"
"image-button-response","258","521775","0.0-13.0-1.66","19","Low_HMMActual","","","","","","null","","","","Images/WhiteBeadChoice.png","","null"
"image-button-response","259","522284","0.0-13.0-2.66","19","Low_HMMActual","","","","","","null","","","","Images/WhiteBeadChoiceWrong.png","","null"
"image-button-response","260","523017","0.0-13.0-0.67","19","Low_HMMActual","","","","","","729.7000000476837","","","","Images/NewTrialBC.png","","0"
"image-button-response","261","523325","0.0-13.0-1.67","19","Low_HMMActual","","","","","","null","","","","Images/BlackBeadChoice.png","","null"
"image-button-response","262","523833","0.0-13.0-2.67","19","Low_HMMActual","","","","","","null","","","","Images/BlackBeadChoiceCorrect.png","","null"
"image-button-response","263","525091","0.0-13.0-0.68","19","Low_HMMActual","","","","","","1254.1999999284744","","","","Images/NewTrialBC.png","","0"
"image-button-response","264","525405","0.0-13.0-1.68","19","Low_HMMActual","","","","","","null","","","","Images/BlackBeadChoice.png","","null"
"image-button-response","265","525908","0.0-13.0-2.68","19","Low_HMMActual","","","","","","null","","","","Images/BlackBeadChoiceWrong.png","","null"
"image-button-response","266","528130","0.0-13.0-0.69","19","Low_HMMActual","","","","","","2212","","","","Images/NewTrialWC.png","","1"
"image-button-response","267","528434","0.0-13.0-1.69","19","Low_HMMActual","","","","","","null","","","","Images/BlackBeadChoice.png","","null"
"image-button-response","268","528953","0.0-13.0-2.69","19","Low_HMMActual","","","","","","null","","","","Images/BlackBeadChoiceCorrect.png","","null"
"image-button-response","269","531808","0.0-13.0-0.70","19","Low_HMMActual","","","","","","2850.6999999284744","","","","Images/NewTrialBC.png","","1"
"image-button-response","270","532118","0.0-13.0-1.70","19","Low_HMMActual","","","","","","null","","","","Images/BlackBeadChoice.png","","null"
"image-button-response","271","532633","0.0-13.0-2.70","19","Low_HMMActual","","","","","","null","","","","Images/BlackBeadChoiceWrong.png","","null"
"image-button-response","272","534918","0.0-13.0-0.71","19","Low_HMMActual","","","","","","2280.2000000476837","","","","Images/NewTrialWC.png","","1"
"image-button-response","273","535232","0.0-13.0-1.71","19","Low_HMMActual","","","","","","null","","","","Images/BlackBeadChoice.png","","null"
"image-button-response","274","535739","0.0-13.0-2.71","19","Low_HMMActual","","","","","","null","","","","Images/BlackBeadChoiceCorrect.png","","null"
"image-button-response","275","536989","0.0-13.0-0.72","19","Low_HMMActual","","","","","","1223.2999999523163","","","","Images/NewTrialBC.png","","0"
"image-button-response","276","537296","0.0-13.0-1.72","19","Low_HMMActual","","","","","","null","","","","Images/BlackBeadChoice.png","","null"
"image-button-response","277","537812","0.0-13.0-2.72","19","Low_HMMActual","","","","","","null","","","","Images/BlackBeadChoiceCorrect.png","","null"
"image-button-response","278","538642","0.0-13.0-0.73","19","Low_HMMActual","","","","","","827.2999999523163","","","","Images/NewTrialBC.png","","0"
"image-button-response","279","538966","0.0-13.0-1.73","19","Low_HMMActual","","","","","","null","","","","Images/BlackBeadChoice.png","","null"
"image-button-response","280","539480","0.0-13.0-2.73","19","Low_HMMActual","","","","","","null","","","","Images/BlackBeadChoiceCorrect.png","","null"
"image-button-response","281","540681","0.0-13.0-0.74","19","Low_HMMActual","","","","","","1196.7000000476837","","","","Images/NewTrialBC.png","","3"
"image-button-response","282","540999","0.0-13.0-1.74","19","Low_HMMActual","","","","","","null","","","","Images/WhiteBeadChoice.png","","null"
"image-button-response","283","541528","0.0-13.0-2.74","19","Low_HMMActual","","","","","","null","","","","Images/WhiteBeadChoiceWrong.png","","null"
"image-button-response","284","543334","0.0-13.0-0.75","19","Low_HMMActual","","","","","","1801.2999999523163","","","","Images/NewTrialBC.png","","1"
"image-button-response","285","543654","0.0-13.0-1.75","19","Low_HMMActual","","","","","","null","","","","Images/BlackBeadChoice.png","","null"
"image-button-response","286","544172","0.0-13.0-2.75","19","Low_HMMActual","","","","","","null","","","","Images/BlackBeadChoiceCorrect.png","","null"
"image-button-response","287","545450","0.0-13.0-0.76","19","Low_HMMActual","","","","","","1274.0999999046326","","","","Images/NewTrialBC.png","","1"
"image-button-response","288","545776","0.0-13.0-1.76","19","Low_HMMActual","","","","","","null","","","","Images/BlackBeadChoice.png","","null"
"image-button-response","289","546286","0.0-13.0-2.76","19","Low_HMMActual","","","","","","null","","","","Images/BlackBeadChoiceCorrect.png","","null"
"image-button-response","290","547132","0.0-13.0-0.77","19","Low_HMMActual","","","","","","842.2000000476837","","","","Images/NewTrialBC.png","","0"
"image-button-response","291","547447","0.0-13.0-1.77","19","Low_HMMActual","","","","","","null","","","","Images/BlackBeadChoice.png","","null"
"image-button-response","292","547950","0.0-13.0-2.77","19","Low_HMMActual","","","","","","null","","","","Images/BlackBeadChoiceWrong.png","","null"
"image-button-response","293","550469","0.0-13.0-0.78","19","Low_HMMActual","","","","","","2515.600000023842","","","","Images/NewTrialWC.png","","1"
"image-button-response","294","550780","0.0-13.0-1.78","19","Low_HMMActual","","","","","","null","","","","Images/BlackBeadChoice.png","","null"
"image-button-response","295","551284","0.0-13.0-2.78","19","Low_HMMActual","","","","","","null","","","","Images/BlackBeadChoiceCorrect.png","","null"
"image-button-response","296","552227","0.0-13.0-0.79","19","Low_HMMActual","","","","","","936.2999999523163","","","","Images/NewTrialBC.png","","0"
"image-button-response","297","552544","0.0-13.0-1.79","19","Low_HMMActual","","","","","","null","","","","Images/BlackBeadChoice.png","","null"
"image-button-response","298","553052","0.0-13.0-2.79","19","Low_HMMActual","","","","","","null","","","","Images/BlackBeadChoiceCorrect.png","","null"
"image-button-response","299","554472","0.0-13.0-0.80","19","Low_HMMActual","","","","","","1415.1999999284744","","","","Images/NewTrialBC.png","","0"
"image-button-response","300","554782","0.0-13.0-1.80","19","Low_HMMActual","","","","","","null","","","","Images/BlackBeadChoice.png","","null"
"image-button-response","301","555291","0.0-13.0-2.80","19","Low_HMMActual","","","","","","null","","","","Images/BlackBeadChoiceWrong.png","","null"
"image-button-response","302","557848","0.0-13.0-0.81","19","Low_HMMActual","","","","","","2552.100000023842","","","","Images/NewTrialWC.png","","3"
"image-button-response","303","558160","0.0-13.0-1.81","19","Low_HMMActual","","","","","","null","","","","Images/WhiteBeadChoice.png","","null"
"image-button-response","304","558676","0.0-13.0-2.81","19","Low_HMMActual","","","","","","null","","","","Images/WhiteBeadChoiceCorrect.png","","null"
"image-button-response","305","559342","0.0-13.0-0.82","19","Low_HMMActual","","","","","","661","","","","Images/NewTrialWC.png","","2"
"image-button-response","306","559649","0.0-13.0-1.82","19","Low_HMMActual","","","","","","null","","","","Images/WhiteBeadChoice.png","","null"
"image-button-response","307","560154","0.0-13.0-2.82","19","Low_HMMActual","","","","","","null","","","","Images/WhiteBeadChoiceWrong.png","","null"
"image-button-response","308","562244","0.0-13.0-0.83","19","Low_HMMActual","","","","","","2080.8000000715256","","","","Images/NewTrialBC.png","","3"
"image-button-response","309","562562","0.0-13.0-1.83","19","Low_HMMActual","","","","","","null","","","","Images/WhiteBeadChoice.png","","null"
"image-button-response","310","563121","0.0-13.0-2.83","19","Low_HMMActual","","","","","","null","","","","Images/WhiteBeadChoiceWrong.png","","null"
"image-button-response","311","563791","0.0-13.0-0.84","19","Low_HMMActual","","","","","","662.8999999761581","","","","Images/NewTrialBC.png","","0"
"image-button-response","312","564098","0.0-13.0-1.84","19","Low_HMMActual","","","","","","null","","","","Images/BlackBeadChoice.png","","null"
"image-button-response","313","564613","0.0-13.0-2.84","19","Low_HMMActual","","","","","","null","","","","Images/BlackBeadChoiceCorrect.png","","null"
"image-button-response","314","564939","0.0-13.0-0.85","19","Low_HMMActual","","","","","","321.8000000715256","","","","Images/NewTrialBC.png","","0"
"image-button-response","315","565252","0.0-13.0-1.85","19","Low_HMMActual","","","","","","null","","","","Images/BlackBeadChoice.png","","null"
"image-button-response","316","565766","0.0-13.0-2.85","19","Low_HMMActual","","","","","","469.60000002384186","","","","Images/BlackBeadChoiceCorrect.png","","0"
"image-button-response","317","566582","0.0-13.0-0.86","19","Low_HMMActual","","","","","","807.4000000953674","","","","Images/NewTrialBC.png","","0"
"image-button-response","318","566900","0.0-13.0-1.86","19","Low_HMMActual","","","","","","null","","","","Images/BlackBeadChoice.png","","null"
"image-button-response","319","567417","0.0-13.0-2.86","19","Low_HMMActual","","","","","","null","","","","Images/BlackBeadChoiceWrong.png","","null"
"image-button-response","320","568225","0.0-13.0-0.87","19","Low_HMMActual","","","","","","805","","","","Images/NewTrialWC.png","","3"
"image-button-response","321","568528","0.0-13.0-1.87","19","Low_HMMActual","","","","","","null","","","","Images/WhiteBeadChoice.png","","null"
"image-button-response","322","569038","0.0-13.0-2.87","19","Low_HMMActual","","","","","","null","","","","Images/WhiteBeadChoiceCorrect.png","","null"
"image-button-response","323","569427","0.0-13.0-0.88","19","Low_HMMActual","","","","","","384.8000000715256","","","","Images/NewTrialWC.png","","2"
"image-button-response","324","569740","0.0-13.0-1.88","19","Low_HMMActual","","","","","","null","","","","Images/WhiteBeadChoice.png","","null"
"image-button-response","325","570244","0.0-13.0-2.88","19","Low_HMMActual","","","","","","491.1999999284744","","","","Images/WhiteBeadChoiceCorrect.png","","2"
"image-button-response","326","571447","0.0-13.0-0.89","19","Low_HMMActual","","","","","","1198.8999999761581","","","","Images/NewTrialWC.png","","1"
"image-button-response","327","571756","0.0-13.0-1.89","19","Low_HMMActual","","","","","","null","","","","Images/BlackBeadChoice.png","","null"
"image-button-response","328","572261","0.0-13.0-2.89","19","Low_HMMActual","","","","","","null","","","","Images/BlackBeadChoiceCorrect.png","","null"
"image-button-response","329","573343","0.0-13.0-0.90","19","Low_HMMActual","","","","","","1079.8999999761581","","","","Images/NewTrialBC.png","","2"
"image-button-response","330","573668","0.0-13.0-1.90","19","Low_HMMActual","","","","","","null","","","","Images/WhiteBeadChoice.png","","null"
"image-button-response","331","574173","0.0-13.0-2.90","19","Low_HMMActual","","","","","","null","","","","Images/WhiteBeadChoiceWrong.png","","null"
"image-button-response","332","574827","0.0-13.0-0.91","19","Low_HMMActual","","","","","","648.5","","","","Images/NewTrialBC.png","","0"
"image-button-response","333","575133","0.0-13.0-1.91","19","Low_HMMActual","","","","","","null","","","","Images/BlackBeadChoice.png","","null"
"image-button-response","334","575649","0.0-13.0-2.91","19","Low_HMMActual","","","","","","null","","","","Images/BlackBeadChoiceCorrect.png","","null"
"image-button-response","335","576383","0.0-13.0-0.92","19","Low_HMMActual","","","","","","730.6000000238419","","","","Images/NewTrialBC.png","","0"
"image-button-response","336","576692","0.0-13.0-1.92","19","Low_HMMActual","","","","","","null","","","","Images/BlackBeadChoice.png","","null"
"image-button-response","337","577216","0.0-13.0-2.92","19","Low_HMMActual","","","","","","null","","","","Images/BlackBeadChoiceWrong.png","","null"
"image-button-response","338","578983","0.0-13.0-0.93","19","Low_HMMActual","","","","","","1763.5","","","","Images/NewTrialWC.png","","1"
"image-button-response","339","579289","0.0-13.0-1.93","19","Low_HMMActual","","","","","","null","","","","Images/BlackBeadChoice.png","","null"
"image-button-response","340","579793","0.0-13.0-2.93","19","Low_HMMActual","","","","","","null","","","","Images/BlackBeadChoiceWrong.png","","null"
"image-button-response","341","580647","0.0-13.0-0.94","19","Low_HMMActual","","","","","","848.5","","","","Images/NewTrialWC.png","","2"
"image-button-response","342","580953","0.0-13.0-1.94","19","Low_HMMActual","","","","","","null","","","","Images/WhiteBeadChoice.png","","null"
"image-button-response","343","581463","0.0-13.0-2.94","19","Low_HMMActual","","","","","","null","","","","Images/WhiteBeadChoiceWrong.png","","null"
"image-button-response","344","582315","0.0-13.0-0.95","19","Low_HMMActual","","","","","","839.5999999046326","","","","Images/NewTrialBC.png","","2"
"image-button-response","345","582625","0.0-13.0-1.95","19","Low_HMMActual","","","","","","null","","","","Images/WhiteBeadChoice.png","","null"
"image-button-response","346","583128","0.0-13.0-2.95","19","Low_HMMActual","","","","","","null","","","","Images/WhiteBeadChoiceWrong.png","","null"
"image-button-response","347","583740","0.0-13.0-0.96","19","Low_HMMActual","","","","","","607.8999999761581","","","","Images/NewTrialBC.png","","0"
"image-button-response","348","584059","0.0-13.0-1.96","19","Low_HMMActual","","","","","","null","","","","Images/BlackBeadChoice.png","","null"
"image-button-response","349","584582","0.0-13.0-2.96","19","Low_HMMActual","","","","","","null","","","","Images/BlackBeadChoiceCorrect.png","","null"
"image-button-response","350","585272","0.0-13.0-0.97","19","Low_HMMActual","","","","","","685.0999999046326","","","","Images/NewTrialBC.png","","0"
"image-button-response","351","585585","0.0-13.0-1.97","19","Low_HMMActual","","","","","","null","","","","Images/BlackBeadChoice.png","","null"
"image-button-response","352","586088","0.0-13.0-2.97","19","Low_HMMActual","","","","","","null","","","","Images/BlackBeadChoiceCorrect.png","","null"
"image-button-response","353","587689","0.0-13.0-0.98","19","Low_HMMActual","","","","","","1597.1000000238419","","","","Images/NewTrialBC.png","","3"
"image-button-response","354","587993","0.0-13.0-1.98","19","Low_HMMActual","","","","","","null","","","","Images/WhiteBeadChoice.png","","null"
"image-button-response","355","588496","0.0-13.0-2.98","19","Low_HMMActual","","","","","","null","","","","Images/WhiteBeadChoiceCorrect.png","","null"
"image-button-response","356","590596","0.0-13.0-0.99","19","Low_HMMActual","","","","","","2097","","","","Images/NewTrialWC.png","","1"
"image-button-response","357","590909","0.0-13.0-1.99","19","Low_HMMActual","","","","","","null","","","","Images/BlackBeadChoice.png","","null"
"image-button-response","358","591424","0.0-13.0-2.99","19","Low_HMMActual","","","","","","null","","","","Images/BlackBeadChoiceCorrect.png","","null"
"image-button-response","359","592494","0.0-13.0-0.100","19","Low_HMMActual","","","","","","1063.2000000476837","","","","Images/NewTrialBC.png","","0"
"image-button-response","360","592812","0.0-13.0-1.100","19","Low_HMMActual","","","","","","null","","","","Images/BlackBeadChoice.png","","null"
"image-button-response","361","593318","0.0-13.0-2.100","19","Low_HMMActual","","","","","","null","","","","Images/BlackBeadChoiceWrong.png","","null"
"image-button-response","362","594843","0.0-13.0-0.101","19","Low_HMMActual","","","","","","1444.2000000476837","","","","Images/NewTrialWC.png","","2"
"image-button-response","363","595159","0.0-13.0-1.101","19","Low_HMMActual","","","","","","null","","","","Images/WhiteBeadChoice.png","","null"
"image-button-response","364","595664","0.0-13.0-2.101","19","Low_HMMActual","","","","","","null","","","","Images/WhiteBeadChoiceCorrect.png","","null"
"image-button-response","365","595973","0.0-13.0-0.102","19","Low_HMMActual","","","","","","305.10000002384186","","","","Images/NewTrialWC.png","","2"
"image-button-response","366","596281","0.0-13.0-1.102","19","Low_HMMActual","","","","","","null","","","","Images/WhiteBeadChoice.png","","null"
"image-button-response","367","596804","0.0-13.0-2.102","19","Low_HMMActual","","","","","","null","","","","Images/WhiteBeadChoiceCorrect.png","","null"
"image-button-response","368","597724","0.0-13.0-0.103","19","Low_HMMActual","","","","","","908.3999999761581","","","","Images/NewTrialWC.png","","2"
"image-button-response","369","598054","0.0-13.0-1.103","19","Low_HMMActual","","","","","","null","","","","Images/WhiteBeadChoice.png","","null"
"image-button-response","370","598558","0.0-13.0-2.103","19","Low_HMMActual","","","","","","null","","","","Images/WhiteBeadChoiceWrong.png","","null"
"image-button-response","371","599422","0.0-13.0-0.104","19","Low_HMMActual","","","","","","860.8999999761581","","","","Images/NewTrialBC.png","","1"
"image-button-response","372","599729","0.0-13.0-1.104","19","Low_HMMActual","","","","","","null","","","","Images/BlackBeadChoice.png","","null"
"image-button-response","373","600244","0.0-13.0-2.104","19","Low_HMMActual","","","","","","null","","","","Images/BlackBeadChoiceWrong.png","","null"
"image-button-response","374","600897","0.0-13.0-0.105","19","Low_HMMActual","","","","","","649.5","","","","Images/NewTrialWC.png","","1"
"image-button-response","375","601215","0.0-13.0-1.105","19","Low_HMMActual","","","","","","null","","","","Images/BlackBeadChoice.png","","null"
"image-button-response","376","601728","0.0-13.0-2.105","19","Low_HMMActual","","","","","","null","","","","Images/BlackBeadChoiceWrong.png","","null"
"image-button-response","377","602146","0.0-13.0-0.106","19","Low_HMMActual","","","","","","415.60000002384186","","","","Images/NewTrialWC.png","","2"
"image-button-response","378","602449","0.0-13.0-1.106","19","Low_HMMActual","","","","","","null","","","","Images/WhiteBeadChoice.png","","null"
"image-button-response","379","602956","0.0-13.0-2.106","19","Low_HMMActual","","","","","","null","","","","Images/WhiteBeadChoiceCorrect.png","","null"
"image-button-response","380","603863","0.0-13.0-0.107","19","Low_HMMActual","","","","","","903.7999999523163","","","","Images/NewTrialWC.png","","2"
"image-button-response","381","604180","0.0-13.0-1.107","19","Low_HMMActual","","","","","","null","","","","Images/WhiteBeadChoice.png","","null"
"image-button-response","382","604685","0.0-13.0-2.107","19","Low_HMMActual","","","","","","null","","","","Images/WhiteBeadChoiceCorrect.png","","null"
"image-button-response","383","605761","0.0-13.0-0.108","19","Low_HMMActual","","","","","","1066","","","","Images/NewTrialWC.png","","1"
"image-button-response","384","606065","0.0-13.0-1.108","19","Low_HMMActual","","","","","","null","","","","Images/BlackBeadChoice.png","","null"
"image-button-response","385","606569","0.0-13.0-2.108","19","Low_HMMActual","","","","","","null","","","","Images/BlackBeadChoiceWrong.png","","null"
"image-button-response","386","607017","0.0-13.0-0.109","19","Low_HMMActual","","","","","","443.60000002384186","","","","Images/NewTrialWC.png","","2"
"image-button-response","387","607325","0.0-13.0-1.109","19","Low_HMMActual","","","","","","null","","","","Images/WhiteBeadChoice.png","","null"
"image-button-response","388","607841","0.0-13.0-2.109","19","Low_HMMActual","","","","","","null","","","","Images/WhiteBeadChoiceCorrect.png","","null"
"image-button-response","389","608111","0.0-13.0-0.110","19","Low_HMMActual","","","","","","267.10000002384186","","","","Images/NewTrialWC.png","","2"
"image-button-response","390","608426","0.0-13.0-1.110","19","Low_HMMActual","","","","","","null","","","","Images/WhiteBeadChoice.png","","null"
"image-button-response","391","608931","0.0-13.0-2.110","19","Low_HMMActual","","","","","","null","","","","Images/WhiteBeadChoiceWrong.png","","null"
"image-button-response","392","610719","0.0-13.0-0.111","19","Low_HMMActual","","","","","","1784.6000000238419","","","","Images/NewTrialBC.png","","3"
"image-button-response","393","611033","0.0-13.0-1.111","19","Low_HMMActual","","","","","","null","","","","Images/WhiteBeadChoice.png","","null"
"image-button-response","394","611537","0.0-13.0-2.111","19","Low_HMMActual","","","","","","null","","","","Images/WhiteBeadChoiceWrong.png","","null"
"image-button-response","395","612441","0.0-13.0-0.112","19","Low_HMMActual","","","","","","898.6000000238419","","","","Images/NewTrialBC.png","","0"
"image-button-response","396","612752","0.0-13.0-1.112","19","Low_HMMActual","","","","","","null","","","","Images/BlackBeadChoice.png","","null"
"image-button-response","397","613268","0.0-13.0-2.112","19","Low_HMMActual","","","","","","null","","","","Images/BlackBeadChoiceWrong.png","","null"
"image-button-response","398","614034","0.0-13.0-0.113","19","Low_HMMActual","","","","","","762.7999999523163","","","","Images/NewTrialWC.png","","0"
"image-button-response","399","614355","0.0-13.0-1.113","19","Low_HMMActual","","","","","","null","","","","Images/BlackBeadChoice.png","","null"
"image-button-response","400","614858","0.0-13.0-2.113","19","Low_HMMActual","","","","","","null","","","","Images/BlackBeadChoiceWrong.png","","null"
"image-button-response","401","615170","0.0-13.0-0.114","19","Low_HMMActual","","","","","","308.39999997615814","","","","Images/NewTrialWC.png","","1"
"image-button-response","402","615479","0.0-13.0-1.114","19","Low_HMMActual","","","","","","null","","","","Images/BlackBeadChoice.png","","null"
"image-button-response","403","615985","0.0-13.0-2.114","19","Low_HMMActual","","","","","","null","","","","Images/BlackBeadChoiceWrong.png","","null"
"image-button-response","404","616658","0.0-13.0-0.115","19","Low_HMMActual","","","","","","665.7000000476837","","","","Images/NewTrialWC.png","","2"
"image-button-response","405","616974","0.0-13.0-1.115","19","Low_HMMActual","","","","","","null","","","","Images/WhiteBeadChoice.png","","null"
"image-button-response","406","617490","0.0-13.0-2.115","19","Low_HMMActual","","","","","","null","","","","Images/WhiteBeadChoiceCorrect.png","","null"
"image-button-response","407","618077","0.0-13.0-0.116","19","Low_HMMActual","","","","","","583.8999999761581","","","","Images/NewTrialWC.png","","2"
"image-button-response","408","618391","0.0-13.0-1.116","19","Low_HMMActual","","","","","","null","","","","Images/WhiteBeadChoice.png","","null"
"image-button-response","409","618893","0.0-13.0-2.116","19","Low_HMMActual","","","","","","null","","","","Images/WhiteBeadChoiceWrong.png","","null"
"image-button-response","410","622057","0.0-13.0-0.117","19","Low_HMMActual","","","","","","3161.6999999284744","","","","Images/NewTrialBC.png","","0"
"image-button-response","411","622363","0.0-13.0-1.117","19","Low_HMMActual","","","","","","null","","","","Images/BlackBeadChoice.png","","null"
"image-button-response","412","622879","0.0-13.0-2.117","19","Low_HMMActual","","","","","","null","","","","Images/BlackBeadChoiceCorrect.png","","null"
"image-button-response","413","623333","0.0-13.0-0.118","19","Low_HMMActual","","","","","","451.2000000476837","","","","Images/NewTrialBC.png","","0"
"image-button-response","414","623648","0.0-13.0-1.118","19","Low_HMMActual","","","","","","null","","","","Images/BlackBeadChoice.png","","null"
"image-button-response","415","624164","0.0-13.0-2.118","19","Low_HMMActual","","","","","","null","","","","Images/BlackBeadChoiceCorrect.png","","null"
"image-button-response","416","624320","0.0-13.0-0.119","19","Low_HMMActual","","","","","","143.10000002384186","","","","Images/NewTrialBC.png","","0"
"image-button-response","417","624634","0.0-13.0-1.119","19","Low_HMMActual","","","","","","null","","","","Images/BlackBeadChoice.png","","null"
"image-button-response","418","625138","0.0-13.0-2.119","19","Low_HMMActual","","","","","","null","","","","Images/BlackBeadChoiceCorrect.png","","null"
"image-button-response","419","625713","0.0-13.0-0.120","19","Low_HMMActual","","","","","","570.6000000238419","","","","Images/NewTrialBC.png","","3"
"image-button-response","420","626022","0.0-13.0-1.120","19","Low_HMMActual","","","","","","null","","","","Images/WhiteBeadChoice.png","","null"
"image-button-response","421","626537","0.0-13.0-2.120","19","Low_HMMActual","","","","","","null","","","","Images/WhiteBeadChoiceCorrect.png","","null"
"image-button-response","422","628233","0.0-13.0-0.121","19","Low_HMMActual","","","","","","1692.6999999284744","","","","Images/NewTrialWC.png","","1"
"image-button-response","423","628544","0.0-13.0-1.121","19","Low_HMMActual","","","","","","null","","","","Images/BlackBeadChoice.png","","null"
"image-button-response","424","629058","0.0-13.0-2.121","19","Low_HMMActual","","","","","","null","","","","Images/BlackBeadChoiceWrong.png","","null"
"image-button-response","425","629636","0.0-13.0-0.122","19","Low_HMMActual","","","","","","570.5","","","","Images/NewTrialWC.png","","2"
"image-button-response","426","629945","0.0-13.0-1.122","19","Low_HMMActual","","","","","","null","","","","Images/WhiteBeadChoice.png","","null"
"image-button-response","427","630464","0.0-13.0-2.122","19","Low_HMMActual","","","","","","null","","","","Images/WhiteBeadChoiceCorrect.png","","null"
"image-button-response","428","631659","0.0-13.0-0.123","19","Low_HMMActual","","","","","","1190.7000000476837","","","","Images/NewTrialWC.png","","2"
"image-button-response","429","631979","0.0-13.0-1.123","19","Low_HMMActual","","","","","","null","","","","Images/WhiteBeadChoice.png","","null"
"image-button-response","430","632482","0.0-13.0-2.123","19","Low_HMMActual","","","","","","null","","","","Images/WhiteBeadChoiceWrong.png","","null"
"image-button-response","431","634086","0.0-13.0-0.124","19","Low_HMMActual","","","","","","1589.2999999523163","","","","Images/NewTrialBC.png","","2"
"image-button-response","432","634398","0.0-13.0-1.124","19","Low_HMMActual","","","","","","null","","","","Images/WhiteBeadChoice.png","","null"
"image-button-response","433","634901","0.0-13.0-2.124","19","Low_HMMActual","","","","","","null","","","","Images/WhiteBeadChoiceWrong.png","","null"
"image-button-response","434","636095","0.0-13.0-0.125","19","Low_HMMActual","","","","","","1188.2999999523163","","","","Images/NewTrialBC.png","","0"
"image-button-response","435","636402","0.0-13.0-1.125","19","Low_HMMActual","","","","","","null","","","","Images/BlackBeadChoice.png","","null"
"image-button-response","436","636926","0.0-13.0-2.125","19","Low_HMMActual","","","","","","null","","","","Images/BlackBeadChoiceWrong.png","","null"
"image-button-response","437","638890","0.0-13.0-0.126","19","Low_HMMActual","","","","","","1961.1000000238419","","","","Images/NewTrialWC.png","","2"
"image-button-response","438","639193","0.0-13.0-1.126","19","Low_HMMActual","","","","","","null","","","","Images/WhiteBeadChoice.png","","null"
"image-button-response","439","639697","0.0-13.0-2.126","19","Low_HMMActual","","","","","","null","","","","Images/WhiteBeadChoiceWrong.png","","null"
"image-button-response","440","640476","0.0-13.0-0.127","19","Low_HMMActual","","","","","","765.7000000476837","","","","Images/NewTrialBC.png","","1"
"image-button-response","441","640793","0.0-13.0-1.127","19","Low_HMMActual","","","","","","null","","","","Images/BlackBeadChoice.png","","null"
"image-button-response","442","641309","0.0-13.0-2.127","19","Low_HMMActual","","","","","","null","","","","Images/BlackBeadChoiceCorrect.png","","null"
"image-button-response","443","641775","0.0-13.0-0.128","19","Low_HMMActual","","","","","","461.2999999523163","","","","Images/NewTrialBC.png","","0"
"image-button-response","444","642080","0.0-13.0-1.128","19","Low_HMMActual","","","","","","null","","","","Images/BlackBeadChoice.png","","null"
"image-button-response","445","642596","0.0-13.0-2.128","19","Low_HMMActual","","","","","","null","","","","Images/BlackBeadChoiceCorrect.png","","null"
"image-button-response","446","644456","0.0-13.0-0.129","19","Low_HMMActual","","","","","","1856","","","","Images/NewTrialBC.png","","0"
"image-button-response","447","644770","0.0-13.0-1.129","19","Low_HMMActual","","","","","","null","","","","Images/BlackBeadChoice.png","","null"
"image-button-response","448","645285","0.0-13.0-2.129","19","Low_HMMActual","","","","","","null","","","","Images/BlackBeadChoiceCorrect.png","","null"
"image-button-response","449","645606","0.0-13.0-0.130","19","Low_HMMActual","","","","","","317.7000000476837","","","","Images/NewTrialBC.png","","0"
"image-button-response","450","645919","0.0-13.0-1.130","19","Low_HMMActual","","","","","","null","","","","Images/BlackBeadChoice.png","","null"
"image-button-response","451","646442","0.0-13.0-2.130","19","Low_HMMActual","","","","","","null","","","","Images/BlackBeadChoiceCorrect.png","","null"
"image-button-response","452","647329","0.0-13.0-0.131","19","Low_HMMActual","","","","","","883.8999999761581","","","","Images/NewTrialBC.png","","0"
"image-button-response","453","647645","0.0-13.0-1.131","19","Low_HMMActual","","","","","","null","","","","Images/BlackBeadChoice.png","","null"
"image-button-response","454","648176","0.0-13.0-2.131","19","Low_HMMActual","","","","","","null","","","","Images/BlackBeadChoiceCorrect.png","","null"
"image-button-response","455","648582","0.0-13.0-0.132","19","Low_HMMActual","","","","","","401.89999997615814","","","","Images/NewTrialBC.png","","0"
"image-button-response","456","648894","0.0-13.0-1.132","19","Low_HMMActual","","","","","","null","","","","Images/BlackBeadChoice.png","","null"
"image-button-response","457","649410","0.0-13.0-2.132","19","Low_HMMActual","","","","","","null","","","","Images/BlackBeadChoiceCorrect.png","","null"
"image-button-response","458","650031","0.0-13.0-0.133","19","Low_HMMActual","","","","","","617.8999999761581","","","","Images/NewTrialBC.png","","0"
"image-button-response","459","650336","0.0-13.0-1.133","19","Low_HMMActual","","","","","","null","","","","Images/BlackBeadChoice.png","","null"
"image-button-response","460","650869","0.0-13.0-2.133","19","Low_HMMActual","","","","","","null","","","","Images/BlackBeadChoiceCorrect.png","","null"
"image-button-response","461","652242","0.0-13.0-0.134","19","Low_HMMActual","","","","","","1368.6000000238419","","","","Images/NewTrialBC.png","","0"
"image-button-response","462","652555","0.0-13.0-1.134","19","Low_HMMActual","","","","","","null","","","","Images/BlackBeadChoice.png","","null"
"image-button-response","463","653072","0.0-13.0-2.134","19","Low_HMMActual","","","","","","null","","","","Images/BlackBeadChoiceCorrect.png","","null"
"image-button-response","464","653488","0.0-13.0-0.135","19","Low_HMMActual","","","","","","410.89999997615814","","","","Images/NewTrialBC.png","","0"
"image-button-response","465","653806","0.0-13.0-1.135","19","Low_HMMActual","","","","","","190.39999997615814","","","","Images/BlackBeadChoice.png","","0"
"image-button-response","466","654323","0.0-13.0-2.135","19","Low_HMMActual","","","","","","null","","","","Images/BlackBeadChoiceWrong.png","","null"
"image-button-response","467","658118","0.0-13.0-0.136","19","Low_HMMActual","","","","","","3777.399999976158","","","","Images/NewTrialWC.png","","3"
"image-button-response","468","658431","0.0-13.0-1.136","19","Low_HMMActual","","","","","","null","","","","Images/WhiteBeadChoice.png","","null"
"image-button-response","469","658933","0.0-13.0-2.136","19","Low_HMMActual","","","","","","null","","","","Images/WhiteBeadChoiceCorrect.png","","null"
"image-button-response","470","659372","0.0-13.0-0.137","19","Low_HMMActual","","","","","","435.40000009536743","","","","Images/NewTrialWC.png","","2"
"image-button-response","471","659686","0.0-13.0-1.137","19","Low_HMMActual","","","","","","null","","","","Images/WhiteBeadChoice.png","","null"
"image-button-response","472","660202","0.0-13.0-2.137","19","Low_HMMActual","","","","","","null","","","","Images/WhiteBeadChoiceCorrect.png","","null"
"image-button-response","473","660660","0.0-13.0-0.138","19","Low_HMMActual","","","","","","452.7999999523163","","","","Images/NewTrialWC.png","","2"
"image-button-response","474","660972","0.0-13.0-1.138","19","Low_HMMActual","","","","","","null","","","","Images/WhiteBeadChoice.png","","null"
"image-button-response","475","661489","0.0-13.0-2.138","19","Low_HMMActual","","","","","","null","","","","Images/WhiteBeadChoiceCorrect.png","","null"
"image-button-response","476","661877","0.0-13.0-0.139","19","Low_HMMActual","","","","","","380","","","","Images/NewTrialWC.png","","2"
"image-button-response","477","662189","0.0-13.0-1.139","19","Low_HMMActual","","","","","","null","","","","Images/WhiteBeadChoice.png","","null"
"image-button-response","478","662732","0.0-13.0-2.139","19","Low_HMMActual","","","","","","null","","","","Images/WhiteBeadChoiceCorrect.png","","null"
"image-button-response","479","664993","0.0-13.0-0.140","19","Low_HMMActual","","","","","","2257","","","","Images/NewTrialWC.png","","2"
"image-button-response","480","665311","0.0-13.0-1.140","19","Low_HMMActual","","","","","","null","","","","Images/WhiteBeadChoice.png","","null"
"image-button-response","481","665828","0.0-13.0-2.140","19","Low_HMMActual","","","","","","null","","","","Images/WhiteBeadChoiceCorrect.png","","null"
"image-button-response","482","666581","0.0-13.0-0.141","19","Low_HMMActual","","","","","","749.8000000715256","","","","Images/NewTrialWC.png","","2"
"image-button-response","483","666899","0.0-13.0-1.141","19","Low_HMMActual","","","","","","null","","","","Images/WhiteBeadChoice.png","","null"
"image-button-response","484","667430","0.0-13.0-2.141","19","Low_HMMActual","","","","","","null","","","","Images/WhiteBeadChoiceCorrect.png","","null"
"image-button-response","485","668342","0.0-13.0-0.142","19","Low_HMMActual","","","","","","907.6000000238419","","","","Images/NewTrialWC.png","","3"
"image-button-response","486","668647","0.0-13.0-1.142","19","Low_HMMActual","","","","","","null","","","","Images/WhiteBeadChoice.png","","null"
"image-button-response","487","669150","0.0-13.0-2.142","19","Low_HMMActual","","","","","","null","","","","Images/WhiteBeadChoiceWrong.png","","null"
"image-button-response","488","671059","0.0-13.0-0.143","19","Low_HMMActual","","","","","","1905.6000000238419","","","","Images/NewTrialBC.png","","0"
"image-button-response","489","671369","0.0-13.0-1.143","19","Low_HMMActual","","","","","","null","","","","Images/BlackBeadChoice.png","","null"
"image-button-response","490","671872","0.0-13.0-2.143","19","Low_HMMActual","","","","","","null","","","","Images/BlackBeadChoiceWrong.png","","null"
"image-button-response","491","672847","0.0-13.0-0.144","19","Low_HMMActual","","","","","","972.1000000238419","","","","Images/NewTrialWC.png","","1"
"image-button-response","492","673158","0.0-13.0-1.144","19","Low_HMMActual","","","","","","null","","","","Images/BlackBeadChoice.png","","null"
"image-button-response","493","673662","0.0-13.0-2.144","19","Low_HMMActual","","","","","","null","","","","Images/BlackBeadChoiceWrong.png","","null"
"image-button-response","494","674226","0.0-13.0-0.145","19","Low_HMMActual","","","","","","559","","","","Images/NewTrialWC.png","","2"
"image-button-response","495","674530","0.0-13.0-1.145","19","Low_HMMActual","","","","","","null","","","","Images/WhiteBeadChoice.png","","null"
"image-button-response","496","675036","0.0-13.0-2.145","19","Low_HMMActual","","","","","","500.60000002384186","","","","Images/WhiteBeadChoiceCorrect.png","","2"
"image-button-response","497","676907","0.0-13.0-0.146","19","Low_HMMActual","","","","","","1864.2999999523163","","","","Images/NewTrialWC.png","","2"
"image-button-response","498","677222","0.0-13.0-1.146","19","Low_HMMActual","","","","","","null","","","","Images/WhiteBeadChoice.png","","null"
"image-button-response","499","677754","0.0-13.0-2.146","19","Low_HMMActual","","","","","","null","","","","Images/WhiteBeadChoiceWrong.png","","null"
"image-button-response","500","680067","0.0-13.0-0.147","19","Low_HMMActual","","","","","","2308.399999976158","","","","Images/NewTrialBC.png","","3"
"image-button-response","501","680375","0.0-13.0-1.147","19","Low_HMMActual","","","","","","null","","","","Images/WhiteBeadChoice.png","","null"
"image-button-response","502","680888","0.0-13.0-2.147","19","Low_HMMActual","","","","","","null","","","","Images/WhiteBeadChoiceCorrect.png","","null"
"image-button-response","503","681601","0.0-13.0-0.148","19","Low_HMMActual","","","","","","709.3000000715256","","","","Images/NewTrialWC.png","","2"
"image-button-response","504","681913","0.0-13.0-1.148","19","Low_HMMActual","","","","","","null","","","","Images/WhiteBeadChoice.png","","null"
"image-button-response","505","682429","0.0-13.0-2.148","19","Low_HMMActual","","","","","","null","","","","Images/WhiteBeadChoiceCorrect.png","","null"
"image-button-response","506","682712","0.0-13.0-0.149","19","Low_HMMActual","","","","","","278.8000000715256","","","","Images/NewTrialWC.png","","2"
"image-button-response","507","683031","0.0-13.0-1.149","19","Low_HMMActual","","","","","","null","","","","Images/WhiteBeadChoice.png","","null"
"image-button-response","508","683562","0.0-13.0-2.149","19","Low_HMMActual","","","","","","null","","","","Images/WhiteBeadChoiceWrong.png","","null"
"image-button-response","509","684852","0.0-13.0-0.150","19","Low_HMMActual","","","","","","1285.7999999523163","","","","Images/NewTrialBC.png","","3"
"image-button-response","510","685166","0.0-13.0-1.150","19","Low_HMMActual","","","","","","null","","","","Images/WhiteBeadChoice.png","","null"
"image-button-response","511","685673","0.0-13.0-2.150","19","Low_HMMActual","","","","","","null","","","","Images/WhiteBeadChoiceCorrect.png","","null"
"image-button-response","512","686215","0.0-13.0-0.151","19","Low_HMMActual","","","","","","536.6000000238419","","","","Images/NewTrialWC.png","","2"
"image-button-response","513","686522","0.0-13.0-1.151","19","Low_HMMActual","","","","","","null","","","","Images/WhiteBeadChoice.png","","null"
"image-button-response","514","687038","0.0-13.0-2.151","19","Low_HMMActual","","","","","","null","","","","Images/WhiteBeadChoiceCorrect.png","","null"
"image-button-response","515","687970","0.0-13.0-0.152","19","Low_HMMActual","","","","","","927.5","","","","Images/NewTrialWC.png","","2"
"image-button-response","516","688288","0.0-13.0-1.152","19","Low_HMMActual","","","","","","null","","","","Images/WhiteBeadChoice.png","","null"
"image-button-response","517","688827","0.0-13.0-2.152","19","Low_HMMActual","","","","","","null","","","","Images/WhiteBeadChoiceCorrect.png","","null"
"image-button-response","518","689927","0.0-13.0-0.153","19","Low_HMMActual","","","","","","1097.1999999284744","","","","Images/NewTrialWC.png","","2"
"image-button-response","519","690244","0.0-13.0-1.153","19","Low_HMMActual","","","","","","null","","","","Images/WhiteBeadChoice.png","","null"
"image-button-response","520","690775","0.0-13.0-2.153","19","Low_HMMActual","","","","","","null","","","","Images/WhiteBeadChoiceCorrect.png","","null"
"image-button-response","521","691823","0.0-13.0-0.154","19","Low_HMMActual","","","","","","1043.9000000953674","","","","Images/NewTrialWC.png","","2"
"image-button-response","522","692132","0.0-13.0-1.154","19","Low_HMMActual","","","","","","null","","","","Images/WhiteBeadChoice.png","","null"
"image-button-response","523","692649","0.0-13.0-2.154","19","Low_HMMActual","","","","","","null","","","","Images/WhiteBeadChoiceCorrect.png","","null"
"image-button-response","524","693135","0.0-13.0-0.155","19","Low_HMMActual","","","","","","482.7000000476837","","","","Images/NewTrialWC.png","","2"
"image-button-response","525","693450","0.0-13.0-1.155","19","Low_HMMActual","","","","","","null","","","","Images/WhiteBeadChoice.png","","null"
"image-button-response","526","693966","0.0-13.0-2.155","19","Low_HMMActual","","","","","","null","","","","Images/WhiteBeadChoiceWrong.png","","null"
"image-button-response","527","695995","0.0-13.0-0.156","19","Low_HMMActual","","","","","","2024.8999999761581","","","","Images/NewTrialBC.png","","3"
"image-button-response","528","696298","0.0-13.0-1.156","19","Low_HMMActual","","","","","","null","","","","Images/WhiteBeadChoice.png","","null"
"image-button-response","529","696801","0.0-13.0-2.156","19","Low_HMMActual","","","","","","null","","","","Images/WhiteBeadChoiceWrong.png","","null"
"image-button-response","530","699368","0.0-13.0-0.157","19","Low_HMMActual","","","","","","2561.399999976158","","","","Images/NewTrialBC.png","","1"
"image-button-response","531","699678","0.0-13.0-1.157","19","Low_HMMActual","","","","","","null","","","","Images/BlackBeadChoice.png","","null"
"image-button-response","532","700194","0.0-13.0-2.157","19","Low_HMMActual","","","","","","null","","","","Images/BlackBeadChoiceCorrect.png","","null"
"image-button-response","533","701307","0.0-13.0-0.158","19","Low_HMMActual","","","","","","1094.0999999046326","","","","Images/NewTrialBC.png","","0"
"image-button-response","534","701612","0.0-13.0-1.158","19","Low_HMMActual","","","","","","null","","","","Images/BlackBeadChoice.png","","null"
"image-button-response","535","702129","0.0-13.0-2.158","19","Low_HMMActual","","","","","","null","","","","Images/BlackBeadChoiceCorrect.png","","null"
"image-button-response","536","702929","0.0-13.0-0.159","19","Low_HMMActual","","","","","","796.6000000238419","","","","Images/NewTrialBC.png","","0"
"image-button-response","537","703254","0.0-13.0-1.159","19","Low_HMMActual","","","","","","null","","","","Images/BlackBeadChoice.png","","null"
"image-button-response","538","703770","0.0-13.0-2.159","19","Low_HMMActual","","","","","","null","","","","Images/BlackBeadChoiceCorrect.png","","null"
"image-button-response","539","703956","0.0-13.0-0.160","19","Low_HMMActual","","","","","","181.60000002384186","","","","Images/NewTrialBC.png","","0"
"image-button-response","540","704270","0.0-13.0-1.160","19","Low_HMMActual","","","","","","null","","","","Images/BlackBeadChoice.png","","null"
"image-button-response","541","704788","0.0-13.0-2.160","19","Low_HMMActual","","","","","","null","","","","Images/BlackBeadChoiceCorrect.png","","null"
"image-button-response","542","705779","0.0-13.0-0.161","19","Low_HMMActual","","","","","","987","","","","Images/NewTrialBC.png","","0"
"image-button-response","543","706089","0.0-13.0-1.161","19","Low_HMMActual","","","","","","null","","","","Images/BlackBeadChoice.png","","null"
"image-button-response","544","706604","0.0-13.0-2.161","19","Low_HMMActual","","","","","","null","","","","Images/BlackBeadChoiceWrong.png","","null"
"image-button-response","545","707724","0.0-13.0-0.162","19","Low_HMMActual","","","","","","1117.2000000476837","","","","Images/NewTrialWC.png","","1"
"image-button-response","546","708039","0.0-13.0-1.162","19","Low_HMMActual","","","","","","null","","","","Images/BlackBeadChoice.png","","null"
"image-button-response","547","708541","0.0-13.0-2.162","19","Low_HMMActual","","","","","","null","","","","Images/BlackBeadChoiceWrong.png","","null"
"image-button-response","548","709290","0.0-13.0-0.163","19","Low_HMMActual","","","","","","743.5","","","","Images/NewTrialWC.png","","2"
"image-button-response","549","709609","0.0-13.0-1.163","19","Low_HMMActual","","","","","","null","","","","Images/WhiteBeadChoice.png","","null"
"image-button-response","550","710125","0.0-13.0-2.163","19","Low_HMMActual","","","","","","null","","","","Images/WhiteBeadChoiceCorrect.png","","null"
"image-button-response","551","710895","0.0-13.0-0.164","19","Low_HMMActual","","","","","","767","","","","Images/NewTrialWC.png","","2"
"image-button-response","552","711213","0.0-13.0-1.164","19","Low_HMMActual","","","","","","null","","","","Images/WhiteBeadChoice.png","","null"
"image-button-response","553","711718","0.0-13.0-2.164","19","Low_HMMActual","","","","","","null","","","","Images/WhiteBeadChoiceCorrect.png","","null"
"image-button-response","554","712994","0.0-13.0-0.165","19","Low_HMMActual","","","","","","1249.5","","","","Images/NewTrialWC.png","","2"
"image-button-response","555","713300","0.0-13.0-1.165","19","Low_HMMActual","","","","","","null","","","","Images/WhiteBeadChoice.png","","null"
"image-button-response","556","713823","0.0-13.0-2.165","19","Low_HMMActual","","","","","","null","","","","Images/WhiteBeadChoiceCorrect.png","","null"
"image-button-response","557","714111","0.0-13.0-0.166","19","Low_HMMActual","","","","","","284.39999997615814","","","","Images/NewTrialWC.png","","2"
"image-button-response","558","714425","0.0-13.0-1.166","19","Low_HMMActual","","","","","","null","","","","Images/WhiteBeadChoice.png","","null"
"image-button-response","559","714934","0.0-13.0-2.166","19","Low_HMMActual","","","","","","null","","","","Images/WhiteBeadChoiceCorrect.png","","null"
"image-button-response","560","715340","0.0-13.0-0.167","19","Low_HMMActual","","","","","","401.7000000476837","","","","Images/NewTrialWC.png","","2"
"image-button-response","561","715652","0.0-13.0-1.167","19","Low_HMMActual","","","","","","null","","","","Images/WhiteBeadChoice.png","","null"
"image-button-response","562","716174","0.0-13.0-2.167","19","Low_HMMActual","","","","","","null","","","","Images/WhiteBeadChoiceCorrect.png","","null"
"image-button-response","563","718006","0.0-13.0-0.168","19","Low_HMMActual","","","","","","1825.7000000476837","","","","Images/NewTrialWC.png","","1"
"image-button-response","564","718324","0.0-13.0-1.168","19","Low_HMMActual","","","","","","null","","","","Images/BlackBeadChoice.png","","null"
"image-button-response","565","718841","0.0-13.0-2.168","19","Low_HMMActual","","","","","","null","","","","Images/BlackBeadChoiceCorrect.png","","null"
"image-button-response","566","719507","0.0-13.0-0.169","19","Low_HMMActual","","","","","","663.2999999523163","","","","Images/NewTrialBC.png","","0"
"image-button-response","567","719812","0.0-13.0-1.169","19","Low_HMMActual","","","","","","null","","","","Images/BlackBeadChoice.png","","null"
"image-button-response","568","720330","0.0-13.0-2.169","19","Low_HMMActual","","","","","","null","","","","Images/BlackBeadChoiceWrong.png","","null"
"image-button-response","569","721974","0.0-13.0-0.170","19","Low_HMMActual","","","","","","1639","","","","Images/NewTrialWC.png","","3"
"image-button-response","570","722285","0.0-13.0-1.170","19","Low_HMMActual","","","","","","null","","","","Images/WhiteBeadChoice.png","","null"
"image-button-response","571","722788","0.0-13.0-2.170","19","Low_HMMActual","","","","","","null","","","","Images/WhiteBeadChoiceCorrect.png","","null"
"image-button-response","572","723410","0.0-13.0-0.171","19","Low_HMMActual","","","","","","615.7000000476837","","","","Images/NewTrialWC.png","","2"
"image-button-response","573","723718","0.0-13.0-1.171","19","Low_HMMActual","","","","","","null","","","","Images/WhiteBeadChoice.png","","null"
"image-button-response","574","724222","0.0-13.0-2.171","19","Low_HMMActual","","","","","","449.8000000715256","","","","Images/WhiteBeadChoiceCorrect.png","","2"
"image-button-response","575","725468","0.0-13.0-0.172","19","Low_HMMActual","","","","","","1241.6000000238419","","","","Images/NewTrialWC.png","","2"
"image-button-response","576","725790","0.0-13.0-1.172","19","Low_HMMActual","","","","","","null","","","","Images/WhiteBeadChoice.png","","null"
"image-button-response","577","726322","0.0-13.0-2.172","19","Low_HMMActual","","","","","","null","","","","Images/WhiteBeadChoiceCorrect.png","","null"
"image-button-response","578","726930","0.0-13.0-0.173","19","Low_HMMActual","","","","","","603.6000000238419","","","","Images/NewTrialWC.png","","2"
"image-button-response","579","727240","0.0-13.0-1.173","19","Low_HMMActual","","","","","","null","","","","Images/WhiteBeadChoice.png","","null"
"image-button-response","580","727756","0.0-13.0-2.173","19","Low_HMMActual","","","","","","null","","","","Images/WhiteBeadChoiceCorrect.png","","null"
"image-button-response","581","728468","0.0-13.0-0.174","19","Low_HMMActual","","","","","","678.2000000476837","","","","Images/NewTrialWC.png","","2"
"image-button-response","582","728774","0.0-13.0-1.174","19","Low_HMMActual","","","","","","null","","","","Images/WhiteBeadChoice.png","","null"
"image-button-response","583","729278","0.0-13.0-2.174","19","Low_HMMActual","","","","","","null","","","","Images/WhiteBeadChoiceCorrect.png","","null"
"image-button-response","584","730642","0.0-13.0-0.175","19","Low_HMMActual","","","","","","1360.7999999523163","","","","Images/NewTrialWC.png","","3"
"image-button-response","585","730966","0.0-13.0-1.175","19","Low_HMMActual","","","","","","null","","","","Images/WhiteBeadChoice.png","","null"
"image-button-response","586","731483","0.0-13.0-2.175","19","Low_HMMActual","","","","","","null","","","","Images/WhiteBeadChoiceWrong.png","","null"
"image-button-response","587","732894","0.0-13.0-0.176","19","Low_HMMActual","","","","","","1406.2000000476837","","","","Images/NewTrialBC.png","","3"
"image-button-response","588","733204","0.0-13.0-1.176","19","Low_HMMActual","","","","","","null","","","","Images/WhiteBeadChoice.png","","null"
"image-button-response","589","733735","0.0-13.0-2.176","19","Low_HMMActual","","","","","","null","","","","Images/WhiteBeadChoiceWrong.png","","null"
"image-button-response","590","734162","0.0-13.0-0.177","19","Low_HMMActual","","","","","","421.89999997615814","","","","Images/NewTrialBC.png","","0"
"image-button-response","591","734467","0.0-13.0-1.177","19","Low_HMMActual","","","","","","null","","","","Images/BlackBeadChoice.png","","null"
"image-button-response","592","734988","0.0-13.0-2.177","19","Low_HMMActual","","","","","","449.5","","","","Images/BlackBeadChoiceCorrect.png","","0"
"image-button-response","593","735636","0.0-13.0-0.178","19","Low_HMMActual","","","","","","640.5","","","","Images/NewTrialBC.png","","0"
"image-button-response","594","735954","0.0-13.0-1.178","19","Low_HMMActual","","","","","","null","","","","Images/BlackBeadChoice.png","","null"
"image-button-response","595","736458","0.0-13.0-2.178","19","Low_HMMActual","","","","","","null","","","","Images/BlackBeadChoiceWrong.png","","null"
"image-button-response","596","737497","0.0-13.0-0.179","19","Low_HMMActual","","","","","","1036.0999999046326","","","","Images/NewTrialWC.png","","0"
"image-button-response","597","737810","0.0-13.0-1.179","19","Low_HMMActual","","","","","","null","","","","Images/BlackBeadChoice.png","","null"
"image-button-response","598","738325","0.0-13.0-2.179","19","Low_HMMActual","","","","","","null","","","","Images/BlackBeadChoiceCorrect.png","","null"
"image-button-response","599","739115","0.0-13.0-0.180","19","Low_HMMActual","","","","","","786.8000000715256","","","","Images/NewTrialBC.png","","0"
"image-button-response","600","739427","0.0-13.0-1.180","19","Low_HMMActual","","","","","","null","","","","Images/BlackBeadChoice.png","","null"
"image-button-response","601","739943","0.0-13.0-2.180","19","Low_HMMActual","","","","","","null","","","","Images/BlackBeadChoiceCorrect.png","","null"
"image-button-response","602","740086","0.0-13.0-0.181","19","Low_HMMActual","","","","","","110.90000009536743","","","","Images/NewTrialBC.png","","0"
"image-button-response","603","740412","0.0-13.0-1.181","19","Low_HMMActual","","","","","","null","","","","Images/BlackBeadChoice.png","","null"
"image-button-response","604","740929","0.0-13.0-2.181","19","Low_HMMActual","","","","","","null","","","","Images/BlackBeadChoiceCorrect.png","","null"
"image-button-response","605","741423","0.0-13.0-0.182","19","Low_HMMActual","","","","","","490.89999997615814","","","","Images/NewTrialBC.png","","0"
"image-button-response","606","741732","0.0-13.0-1.182","19","Low_HMMActual","","","","","","null","","","","Images/BlackBeadChoice.png","","null"
"image-button-response","607","742247","0.0-13.0-2.182","19","Low_HMMActual","","","","","","null","","","","Images/BlackBeadChoiceCorrect.png","","null"
"image-button-response","608","743039","0.0-13.0-0.183","19","Low_HMMActual","","","","","","789","","","","Images/NewTrialBC.png","","0"
"image-button-response","609","743348","0.0-13.0-1.183","19","Low_HMMActual","","","","","","null","","","","Images/BlackBeadChoice.png","","null"
"image-button-response","610","743872","0.0-13.0-2.183","19","Low_HMMActual","","","","","","null","","","","Images/BlackBeadChoiceCorrect.png","","null"
"image-button-response","611","744618","0.0-13.0-0.184","19","Low_HMMActual","","","","","","742.3000000715256","","","","Images/NewTrialBC.png","","0"
"image-button-response","612","744951","0.0-13.0-1.184","19","Low_HMMActual","","","","","","null","","","","Images/BlackBeadChoice.png","","null"
"image-button-response","613","745467","0.0-13.0-2.184","19","Low_HMMActual","","","","","","null","","","","Images/BlackBeadChoiceCorrect.png","","null"
"image-button-response","614","746616","0.0-13.0-0.185","19","Low_HMMActual","","","","","","1144","","","","Images/NewTrialBC.png","","3"
"image-button-response","615","746925","0.0-13.0-1.185","19","Low_HMMActual","","","","","","null","","","","Images/WhiteBeadChoice.png","","null"
"image-button-response","616","747442","0.0-13.0-2.185","19","Low_HMMActual","","","","","","null","","","","Images/WhiteBeadChoiceWrong.png","","null"
"image-button-response","617","748698","0.0-13.0-0.186","19","Low_HMMActual","","","","","","1253.2000000476837","","","","Images/NewTrialBC.png","","0"
"image-button-response","618","749032","0.0-13.0-1.186","19","Low_HMMActual","","","","","","null","","","","Images/BlackBeadChoice.png","","null"
"image-button-response","619","749548","0.0-13.0-2.186","19","Low_HMMActual","","","","","","null","","","","Images/BlackBeadChoiceCorrect.png","","null"
"image-button-response","620","750127","0.0-13.0-0.187","19","Low_HMMActual","","","","","","576.4000000953674","","","","Images/NewTrialBC.png","","0"
"image-button-response","621","750465","0.0-13.0-1.187","19","Low_HMMActual","","","","","","null","","","","Images/BlackBeadChoice.png","","null"
"image-button-response","622","750968","0.0-13.0-2.187","19","Low_HMMActual","","","","","","null","","","","Images/BlackBeadChoiceWrong.png","","null"
"image-button-response","623","752243","0.0-13.0-0.188","19","Low_HMMActual","","","","","","1270.7000000476837","","","","Images/NewTrialWC.png","","1"
"image-button-response","624","752552","0.0-13.0-1.188","19","Low_HMMActual","","","","","","null","","","","Images/BlackBeadChoice.png","","null"
"image-button-response","625","753057","0.0-13.0-2.188","19","Low_HMMActual","","","","","","null","","","","Images/BlackBeadChoiceWrong.png","","null"
"image-button-response","626","753670","0.0-13.0-0.189","19","Low_HMMActual","","","","","","603.2999999523163","","","","Images/NewTrialWC.png","","2"
"image-button-response","627","753986","0.0-13.0-1.189","19","Low_HMMActual","","","","","","null","","","","Images/WhiteBeadChoice.png","","null"
"image-button-response","628","754501","0.0-13.0-2.189","19","Low_HMMActual","","","","","","null","","","","Images/WhiteBeadChoiceCorrect.png","","null"
"image-button-response","629","754990","0.0-13.0-0.190","19","Low_HMMActual","","","","","","485.8000000715256","","","","Images/NewTrialWC.png","","2"
"image-button-response","630","755313","0.0-13.0-1.190","19","Low_HMMActual","","","","","","null","","","","Images/WhiteBeadChoice.png","","null"
"image-button-response","631","755821","0.0-13.0-2.190","19","Low_HMMActual","","","","","","null","","","","Images/WhiteBeadChoiceCorrect.png","","null"
"image-button-response","632","756425","0.0-13.0-0.191","19","Low_HMMActual","","","","","","596.1000000238419","","","","Images/NewTrialWC.png","","2"
"image-button-response","633","756744","0.0-13.0-1.191","19","Low_HMMActual","","","","","","null","","","","Images/WhiteBeadChoice.png","","null"
"image-button-response","634","757260","0.0-13.0-2.191","19","Low_HMMActual","","","","","","420.10000002384186","","","","Images/WhiteBeadChoiceCorrect.png","","2"
"image-button-response","635","758599","0.0-13.0-0.192","19","Low_HMMActual","","","","","","1334.6000000238419","","","","Images/NewTrialWC.png","","2"
"image-button-response","636","758911","0.0-13.0-1.192","19","Low_HMMActual","","","","","","null","","","","Images/WhiteBeadChoice.png","","null"
"image-button-response","637","759442","0.0-13.0-2.192","19","Low_HMMActual","","","","","","null","","","","Images/WhiteBeadChoiceCorrect.png","","null"
"image-button-response","638","759603","0.0-13.0-0.193","19","Low_HMMActual","","","","","","158","","","","Images/NewTrialWC.png","","2"
"image-button-response","639","759913","0.0-13.0-1.193","19","Low_HMMActual","","","","","","null","","","","Images/WhiteBeadChoice.png","","null"
"image-button-response","640","760419","0.0-13.0-2.193","19","Low_HMMActual","","","","","","null","","","","Images/WhiteBeadChoiceCorrect.png","","null"
"image-button-response","641","760842","0.0-13.0-0.194","19","Low_HMMActual","","","","","","418.7999999523163","","","","Images/NewTrialWC.png","","2"
"image-button-response","642","761147","0.0-13.0-1.194","19","Low_HMMActual","","","","","","null","","","","Images/WhiteBeadChoice.png","","null"
"image-button-response","643","761670","0.0-13.0-2.194","19","Low_HMMActual","","","","","","null","","","","Images/WhiteBeadChoiceCorrect.png","","null"
"image-button-response","644","762934","0.0-13.0-0.195","19","Low_HMMActual","","","","","","1257.5","","","","Images/NewTrialWC.png","","2"
"image-button-response","645","763250","0.0-13.0-1.195","19","Low_HMMActual","","","","","","null","","","","Images/WhiteBeadChoice.png","","null"
"image-button-response","646","763773","0.0-13.0-2.195","19","Low_HMMActual","","","","","","null","","","","Images/WhiteBeadChoiceCorrect.png","","null"
"image-button-response","647","764054","0.0-13.0-0.196","19","Low_HMMActual","","","","","","277","","","","Images/NewTrialWC.png","","2"
"image-button-response","648","764390","0.0-13.0-1.196","19","Low_HMMActual","","","","","","null","","","","Images/WhiteBeadChoice.png","","null"
"image-button-response","649","764906","0.0-13.0-2.196","19","Low_HMMActual","","","","","","null","","","","Images/WhiteBeadChoiceCorrect.png","","null"
"image-button-response","650","765841","0.0-13.0-0.197","19","Low_HMMActual","","","","","","930.3999999761581","","","","Images/NewTrialWC.png","","2"
"image-button-response","651","766154","0.0-13.0-1.197","19","Low_HMMActual","","","","","","null","","","","Images/WhiteBeadChoice.png","","null"
"image-button-response","652","766699","0.0-13.0-2.197","19","Low_HMMActual","","","","","","null","","","","Images/WhiteBeadChoiceCorrect.png","","null"
"image-button-response","653","766974","0.0-13.0-0.198","19","Low_HMMActual","","","","","","268.5","","","","Images/NewTrialWC.png","","2"
"image-button-response","654","767278","0.0-13.0-1.198","19","Low_HMMActual","","","","","","null","","","","Images/WhiteBeadChoice.png","","null"
"image-button-response","655","767795","0.0-13.0-2.198","19","Low_HMMActual","","","","","","null","","","","Images/WhiteBeadChoiceWrong.png","","null"
"image-button-response","656","770957","0.0-13.0-0.199","19","Low_HMMActual","","","","","","3158.600000023842","","","","Images/NewTrialBC.png","","1"
"image-button-response","657","771264","0.0-13.0-1.199","19","Low_HMMActual","","","","","","null","","","","Images/BlackBeadChoice.png","","null"
"image-button-response","658","771767","0.0-13.0-2.199","19","Low_HMMActual","","","","","","null","","","","Images/BlackBeadChoiceWrong.png","","null"
"image-button-response","659","772497","0.0-13.0-0.200","19","Low_HMMActual","","","","","","721.3000000715256","","","","Images/NewTrialWC.png","","2"
"image-button-response","660","772804","0.0-13.0-1.200","19","Low_HMMActual","","","","","","null","","","","Images/WhiteBeadChoice.png","","null"
"image-button-response","661","773330","0.0-13.0-2.200","19","Low_HMMActual","","","","","","null","","","","Images/WhiteBeadChoiceCorrect.png","","null"
"image-button-response","662","774678","0.0-13.0-0.201","19","Low_HMMActual","","","","","","1342.7999999523163","","","","Images/NewTrialWC.png","","2"
"image-button-response","663","774994","0.0-13.0-1.201","19","Low_HMMActual","","","","","","null","","","","Images/WhiteBeadChoice.png","","null"
"image-button-response","664","775511","0.0-13.0-2.201","19","Low_HMMActual","","","","","","null","","","","Images/WhiteBeadChoiceWrong.png","","null"
"image-button-response","665","777175","0.0-13.0-0.202","19","Low_HMMActual","","","","","","1661.3000000715256","","","","Images/NewTrialBC.png","","0"
