"trial_type","trial_index","time_elapsed","internal_node_id","Script_Picker","Block_Type","success","timeout","failed_images","failed_audio","failed_video","rt","url","responses","question_order","stimulus","key_press","response"
"pavlovia","0","16","0.0-0.0","17","Low_HMMActual","","","","","","","","","","","",""
"preload","1","18","0.0-1.0","17","Low_HMMActual","true","false","[]","[]","[]","","","","","","",""
"external-html","2","13191","0.0-2.0-0.0","17","Low_HMMActual","","","","","","13128.529999987222","consent.html","","","","",""
"survey-multi-choice","3","17992","0.0-2.0-1.0","17","Low_HMMActual","","","","","","4799.669999978505","","{""Q0"":""Male"",""Q1"":""White""}","[0,1]","","",""
"survey-text","4","22920","0.0-2.0-2.0","17","Low_HMMActual","","","","","","4922.749999968801","","{""Q0"":""20""}","","","",""
"survey-text","5","25368","0.0-2.0-3.0","17","Low_HMMActual","","","","","","2342.1950000338256","","{""Q0"":""60b003ab98fa325744ae5bfc""}","","","",""
"image-keyboard-response","6","47754","0.0-3.0-0.0","17","Low_HMMActual","","","","","","22283.920000016224","","","","tutorial/tutorial1.png"," ",""
"image-keyboard-response","7","57235","0.0-3.0-0.1","17","Low_HMMActual","","","","","","9479.59499998251","","","","tutorial/tutorial2.png"," ",""
"image-keyboard-response","8","61806","0.0-3.0-0.2","17","Low_HMMActual","","","","","","4570.590000017546","","","","tutorial/tutorial3.png"," ",""
"image-keyboard-response","9","63488","0.0-3.0-0.3","17","Low_HMMActual","","","","","","1681.7099999752827","","","","tutorial/tutorial4.png"," ",""
"image-keyboard-response","10","65331","0.0-3.0-0.4","17","Low_HMMActual","","","","","","1841.6199999628589","","","","tutorial/tutorial5.png"," ",""
"image-keyboard-response","11","72040","0.0-3.0-0.5","17","Low_HMMActual","","","","","","6708.964999997988","","","","tutorial/tutorial6.png"," ",""
"image-keyboard-response","12","78143","0.0-3.0-0.6","17","Low_HMMActual","","","","","","6102.049999986775","","","","tutorial/tutorial7.png"," ",""
"image-keyboard-response","13","102370","0.0-3.0-0.7","17","Low_HMMActual","","","","","","24227.000000013504","","","","tutorial/tutorial8.png"," ",""
"image-keyboard-response","14","115656","0.0-3.0-0.8","17","Low_HMMActual","","","","","","13285.124999994878","","","","tutorial/tutorial9.png"," ",""
"image-keyboard-response","15","127051","0.0-3.0-0.9","17","Low_HMMActual","","","","","","11394.800000009127","","","","tutorial/tutorial10.png"," ",""
"image-keyboard-response","16","134396","0.0-3.0-0.10","17","Low_HMMActual","","","","","","7343.634999997448","","","","tutorial/tutorial11.png"," ",""
"image-keyboard-response","17","141893","0.0-3.0-0.11","17","Low_HMMActual","","","","","","7496.429999999236","","","","tutorial/tutorial12.png"," ",""
"image-keyboard-response","18","152274","0.0-3.0-0.12","17","Low_HMMActual","","","","","","10380.415000021458","","","","tutorial/tutorial13.png"," ",""
"image-keyboard-response","19","162676","0.0-3.0-0.13","17","Low_HMMActual","","","","","","10401.48500003852","","","","tutorial/tutorial14.png"," ",""
"image-keyboard-response","20","165765","0.0-3.0-0.14","17","Low_HMMActual","","","","","","3089.045000029728","","","","tutorial/tutorial15.png"," ",""
"image-keyboard-response","21","172900","0.0-4.0","17","Low_HMMActual","","","","","","7133.990000002086","","","","tutorial/tutorial16.png","arrowup",""
"image-keyboard-response","22","180173","0.0-5.0","17","Low_HMMActual","","","","","","5731.58500000136","","","","tutorial/tutorial17.png","arrowright",""
"image-keyboard-response","23","185235","0.0-6.0","17","Low_HMMActual","","","","","","4288.8200000161305","","","","tutorial/tutorial18.png","arrowleft",""
"image-keyboard-response","24","191908","0.0-7.0","17","Low_HMMActual","","","","","","5983.669999986887","","","","tutorial/tutorial19.png"," ",""
"html-keyboard-response","25","195720","0.0-8.0","18","Low_HMMActual","","","","","","3810.7549999840558","","","","<div class=""container"" style=""height:800px;width:800px;display:flex;flex-direction:column;justify-content:center;align-items:center;text-align:center;font-weight:normal;font-family:Arial;font-size:20px""><p>Loading episode&hellip;</p><div>"," ",""
"image-button-response","26","203924","0.0-9.0-0.0","18","Low_HMMActual","","","","","","8200.98500000313","","","","Images/NoChoice.png","","1"
"image-button-response","27","204227","0.0-9.0-1.0","18","Low_HMMActual","","","","","","null","","","","Images/BlackBeadChoice.png","","null"
"image-button-response","28","204728","0.0-9.0-2.0","18","Low_HMMActual","","","","","","null","","","","Images/BlackBeadChoiceWrong.png","","null"
"image-button-response","29","208334","0.0-9.0-0.1","18","Low_HMMActual","","","","","","3595.895000034943","","","","Images/NewTrialWC.png","","2"
"image-button-response","30","208642","0.0-9.0-1.1","18","Low_HMMActual","","","","","","null","","","","Images/WhiteBeadChoice.png","","null"
"image-button-response","31","209143","0.0-9.0-2.1","18","Low_HMMActual","","","","","","null","","","","Images/WhiteBeadChoiceCorrect.png","","null"
"image-button-response","32","210414","0.0-9.0-0.2","18","Low_HMMActual","","","","","","1269.384999992326","","","","Images/NewTrialWC.png","","2"
"image-button-response","33","210717","0.0-9.0-1.2","18","Low_HMMActual","","","","","","null","","","","Images/WhiteBeadChoice.png","","null"
"image-button-response","34","211219","0.0-9.0-2.2","18","Low_HMMActual","","","","","","null","","","","Images/WhiteBeadChoiceCorrect.png","","null"
"image-button-response","35","212395","0.0-9.0-0.3","18","Low_HMMActual","","","","","","1173.8750000367872","","","","Images/NewTrialWC.png","","2"
"image-button-response","36","212697","0.0-9.0-1.3","18","Low_HMMActual","","","","","","null","","","","Images/WhiteBeadChoice.png","","null"
"image-button-response","37","213198","0.0-9.0-2.3","18","Low_HMMActual","","","","","","null","","","","Images/WhiteBeadChoiceWrong.png","","null"
"image-button-response","38","249617","0.0-9.0-0.4","18","Low_HMMActual","","","","","","36417.91999997804","","","","Images/NewTrialBC.png","","2"
"image-button-response","39","249919","0.0-9.0-1.4","18","Low_HMMActual","","","","","","null","","","","Images/WhiteBeadChoice.png","","null"
"image-button-response","40","250421","0.0-9.0-2.4","18","Low_HMMActual","","","","","","null","","","","Images/WhiteBeadChoiceCorrect.png","","null"
"image-button-response","41","250861","0.0-9.0-0.5","18","Low_HMMActual","","","","","","437.47000000439584","","","","Images/NewTrialWC.png","","2"
"image-button-response","42","251162","0.0-9.0-1.5","18","Low_HMMActual","","","","","","null","","","","Images/WhiteBeadChoice.png","","null"
"image-button-response","43","251665","0.0-9.0-2.5","18","Low_HMMActual","","","","","","null","","","","Images/WhiteBeadChoiceCorrect.png","","null"
"image-button-response","44","252120","0.0-9.0-0.6","18","Low_HMMActual","","","","","","453.30499997362494","","","","Images/NewTrialWC.png","","2"
"image-button-response","45","252422","0.0-9.0-1.6","18","Low_HMMActual","","","","","","null","","","","Images/WhiteBeadChoice.png","","null"
"image-button-response","46","252924","0.0-9.0-2.6","18","Low_HMMActual","","","","","","null","","","","Images/WhiteBeadChoiceWrong.png","","null"
"image-button-response","47","253446","0.0-9.0-0.7","18","Low_HMMActual","","","","","","520.5749999731779","","","","Images/NewTrialBC.png","","2"
"image-button-response","48","253748","0.0-9.0-1.7","18","Low_HMMActual","","","","","","null","","","","Images/WhiteBeadChoice.png","","null"
"image-button-response","49","254250","0.0-9.0-2.7","18","Low_HMMActual","","","","","","null","","","","Images/WhiteBeadChoiceCorrect.png","","null"
"image-button-response","50","257463","0.0-9.0-0.8","18","Low_HMMActual","","","","","","3211.3899999530986","","","","Images/NewTrialWC.png","","2"
"image-button-response","51","257765","0.0-9.0-1.8","18","Low_HMMActual","","","","","","null","","","","Images/WhiteBeadChoice.png","","null"
"image-button-response","52","258266","0.0-9.0-2.8","18","Low_HMMActual","","","","","","null","","","","Images/WhiteBeadChoiceCorrect.png","","null"
"image-button-response","53","258661","0.0-9.0-0.9","18","Low_HMMActual","","","","","","393.4000000008382","","","","Images/NewTrialWC.png","","2"
"image-button-response","54","258965","0.0-9.0-1.9","18","Low_HMMActual","","","","","","null","","","","Images/WhiteBeadChoice.png","","null"
"image-button-response","55","259468","0.0-9.0-2.9","18","Low_HMMActual","","","","","","null","","","","Images/WhiteBeadChoiceWrong.png","","null"
"html-keyboard-response","56","262415","0.0-10.0","18","Low_HMMActual","","","","","","2946.089999983087","","","",""," ",""
"image-keyboard-response","57","264432","0.0-11.0","18","Low_HMMActual","","","","","","2016.1300000036135","","","","tutorial/tutorial20.png"," ",""
"html-keyboard-response","58","269813","0.0-12.0","19","Low_HMMActual","","","","","","5379.465000005439","","","","<div class=""container"" style=""height:800px;width:800px;display:flex;flex-direction:column;justify-content:center;align-items:center;text-align:center;font-weight:normal;font-family:Arial;font-size:20px""><p>Loading episode&hellip;</p><div>"," ",""
"image-button-response","59","272436","0.0-13.0-0.0","19","Low_HMMActual","","","","","","2621.999999973923","","","","Images/NoChoice.png","","1"
"image-button-response","60","272739","0.0-13.0-1.0","19","Low_HMMActual","","","","","","null","","","","Images/BlackBeadChoice.png","","null"
"image-button-response","61","273240","0.0-13.0-2.0","19","Low_HMMActual","","","","","","null","","","","Images/BlackBeadChoiceWrong.png","","null"
"image-button-response","62","284644","0.0-13.0-0.1","19","Low_HMMActual","","","","","","11402.349999989383","","","","Images/NewTrialWC.png","","3"
"image-button-response","63","284945","0.0-13.0-1.1","19","Low_HMMActual","","","","","","null","","","","Images/WhiteBeadChoice.png","","null"
"image-button-response","64","285446","0.0-13.0-2.1","19","Low_HMMActual","","","","","","null","","","","Images/WhiteBeadChoiceCorrect.png","","null"
"image-button-response","65","285789","0.0-13.0-0.2","19","Low_HMMActual","","","","","","341.1249999771826","","","","Images/NewTrialWC.png","","2"
"image-button-response","66","286091","0.0-13.0-1.2","19","Low_HMMActual","","","","","","null","","","","Images/WhiteBeadChoice.png","","null"
"image-button-response","67","286593","0.0-13.0-2.2","19","Low_HMMActual","","","","","","null","","","","Images/WhiteBeadChoiceCorrect.png","","null"
"image-button-response","68","300504","0.0-13.0-0.3","19","Low_HMMActual","","","","","","13908.824999991339","","","","Images/NewTrialWC.png","","2"
"image-button-response","69","300806","0.0-13.0-1.3","19","Low_HMMActual","","","","","","null","","","","Images/WhiteBeadChoice.png","","null"
"image-button-response","70","301307","0.0-13.0-2.3","19","Low_HMMActual","","","","","","395.00499999849126","","","","Images/WhiteBeadChoiceCorrect.png","","2"
"image-button-response","71","301832","0.0-13.0-0.4","19","Low_HMMActual","","","","","","523.2199999736622","","","","Images/NewTrialWC.png","","2"
"image-button-response","72","302135","0.0-13.0-1.4","19","Low_HMMActual","","","","","","null","","","","Images/WhiteBeadChoice.png","","null"
"image-button-response","73","302636","0.0-13.0-2.4","19","Low_HMMActual","","","","","","null","","","","Images/WhiteBeadChoiceCorrect.png","","null"
"image-button-response","74","302712","0.0-13.0-0.5","19","Low_HMMActual","","","","","","74.15000000037253","","","","Images/NewTrialWC.png","","2"
"image-button-response","75","303014","0.0-13.0-1.5","19","Low_HMMActual","","","","","","null","","","","Images/WhiteBeadChoice.png","","null"
"image-button-response","76","303516","0.0-13.0-2.5","19","Low_HMMActual","","","","","","null","","","","Images/WhiteBeadChoiceWrong.png","","null"
"image-button-response","77","303647","0.0-13.0-0.6","19","Low_HMMActual","","","","","","130.3349999943748","","","","Images/NewTrialBC.png","","2"
"image-button-response","78","303949","0.0-13.0-1.6","19","Low_HMMActual","","","","","","null","","","","Images/WhiteBeadChoice.png","","null"
"image-button-response","79","304451","0.0-13.0-2.6","19","Low_HMMActual","","","","","","null","","","","Images/WhiteBeadChoiceWrong.png","","null"
"image-button-response","80","305202","0.0-13.0-0.7","19","Low_HMMActual","","","","","","741.6400000220165","","","","Images/NewTrialBC.png","","2"
"image-button-response","81","305504","0.0-13.0-1.7","19","Low_HMMActual","","","","","","null","","","","Images/WhiteBeadChoice.png","","null"
"image-button-response","82","306005","0.0-13.0-2.7","19","Low_HMMActual","","","","","","null","","","","Images/WhiteBeadChoiceWrong.png","","null"
"image-button-response","83","306603","0.0-13.0-0.8","19","Low_HMMActual","","","","","","595.4800000181422","","","","Images/NewTrialBC.png","","0"
"image-button-response","84","306906","0.0-13.0-1.8","19","Low_HMMActual","","","","","","null","","","","Images/BlackBeadChoice.png","","null"
"image-button-response","85","307408","0.0-13.0-2.8","19","Low_HMMActual","","","","","","null","","","","Images/BlackBeadChoiceCorrect.png","","null"
"image-button-response","86","307672","0.0-13.0-0.9","19","Low_HMMActual","","","","","","263.039999990724","","","","Images/NewTrialBC.png","","0"
"image-button-response","87","307974","0.0-13.0-1.9","19","Low_HMMActual","","","","","","null","","","","Images/BlackBeadChoice.png","","null"
"image-button-response","88","308476","0.0-13.0-2.9","19","Low_HMMActual","","","","","","null","","","","Images/BlackBeadChoiceCorrect.png","","null"
"image-button-response","89","308683","0.0-13.0-0.10","19","Low_HMMActual","","","","","","205.14500001445413","","","","Images/NewTrialBC.png","","0"
"image-button-response","90","308990","0.0-13.0-1.10","19","Low_HMMActual","","","","","","null","","","","Images/BlackBeadChoice.png","","null"
"image-button-response","91","309491","0.0-13.0-2.10","19","Low_HMMActual","","","","","","null","","","","Images/BlackBeadChoiceWrong.png","","null"
"image-button-response","92","311513","0.0-13.0-0.11","19","Low_HMMActual","","","","","","2011.8299999739975","","","","Images/NewTrialWC.png","","3"
"image-button-response","93","311814","0.0-13.0-1.11","19","Low_HMMActual","","","","","","null","","","","Images/WhiteBeadChoice.png","","null"
"image-button-response","94","312315","0.0-13.0-2.11","19","Low_HMMActual","","","","","","null","","","","Images/WhiteBeadChoiceWrong.png","","null"
"image-button-response","95","312838","0.0-13.0-0.12","19","Low_HMMActual","","","","","","521.0000000079162","","","","Images/NewTrialBC.png","","0"
"image-button-response","96","313139","0.0-13.0-1.12","19","Low_HMMActual","","","","","","null","","","","Images/BlackBeadChoice.png","","null"
"image-button-response","97","313641","0.0-13.0-2.12","19","Low_HMMActual","","","","","","null","","","","Images/BlackBeadChoiceWrong.png","","null"
"image-button-response","98","316438","0.0-13.0-0.13","19","Low_HMMActual","","","","","","2794.729999965057","","","","Images/NewTrialWC.png","","0"
"image-button-response","99","316740","0.0-13.0-1.13","19","Low_HMMActual","","","","","","null","","","","Images/BlackBeadChoice.png","","null"
"image-button-response","100","317249","0.0-13.0-2.13","19","Low_HMMActual","","","","","","null","","","","Images/BlackBeadChoiceWrong.png","","null"
"image-button-response","101","318118","0.0-13.0-0.14","19","Low_HMMActual","","","","","","866.9099999824539","","","","Images/NewTrialWC.png","","2"
"image-button-response","102","318419","0.0-13.0-1.14","19","Low_HMMActual","","","","","","null","","","","Images/WhiteBeadChoice.png","","null"
"image-button-response","103","318921","0.0-13.0-2.14","19","Low_HMMActual","","","","","","null","","","","Images/WhiteBeadChoiceCorrect.png","","null"
"image-button-response","104","319050","0.0-13.0-0.15","19","Low_HMMActual","","","","","","127.50500004040077","","","","Images/NewTrialWC.png","","2"
"image-button-response","105","319352","0.0-13.0-1.15","19","Low_HMMActual","","","","","","null","","","","Images/WhiteBeadChoice.png","","null"
"image-button-response","106","319853","0.0-13.0-2.15","19","Low_HMMActual","","","","","","null","","","","Images/WhiteBeadChoiceCorrect.png","","null"
"image-button-response","107","325753","0.0-13.0-0.16","19","Low_HMMActual","","","","","","5897.480000043288","","","","Images/NewTrialWC.png","","2"
"image-button-response","108","326055","0.0-13.0-1.16","19","Low_HMMActual","","","","","","null","","","","Images/WhiteBeadChoice.png","","null"
"image-button-response","109","326556","0.0-13.0-2.16","19","Low_HMMActual","","","","","","null","","","","Images/WhiteBeadChoiceWrong.png","","null"
"image-button-response","110","327156","0.0-13.0-0.17","19","Low_HMMActual","","","","","","598.569999972824","","","","Images/NewTrialBC.png","","2"
"image-button-response","111","327458","0.0-13.0-1.17","19","Low_HMMActual","","","","","","null","","","","Images/WhiteBeadChoice.png","","null"
"image-button-response","112","327960","0.0-13.0-2.17","19","Low_HMMActual","","","","","","null","","","","Images/WhiteBeadChoiceWrong.png","","null"
"image-button-response","113","328485","0.0-13.0-0.18","19","Low_HMMActual","","","","","","522.3699999623932","","","","Images/NewTrialBC.png","","0"
"image-button-response","114","328787","0.0-13.0-1.18","19","Low_HMMActual","","","","","","null","","","","Images/BlackBeadChoice.png","","null"
"image-button-response","115","329288","0.0-13.0-2.18","19","Low_HMMActual","","","","","","null","","","","Images/BlackBeadChoiceCorrect.png","","null"
"image-button-response","116","329389","0.0-13.0-0.19","19","Low_HMMActual","","","","","","99.12000002805144","","","","Images/NewTrialBC.png","","0"
"image-button-response","117","329698","0.0-13.0-1.19","19","Low_HMMActual","","","","","","null","","","","Images/BlackBeadChoice.png","","null"
"image-button-response","118","330200","0.0-13.0-2.19","19","Low_HMMActual","","","","","","null","","","","Images/BlackBeadChoiceCorrect.png","","null"
"image-button-response","119","331458","0.0-13.0-0.20","19","Low_HMMActual","","","","","","1256.714999966789","","","","Images/NewTrialBC.png","","0"
"image-button-response","120","331760","0.0-13.0-1.20","19","Low_HMMActual","","","","","","null","","","","Images/BlackBeadChoice.png","","null"
"image-button-response","121","332263","0.0-13.0-2.20","19","Low_HMMActual","","","","","","null","","","","Images/BlackBeadChoiceCorrect.png","","null"
"image-button-response","122","332816","0.0-13.0-0.21","19","Low_HMMActual","","","","","","551.5249999589287","","","","Images/NewTrialBC.png","","0"
"image-button-response","123","333118","0.0-13.0-1.21","19","Low_HMMActual","","","","","","null","","","","Images/BlackBeadChoice.png","","null"
"image-button-response","124","333619","0.0-13.0-2.21","19","Low_HMMActual","","","","","","null","","","","Images/BlackBeadChoiceWrong.png","","null"
"image-button-response","125","334330","0.0-13.0-0.22","19","Low_HMMActual","","","","","","709.7799999755807","","","","Images/NewTrialWC.png","","2"
"image-button-response","126","334640","0.0-13.0-1.22","19","Low_HMMActual","","","","","","null","","","","Images/WhiteBeadChoice.png","","null"
"image-button-response","127","335141","0.0-13.0-2.22","19","Low_HMMActual","","","","","","null","","","","Images/WhiteBeadChoiceWrong.png","","null"
"image-button-response","128","336148","0.0-13.0-0.23","19","Low_HMMActual","","","","","","1005.4649999947287","","","","Images/NewTrialBC.png","","2"
"image-button-response","129","336449","0.0-13.0-1.23","19","Low_HMMActual","","","","","","null","","","","Images/WhiteBeadChoice.png","","null"
"image-button-response","130","336950","0.0-13.0-2.23","19","Low_HMMActual","","","","","","null","","","","Images/WhiteBeadChoiceCorrect.png","","null"
"image-button-response","131","337487","0.0-13.0-0.24","19","Low_HMMActual","","","","","","535.1399999926798","","","","Images/NewTrialWC.png","","2"
"image-button-response","132","337789","0.0-13.0-1.24","19","Low_HMMActual","","","","","","null","","","","Images/WhiteBeadChoice.png","","null"
"image-button-response","133","338290","0.0-13.0-2.24","19","Low_HMMActual","","","","","","null","","","","Images/WhiteBeadChoiceWrong.png","","null"
"image-button-response","134","338924","0.0-13.0-0.25","19","Low_HMMActual","","","","","","632.1950000128709","","","","Images/NewTrialBC.png","","0"
"image-button-response","135","339226","0.0-13.0-1.25","19","Low_HMMActual","","","","","","null","","","","Images/BlackBeadChoice.png","","null"
"image-button-response","136","339727","0.0-13.0-2.25","19","Low_HMMActual","","","","","","null","","","","Images/BlackBeadChoiceWrong.png","","null"
"image-button-response","137","340850","0.0-13.0-0.26","19","Low_HMMActual","","","","","","1121.4100000215694","","","","Images/NewTrialWC.png","","2"
"image-button-response","138","341151","0.0-13.0-1.26","19","Low_HMMActual","","","","","","null","","","","Images/WhiteBeadChoice.png","","null"
"image-button-response","139","341653","0.0-13.0-2.26","19","Low_HMMActual","","","","","","null","","","","Images/WhiteBeadChoiceWrong.png","","null"
"image-button-response","140","342162","0.0-13.0-0.27","19","Low_HMMActual","","","","","","506.97499996749684","","","","Images/NewTrialBC.png","","2"
"image-button-response","141","342463","0.0-13.0-1.27","19","Low_HMMActual","","","","","","null","","","","Images/WhiteBeadChoice.png","","null"
"image-button-response","142","342964","0.0-13.0-2.27","19","Low_HMMActual","","","","","","null","","","","Images/WhiteBeadChoiceWrong.png","","null"
"image-button-response","143","344624","0.0-13.0-0.28","19","Low_HMMActual","","","","","","1658.1249999580905","","","","Images/NewTrialBC.png","","0"
"image-button-response","144","344926","0.0-13.0-1.28","19","Low_HMMActual","","","","","","null","","","","Images/BlackBeadChoice.png","","null"
"image-button-response","145","345436","0.0-13.0-2.28","19","Low_HMMActual","","","","","","null","","","","Images/BlackBeadChoiceWrong.png","","null"
"image-button-response","146","345729","0.0-13.0-0.29","19","Low_HMMActual","","","","","","291.88999999314547","","","","Images/NewTrialWC.png","","0"
"image-button-response","147","346031","0.0-13.0-1.29","19","Low_HMMActual","","","","","","null","","","","Images/BlackBeadChoice.png","","null"
"image-button-response","148","346532","0.0-13.0-2.29","19","Low_HMMActual","","","","","","null","","","","Images/BlackBeadChoiceCorrect.png","","null"
"image-button-response","149","348991","0.0-13.0-0.30","19","Low_HMMActual","","","","","","2457.1800000267103","","","","Images/NewTrialBC.png","","1"
"image-button-response","150","349292","0.0-13.0-1.30","19","Low_HMMActual","","","","","","null","","","","Images/BlackBeadChoice.png","","null"
"image-button-response","151","349794","0.0-13.0-2.30","19","Low_HMMActual","","","","","","null","","","","Images/BlackBeadChoiceWrong.png","","null"
"image-button-response","152","350358","0.0-13.0-0.31","19","Low_HMMActual","","","","","","562.8649999853224","","","","Images/NewTrialWC.png","","1"
"image-button-response","153","350660","0.0-13.0-1.31","19","Low_HMMActual","","","","","","null","","","","Images/BlackBeadChoice.png","","null"
"image-button-response","154","351162","0.0-13.0-2.31","19","Low_HMMActual","","","","","","null","","","","Images/BlackBeadChoiceWrong.png","","null"
"image-button-response","155","352347","0.0-13.0-0.32","19","Low_HMMActual","","","","","","1174.5000000228174","","","","Images/NewTrialWC.png","","3"
"image-button-response","156","352649","0.0-13.0-1.32","19","Low_HMMActual","","","","","","null","","","","Images/WhiteBeadChoice.png","","null"
"image-button-response","157","353151","0.0-13.0-2.32","19","Low_HMMActual","","","","","","null","","","","Images/WhiteBeadChoiceCorrect.png","","null"
"image-button-response","158","355371","0.0-13.0-0.33","19","Low_HMMActual","","","","","","2219.1599999787286","","","","Images/NewTrialWC.png","","3"
"image-button-response","159","355673","0.0-13.0-1.33","19","Low_HMMActual","","","","","","null","","","","Images/WhiteBeadChoice.png","","null"
"image-button-response","160","356174","0.0-13.0-2.33","19","Low_HMMActual","","","","","","null","","","","Images/WhiteBeadChoiceCorrect.png","","null"
"image-button-response","161","356305","0.0-13.0-0.34","19","Low_HMMActual","","","","","","129.4849999831058","","","","Images/NewTrialWC.png","","3"
"image-button-response","162","356608","0.0-13.0-1.34","19","Low_HMMActual","","","","","","null","","","","Images/WhiteBeadChoice.png","","null"
"image-button-response","163","357111","0.0-13.0-2.34","19","Low_HMMActual","","","","","","null","","","","Images/WhiteBeadChoiceWrong.png","","null"
"image-button-response","164","358456","0.0-13.0-0.35","19","Low_HMMActual","","","","","","1343.3199999853969","","","","Images/NewTrialBC.png","","3"
"image-button-response","165","358757","0.0-13.0-1.35","19","Low_HMMActual","","","","","","null","","","","Images/WhiteBeadChoice.png","","null"
"image-button-response","166","359259","0.0-13.0-2.35","19","Low_HMMActual","","","","","","null","","","","Images/WhiteBeadChoiceCorrect.png","","null"
"image-button-response","167","359397","0.0-13.0-0.36","19","Low_HMMActual","","","","","","136.31999999051914","","","","Images/NewTrialWC.png","","3"
"image-button-response","168","359698","0.0-13.0-1.36","19","Low_HMMActual","","","","","","null","","","","Images/WhiteBeadChoice.png","","null"
"image-button-response","169","360200","0.0-13.0-2.36","19","Low_HMMActual","","","","","","null","","","","Images/WhiteBeadChoiceWrong.png","","null"
"image-button-response","170","373469","0.0-13.0-0.37","19","Low_HMMActual","","","","","","13268.245000042953","","","","Images/NewTrialBC.png","","3"
"image-button-response","171","373772","0.0-13.0-1.37","19","Low_HMMActual","","","","","","null","","","","Images/WhiteBeadChoice.png","","null"
"image-button-response","172","374285","0.0-13.0-2.37","19","Low_HMMActual","","","","","","null","","","","Images/WhiteBeadChoiceWrong.png","","null"
"image-button-response","173","375176","0.0-13.0-0.38","19","Low_HMMActual","","","","","","888.18499998888","","","","Images/NewTrialBC.png","","1"
"image-button-response","174","375478","0.0-13.0-1.38","19","Low_HMMActual","","","","","","null","","","","Images/BlackBeadChoice.png","","null"
"image-button-response","175","375979","0.0-13.0-2.38","19","Low_HMMActual","","","","","","null","","","","Images/BlackBeadChoiceCorrect.png","","null"
"image-button-response","176","379025","0.0-13.0-0.39","19","Low_HMMActual","","","","","","3044.149999972433","","","","Images/NewTrialBC.png","","1"
"image-button-response","177","379328","0.0-13.0-1.39","19","Low_HMMActual","","","","","","null","","","","Images/BlackBeadChoice.png","","null"
"image-button-response","178","379829","0.0-13.0-2.39","19","Low_HMMActual","","","","","","null","","","","Images/BlackBeadChoiceWrong.png","","null"
"image-button-response","179","381515","0.0-13.0-0.40","19","Low_HMMActual","","","","","","1684.2499999911524","","","","Images/NewTrialWC.png","","1"
"image-button-response","180","381829","0.0-13.0-1.40","19","Low_HMMActual","","","","","","null","","","","Images/BlackBeadChoice.png","","null"
"image-button-response","181","382331","0.0-13.0-2.40","19","Low_HMMActual","","","","","","null","","","","Images/BlackBeadChoiceWrong.png","","null"
"image-button-response","182","383201","0.0-13.0-0.41","19","Low_HMMActual","","","","","","868.4500000090338","","","","Images/NewTrialWC.png","","3"
"image-button-response","183","383503","0.0-13.0-1.41","19","Low_HMMActual","","","","","","null","","","","Images/WhiteBeadChoice.png","","null"
"image-button-response","184","384004","0.0-13.0-2.41","19","Low_HMMActual","","","","","","455.40999999502674","","","","Images/WhiteBeadChoiceCorrect.png","","3"
"image-button-response","185","384896","0.0-13.0-0.42","19","Low_HMMActual","","","","","","890.7200000248849","","","","Images/NewTrialWC.png","","3"
"image-button-response","186","385198","0.0-13.0-1.42","19","Low_HMMActual","","","","","","null","","","","Images/WhiteBeadChoice.png","","null"
"image-button-response","187","385699","0.0-13.0-2.42","19","Low_HMMActual","","","","","","null","","","","Images/WhiteBeadChoiceWrong.png","","null"
"image-button-response","188","386258","0.0-13.0-0.43","19","Low_HMMActual","","","","","","557.7350000385195","","","","Images/NewTrialBC.png","","3"
"image-button-response","189","386560","0.0-13.0-1.43","19","Low_HMMActual","","","","","","null","","","","Images/WhiteBeadChoice.png","","null"
"image-button-response","190","387061","0.0-13.0-2.43","19","Low_HMMActual","","","","","","null","","","","Images/WhiteBeadChoiceCorrect.png","","null"
"image-button-response","191","387369","0.0-13.0-0.44","19","Low_HMMActual","","","","","","306.27000000094995","","","","Images/NewTrialWC.png","","3"
"image-button-response","192","387672","0.0-13.0-1.44","19","Low_HMMActual","","","","","","null","","","","Images/WhiteBeadChoice.png","","null"
"image-button-response","193","388182","0.0-13.0-2.44","19","Low_HMMActual","","","","","","null","","","","Images/WhiteBeadChoiceWrong.png","","null"
"image-button-response","194","389053","0.0-13.0-0.45","19","Low_HMMActual","","","","","","869.3900000071153","","","","Images/NewTrialBC.png","","3"
"image-button-response","195","389354","0.0-13.0-1.45","19","Low_HMMActual","","","","","","null","","","","Images/WhiteBeadChoice.png","","null"
"image-button-response","196","389857","0.0-13.0-2.45","19","Low_HMMActual","","","","","","null","","","","Images/WhiteBeadChoiceWrong.png","","null"
"image-button-response","197","390550","0.0-13.0-0.46","19","Low_HMMActual","","","","","","690.4849999700673","","","","Images/NewTrialBC.png","","1"
"image-button-response","198","390852","0.0-13.0-1.46","19","Low_HMMActual","","","","","","null","","","","Images/BlackBeadChoice.png","","null"
"image-button-response","199","391353","0.0-13.0-2.46","19","Low_HMMActual","","","","","","null","","","","Images/BlackBeadChoiceWrong.png","","null"
"image-button-response","200","391704","0.0-13.0-0.47","19","Low_HMMActual","","","","","","349.0050000254996","","","","Images/NewTrialWC.png","","1"
"image-button-response","201","392014","0.0-13.0-1.47","19","Low_HMMActual","","","","","","null","","","","Images/BlackBeadChoice.png","","null"
"image-button-response","202","392516","0.0-13.0-2.47","19","Low_HMMActual","","","","","","null","","","","Images/BlackBeadChoiceWrong.png","","null"
"image-button-response","203","394037","0.0-13.0-0.48","19","Low_HMMActual","","","","","","1519.4550000014715","","","","Images/NewTrialWC.png","","3"
"image-button-response","204","394338","0.0-13.0-1.48","19","Low_HMMActual","","","","","","null","","","","Images/WhiteBeadChoice.png","","null"
"image-button-response","205","394840","0.0-13.0-2.48","19","Low_HMMActual","","","","","","null","","","","Images/WhiteBeadChoiceCorrect.png","","null"
"image-button-response","206","395515","0.0-13.0-0.49","19","Low_HMMActual","","","","","","674.0349999745376","","","","Images/NewTrialWC.png","","3"
"image-button-response","207","395818","0.0-13.0-1.49","19","Low_HMMActual","","","","","","null","","","","Images/WhiteBeadChoice.png","","null"
"image-button-response","208","396320","0.0-13.0-2.49","19","Low_HMMActual","","","","","","null","","","","Images/WhiteBeadChoiceCorrect.png","","null"
"image-button-response","209","396551","0.0-13.0-0.50","19","Low_HMMActual","","","","","","229.79499999200925","","","","Images/NewTrialWC.png","","3"
"image-button-response","210","396853","0.0-13.0-1.50","19","Low_HMMActual","","","","","","null","","","","Images/WhiteBeadChoice.png","","null"
"image-button-response","211","397355","0.0-13.0-2.50","19","Low_HMMActual","","","","","","null","","","","Images/WhiteBeadChoiceWrong.png","","null"
"image-button-response","212","397890","0.0-13.0-0.51","19","Low_HMMActual","","","","","","533.6700000334531","","","","Images/NewTrialBC.png","","1"
"image-button-response","213","398192","0.0-13.0-1.51","19","Low_HMMActual","","","","","","null","","","","Images/BlackBeadChoice.png","","null"
"image-button-response","214","398693","0.0-13.0-2.51","19","Low_HMMActual","","","","","","null","","","","Images/BlackBeadChoiceCorrect.png","","null"
"image-button-response","215","398818","0.0-13.0-0.52","19","Low_HMMActual","","","","","","123.08499997016042","","","","Images/NewTrialBC.png","","1"
"image-button-response","216","399128","0.0-13.0-1.52","19","Low_HMMActual","","","","","","null","","","","Images/BlackBeadChoice.png","","null"
"image-button-response","217","399630","0.0-13.0-2.52","19","Low_HMMActual","","","","","","null","","","","Images/BlackBeadChoiceCorrect.png","","null"
"image-button-response","218","400000","0.0-13.0-0.53","19","Low_HMMActual","","","","","","368.27499995706603","","","","Images/NewTrialBC.png","","3"
"image-button-response","219","400303","0.0-13.0-1.53","19","Low_HMMActual","","","","","","null","","","","Images/WhiteBeadChoice.png","","null"
"image-button-response","220","400805","0.0-13.0-2.53","19","Low_HMMActual","","","","","","null","","","","Images/WhiteBeadChoiceCorrect.png","","null"
"image-button-response","221","400977","0.0-13.0-0.54","19","Low_HMMActual","","","","","","171.1450000293553","","","","Images/NewTrialWC.png","","3"
"image-button-response","222","401279","0.0-13.0-1.54","19","Low_HMMActual","","","","","","null","","","","Images/WhiteBeadChoice.png","","null"
"image-button-response","223","401780","0.0-13.0-2.54","19","Low_HMMActual","","","","","","null","","","","Images/WhiteBeadChoiceWrong.png","","null"
"image-button-response","224","402695","0.0-13.0-0.55","19","Low_HMMActual","","","","","","912.5100000528619","","","","Images/NewTrialBC.png","","3"
"image-button-response","225","402997","0.0-13.0-1.55","19","Low_HMMActual","","","","","","null","","","","Images/WhiteBeadChoice.png","","null"
"image-button-response","226","403499","0.0-13.0-2.55","19","Low_HMMActual","","","","","","null","","","","Images/WhiteBeadChoiceWrong.png","","null"
"image-button-response","227","403632","0.0-13.0-0.56","19","Low_HMMActual","","","","","","131.04000000748783","","","","Images/NewTrialBC.png","","1"
"image-button-response","228","403934","0.0-13.0-1.56","19","Low_HMMActual","","","","","","null","","","","Images/BlackBeadChoice.png","","null"
"image-button-response","229","404435","0.0-13.0-2.56","19","Low_HMMActual","","","","","","null","","","","Images/BlackBeadChoiceCorrect.png","","null"
"image-button-response","230","404689","0.0-13.0-0.57","19","Low_HMMActual","","","","","","251.26000004820526","","","","Images/NewTrialBC.png","","1"
"image-button-response","231","404990","0.0-13.0-1.57","19","Low_HMMActual","","","","","","null","","","","Images/BlackBeadChoice.png","","null"
"image-button-response","232","405491","0.0-13.0-2.57","19","Low_HMMActual","","","","","","null","","","","Images/BlackBeadChoiceCorrect.png","","null"
"image-button-response","233","405762","0.0-13.0-0.58","19","Low_HMMActual","","","","","","269.3349999608472","","","","Images/NewTrialBC.png","","1"
"image-button-response","234","406064","0.0-13.0-1.58","19","Low_HMMActual","","","","","","null","","","","Images/BlackBeadChoice.png","","null"
"image-button-response","235","406566","0.0-13.0-2.58","19","Low_HMMActual","","","","","","null","","","","Images/BlackBeadChoiceCorrect.png","","null"
"image-button-response","236","406862","0.0-13.0-0.59","19","Low_HMMActual","","","","","","294.35000004014","","","","Images/NewTrialBC.png","","1"
"image-button-response","237","407163","0.0-13.0-1.59","19","Low_HMMActual","","","","","","null","","","","Images/BlackBeadChoice.png","","null"
"image-button-response","238","407664","0.0-13.0-2.59","19","Low_HMMActual","","","","","","null","","","","Images/BlackBeadChoiceWrong.png","","null"
"image-button-response","239","408687","0.0-13.0-0.60","19","Low_HMMActual","","","","","","1021.4400000404567","","","","Images/NewTrialWC.png","","3"
"image-button-response","240","408989","0.0-13.0-1.60","19","Low_HMMActual","","","","","","null","","","","Images/WhiteBeadChoice.png","","null"
"image-button-response","241","409490","0.0-13.0-2.60","19","Low_HMMActual","","","","","","null","","","","Images/WhiteBeadChoiceCorrect.png","","null"
"image-button-response","242","409871","0.0-13.0-0.61","19","Low_HMMActual","","","","","","379.2050000047311","","","","Images/NewTrialWC.png","","3"
"image-button-response","243","410173","0.0-13.0-1.61","19","Low_HMMActual","","","","","","null","","","","Images/WhiteBeadChoice.png","","null"
"image-button-response","244","410674","0.0-13.0-2.61","19","Low_HMMActual","","","","","","null","","","","Images/WhiteBeadChoiceCorrect.png","","null"
"image-button-response","245","411364","0.0-13.0-0.62","19","Low_HMMActual","","","","","","680.3250000230037","","","","Images/NewTrialWC.png","","3"
"image-button-response","246","411667","0.0-13.0-1.62","19","Low_HMMActual","","","","","","null","","","","Images/WhiteBeadChoice.png","","null"
"image-button-response","247","412168","0.0-13.0-2.62","19","Low_HMMActual","","","","","","null","","","","Images/WhiteBeadChoiceWrong.png","","null"
"image-button-response","248","413456","0.0-13.0-0.63","19","Low_HMMActual","","","","","","1286.4999999874271","","","","Images/NewTrialBC.png","","1"
"image-button-response","249","413758","0.0-13.0-1.63","19","Low_HMMActual","","","","","","null","","","","Images/BlackBeadChoice.png","","null"
"image-button-response","250","414259","0.0-13.0-2.63","19","Low_HMMActual","","","","","","null","","","","Images/BlackBeadChoiceCorrect.png","","null"
"image-button-response","251","415489","0.0-13.0-0.64","19","Low_HMMActual","","","","","","1227.7399999438785","","","","Images/NewTrialBC.png","","1"
"image-button-response","252","415791","0.0-13.0-1.64","19","Low_HMMActual","","","","","","null","","","","Images/BlackBeadChoice.png","","null"
"image-button-response","253","416293","0.0-13.0-2.64","19","Low_HMMActual","","","","","","null","","","","Images/BlackBeadChoiceWrong.png","","null"
"image-button-response","254","416737","0.0-13.0-0.65","19","Low_HMMActual","","","","","","442.8900000057183","","","","Images/NewTrialWC.png","","3"
"image-button-response","255","417039","0.0-13.0-1.65","19","Low_HMMActual","","","","","","null","","","","Images/WhiteBeadChoice.png","","null"
"image-button-response","256","417541","0.0-13.0-2.65","19","Low_HMMActual","","","","","","null","","","","Images/WhiteBeadChoiceWrong.png","","null"
"image-button-response","257","417853","0.0-13.0-0.66","19","Low_HMMActual","","","","","","310.69499999284744","","","","Images/NewTrialBC.png","","1"
"image-button-response","258","418159","0.0-13.0-1.66","19","Low_HMMActual","","","","","","null","","","","Images/BlackBeadChoice.png","","null"
"image-button-response","259","418660","0.0-13.0-2.66","19","Low_HMMActual","","","","","","null","","","","Images/BlackBeadChoiceCorrect.png","","null"
"image-button-response","260","418753","0.0-13.0-0.67","19","Low_HMMActual","","","","","","91.8950000195764","","","","Images/NewTrialBC.png","","1"
"image-button-response","261","419055","0.0-13.0-1.67","19","Low_HMMActual","","","","","","null","","","","Images/BlackBeadChoice.png","","null"
"image-button-response","262","419557","0.0-13.0-2.67","19","Low_HMMActual","","","","","","null","","","","Images/BlackBeadChoiceCorrect.png","","null"
"image-button-response","263","420404","0.0-13.0-0.68","19","Low_HMMActual","","","","","","846.079999988433","","","","Images/NewTrialBC.png","","1"
"image-button-response","264","420707","0.0-13.0-1.68","19","Low_HMMActual","","","","","","null","","","","Images/BlackBeadChoice.png","","null"
"image-button-response","265","421209","0.0-13.0-2.68","19","Low_HMMActual","","","","","","null","","","","Images/BlackBeadChoiceWrong.png","","null"
"image-button-response","266","421826","0.0-13.0-0.69","19","Low_HMMActual","","","","","","615.4499999829568","","","","Images/NewTrialWC.png","","3"
"image-button-response","267","422128","0.0-13.0-1.69","19","Low_HMMActual","","","","","","null","","","","Images/WhiteBeadChoice.png","","null"
"image-button-response","268","422629","0.0-13.0-2.69","19","Low_HMMActual","","","","","","null","","","","Images/WhiteBeadChoiceWrong.png","","null"
"image-button-response","269","422825","0.0-13.0-0.70","19","Low_HMMActual","","","","","","194.11000004038215","","","","Images/NewTrialBC.png","","3"
"image-button-response","270","423127","0.0-13.0-1.70","19","Low_HMMActual","","","","","","null","","","","Images/WhiteBeadChoice.png","","null"
"image-button-response","271","423628","0.0-13.0-2.70","19","Low_HMMActual","","","","","","null","","","","Images/WhiteBeadChoiceCorrect.png","","null"
"image-button-response","272","424503","0.0-13.0-0.71","19","Low_HMMActual","","","","","","873.0900000082329","","","","Images/NewTrialWC.png","","3"
"image-button-response","273","424805","0.0-13.0-1.71","19","Low_HMMActual","","","","","","null","","","","Images/WhiteBeadChoice.png","","null"
"image-button-response","274","425307","0.0-13.0-2.71","19","Low_HMMActual","","","","","","null","","","","Images/WhiteBeadChoiceWrong.png","","null"
"image-button-response","275","426352","0.0-13.0-0.72","19","Low_HMMActual","","","","","","1043.6400000471622","","","","Images/NewTrialBC.png","","1"
"image-button-response","276","426654","0.0-13.0-1.72","19","Low_HMMActual","","","","","","null","","","","Images/BlackBeadChoice.png","","null"
"image-button-response","277","427155","0.0-13.0-2.72","19","Low_HMMActual","","","","","","null","","","","Images/BlackBeadChoiceCorrect.png","","null"
"image-button-response","278","427606","0.0-13.0-0.73","19","Low_HMMActual","","","","","","449.5249999454245","","","","Images/NewTrialBC.png","","1"
"image-button-response","279","427908","0.0-13.0-1.73","19","Low_HMMActual","","","","","","null","","","","Images/BlackBeadChoice.png","","null"
"image-button-response","280","428409","0.0-13.0-2.73","19","Low_HMMActual","","","","","","null","","","","Images/BlackBeadChoiceCorrect.png","","null"
"image-button-response","281","433615","0.0-13.0-0.74","19","Low_HMMActual","","","","","","5203.055000049062","","","","Images/NewTrialBC.png","","1"
"image-button-response","282","433918","0.0-13.0-1.74","19","Low_HMMActual","","","","","","null","","","","Images/BlackBeadChoice.png","","null"
"image-button-response","283","434420","0.0-13.0-2.74","19","Low_HMMActual","","","","","","null","","","","Images/BlackBeadChoiceCorrect.png","","null"
"image-button-response","284","434582","0.0-13.0-0.75","19","Low_HMMActual","","","","","","159.98499997658655","","","","Images/NewTrialBC.png","","1"
"image-button-response","285","434884","0.0-13.0-1.75","19","Low_HMMActual","","","","","","null","","","","Images/BlackBeadChoice.png","","null"
"image-button-response","286","435386","0.0-13.0-2.75","19","Low_HMMActual","","","","","","null","","","","Images/BlackBeadChoiceCorrect.png","","null"
"image-button-response","287","435663","0.0-13.0-0.76","19","Low_HMMActual","","","","","","273.70499999960884","","","","Images/NewTrialBC.png","","1"
"image-button-response","288","435966","0.0-13.0-1.76","19","Low_HMMActual","","","","","","null","","","","Images/BlackBeadChoice.png","","null"
"image-button-response","289","436468","0.0-13.0-2.76","19","Low_HMMActual","","","","","","null","","","","Images/BlackBeadChoiceCorrect.png","","null"
"image-button-response","290","436623","0.0-13.0-0.77","19","Low_HMMActual","","","","","","152.4399999761954","","","","Images/NewTrialBC.png","","1"
"image-button-response","291","436924","0.0-13.0-1.77","19","Low_HMMActual","","","","","","null","","","","Images/BlackBeadChoice.png","","null"
"image-button-response","292","437426","0.0-13.0-2.77","19","Low_HMMActual","","","","","","null","","","","Images/BlackBeadChoiceWrong.png","","null"
"image-button-response","293","438035","0.0-13.0-0.78","19","Low_HMMActual","","","","","","607.8400000114925","","","","Images/NewTrialWC.png","","1"
"image-button-response","294","438336","0.0-13.0-1.78","19","Low_HMMActual","","","","","","null","","","","Images/BlackBeadChoice.png","","null"
"image-button-response","295","438838","0.0-13.0-2.78","19","Low_HMMActual","","","","","","null","","","","Images/BlackBeadChoiceCorrect.png","","null"
"image-button-response","296","438962","0.0-13.0-0.79","19","Low_HMMActual","","","","","","122.81500000972301","","","","Images/NewTrialBC.png","","1"
"image-button-response","297","439264","0.0-13.0-1.79","19","Low_HMMActual","","","","","","null","","","","Images/BlackBeadChoice.png","","null"
"image-button-response","298","439767","0.0-13.0-2.79","19","Low_HMMActual","","","","","","null","","","","Images/BlackBeadChoiceCorrect.png","","null"
"image-button-response","299","440322","0.0-13.0-0.80","19","Low_HMMActual","","","","","","553.7649999605492","","","","Images/NewTrialBC.png","","1"
"image-button-response","300","440623","0.0-13.0-1.80","19","Low_HMMActual","","","","","","null","","","","Images/BlackBeadChoice.png","","null"
"image-button-response","301","441125","0.0-13.0-2.80","19","Low_HMMActual","","","","","","null","","","","Images/BlackBeadChoiceWrong.png","","null"
"image-button-response","302","441635","0.0-13.0-0.81","19","Low_HMMActual","","","","","","499.4249999872409","","","","Images/NewTrialWC.png","","3"
"image-button-response","303","441937","0.0-13.0-1.81","19","Low_HMMActual","","","","","","null","","","","Images/WhiteBeadChoice.png","","null"
"image-button-response","304","442439","0.0-13.0-2.81","19","Low_HMMActual","","","","","","null","","","","Images/WhiteBeadChoiceCorrect.png","","null"
"image-button-response","305","442582","0.0-13.0-0.82","19","Low_HMMActual","","","","","","140.9400000120513","","","","Images/NewTrialWC.png","","3"
"image-button-response","306","442884","0.0-13.0-1.82","19","Low_HMMActual","","","","","","null","","","","Images/WhiteBeadChoice.png","","null"
"image-button-response","307","443386","0.0-13.0-2.82","19","Low_HMMActual","","","","","","null","","","","Images/WhiteBeadChoiceWrong.png","","null"
"image-button-response","308","443775","0.0-13.0-0.83","19","Low_HMMActual","","","","","","387.55000004312024","","","","Images/NewTrialBC.png","","3"
"image-button-response","309","444077","0.0-13.0-1.83","19","Low_HMMActual","","","","","","null","","","","Images/WhiteBeadChoice.png","","null"
"image-button-response","310","444588","0.0-13.0-2.83","19","Low_HMMActual","","","","","","null","","","","Images/WhiteBeadChoiceWrong.png","","null"
"image-button-response","311","445823","0.0-13.0-0.84","19","Low_HMMActual","","","","","","1233.1300000078045","","","","Images/NewTrialBC.png","","1"
"image-button-response","312","446124","0.0-13.0-1.84","19","Low_HMMActual","","","","","","null","","","","Images/BlackBeadChoice.png","","null"
"image-button-response","313","446625","0.0-13.0-2.84","19","Low_HMMActual","","","","","","null","","","","Images/BlackBeadChoiceCorrect.png","","null"
"image-button-response","314","447176","0.0-13.0-0.85","19","Low_HMMActual","","","","","","548.8000000477768","","","","Images/NewTrialBC.png","","1"
"image-button-response","315","447477","0.0-13.0-1.85","19","Low_HMMActual","","","","","","null","","","","Images/BlackBeadChoice.png","","null"
"image-button-response","316","447979","0.0-13.0-2.85","19","Low_HMMActual","","","","","","null","","","","Images/BlackBeadChoiceCorrect.png","","null"
"image-button-response","317","448149","0.0-13.0-0.86","19","Low_HMMActual","","","","","","168.82000002078712","","","","Images/NewTrialBC.png","","1"
"image-button-response","318","448451","0.0-13.0-1.86","19","Low_HMMActual","","","","","","null","","","","Images/BlackBeadChoice.png","","null"
"image-button-response","319","448953","0.0-13.0-2.86","19","Low_HMMActual","","","","","","null","","","","Images/BlackBeadChoiceWrong.png","","null"
"image-button-response","320","450816","0.0-13.0-0.87","19","Low_HMMActual","","","","","","1853.8450000341982","","","","Images/NewTrialWC.png","","1"
"image-button-response","321","451117","0.0-13.0-1.87","19","Low_HMMActual","","","","","","null","","","","Images/BlackBeadChoice.png","","null"
"image-button-response","322","451622","0.0-13.0-2.87","19","Low_HMMActual","","","","","","null","","","","Images/BlackBeadChoiceWrong.png","","null"
"image-button-response","323","453177","0.0-13.0-0.88","19","Low_HMMActual","","","","","","1551.8000000156462","","","","Images/NewTrialWC.png","","2"
"image-button-response","324","453478","0.0-13.0-1.88","19","Low_HMMActual","","","","","","null","","","","Images/WhiteBeadChoice.png","","null"
"image-button-response","325","453980","0.0-13.0-2.88","19","Low_HMMActual","","","","","","null","","","","Images/WhiteBeadChoiceCorrect.png","","null"
"image-button-response","326","454644","0.0-13.0-0.89","19","Low_HMMActual","","","","","","661.9700000155717","","","","Images/NewTrialWC.png","","2"
"image-button-response","327","454947","0.0-13.0-1.89","19","Low_HMMActual","","","","","","null","","","","Images/WhiteBeadChoice.png","","null"
"image-button-response","328","455450","0.0-13.0-2.89","19","Low_HMMActual","","","","","","null","","","","Images/WhiteBeadChoiceWrong.png","","null"
"image-button-response","329","457725","0.0-13.0-0.90","19","Low_HMMActual","","","","","","2273.7450000131503","","","","Images/NewTrialBC.png","","3"
"image-button-response","330","458027","0.0-13.0-1.90","19","Low_HMMActual","","","","","","null","","","","Images/WhiteBeadChoice.png","","null"
"image-button-response","331","458530","0.0-13.0-2.90","19","Low_HMMActual","","","","","","null","","","","Images/WhiteBeadChoiceWrong.png","","null"
"image-button-response","332","459294","0.0-13.0-0.91","19","Low_HMMActual","","","","","","761.5300000179559","","","","Images/NewTrialBC.png","","1"
"image-button-response","333","459597","0.0-13.0-1.91","19","Low_HMMActual","","","","","","null","","","","Images/BlackBeadChoice.png","","null"
"image-button-response","334","460098","0.0-13.0-2.91","19","Low_HMMActual","","","","","","null","","","","Images/BlackBeadChoiceCorrect.png","","null"
"image-button-response","335","460371","0.0-13.0-0.92","19","Low_HMMActual","","","","","","270.87000000756234","","","","Images/NewTrialBC.png","","1"
"image-button-response","336","460673","0.0-13.0-1.92","19","Low_HMMActual","","","","","","null","","","","Images/BlackBeadChoice.png","","null"
"image-button-response","337","461174","0.0-13.0-2.92","19","Low_HMMActual","","","","","","null","","","","Images/BlackBeadChoiceWrong.png","","null"
"image-button-response","338","461405","0.0-13.0-0.93","19","Low_HMMActual","","","","","","229.4899999978952","","","","Images/NewTrialWC.png","","1"
"image-button-response","339","461715","0.0-13.0-1.93","19","Low_HMMActual","","","","","","null","","","","Images/BlackBeadChoice.png","","null"
"image-button-response","340","462217","0.0-13.0-2.93","19","Low_HMMActual","","","","","","null","","","","Images/BlackBeadChoiceWrong.png","","null"
"image-button-response","341","463447","0.0-13.0-0.94","19","Low_HMMActual","","","","","","1228.270000021439","","","","Images/NewTrialWC.png","","3"
"image-button-response","342","463748","0.0-13.0-1.94","19","Low_HMMActual","","","","","","null","","","","Images/WhiteBeadChoice.png","","null"
"image-button-response","343","464250","0.0-13.0-2.94","19","Low_HMMActual","","","","","","null","","","","Images/WhiteBeadChoiceWrong.png","","null"
"image-button-response","344","464908","0.0-13.0-0.95","19","Low_HMMActual","","","","","","656.4800000051036","","","","Images/NewTrialBC.png","","3"
"image-button-response","345","465209","0.0-13.0-1.95","19","Low_HMMActual","","","","","","null","","","","Images/WhiteBeadChoice.png","","null"
"image-button-response","346","465712","0.0-13.0-2.95","19","Low_HMMActual","","","","","","null","","","","Images/WhiteBeadChoiceWrong.png","","null"
"image-button-response","347","466454","0.0-13.0-0.96","19","Low_HMMActual","","","","","","740.52000005031","","","","Images/NewTrialBC.png","","3"
"image-button-response","348","466755","0.0-13.0-1.96","19","Low_HMMActual","","","","","","null","","","","Images/WhiteBeadChoice.png","","null"
"image-button-response","349","467265","0.0-13.0-2.96","19","Low_HMMActual","","","","","","null","","","","Images/WhiteBeadChoiceWrong.png","","null"
"image-button-response","350","467574","0.0-13.0-0.97","19","Low_HMMActual","","","","","","306.914999964647","","","","Images/NewTrialBC.png","","3"
"image-button-response","351","467876","0.0-13.0-1.97","19","Low_HMMActual","","","","","","null","","","","Images/WhiteBeadChoice.png","","null"
"image-button-response","352","468377","0.0-13.0-2.97","19","Low_HMMActual","","","","","","null","","","","Images/WhiteBeadChoiceWrong.png","","null"
"image-button-response","353","468648","0.0-13.0-0.98","19","Low_HMMActual","","","","","","268.76499998616055","","","","Images/NewTrialBC.png","","1"
"image-button-response","354","468949","0.0-13.0-1.98","19","Low_HMMActual","","","","","","null","","","","Images/BlackBeadChoice.png","","null"
"image-button-response","355","469450","0.0-13.0-2.98","19","Low_HMMActual","","","","","","null","","","","Images/BlackBeadChoiceWrong.png","","null"
"image-button-response","356","470387","0.0-13.0-0.99","19","Low_HMMActual","","","","","","934.6399999922141","","","","Images/NewTrialWC.png","","1"
"image-button-response","357","470688","0.0-13.0-1.99","19","Low_HMMActual","","","","","","null","","","","Images/BlackBeadChoice.png","","null"
"image-button-response","358","471190","0.0-13.0-2.99","19","Low_HMMActual","","","","","","null","","","","Images/BlackBeadChoiceCorrect.png","","null"
"image-button-response","359","471416","0.0-13.0-0.100","19","Low_HMMActual","","","","","","224.6100000338629","","","","Images/NewTrialBC.png","","1"
"image-button-response","360","471718","0.0-13.0-1.100","19","Low_HMMActual","","","","","","null","","","","Images/BlackBeadChoice.png","","null"
"image-button-response","361","472219","0.0-13.0-2.100","19","Low_HMMActual","","","","","","null","","","","Images/BlackBeadChoiceWrong.png","","null"
"image-button-response","362","479440","0.0-13.0-0.101","19","Low_HMMActual","","","","","","7217.639999988023","","","","Images/NewTrialWC.png","","3"
"image-button-response","363","479744","0.0-13.0-1.101","19","Low_HMMActual","","","","","","null","","","","Images/WhiteBeadChoice.png","","null"
"image-button-response","364","480247","0.0-13.0-2.101","19","Low_HMMActual","","","","","","null","","","","Images/WhiteBeadChoiceCorrect.png","","null"
"image-button-response","365","481488","0.0-13.0-0.102","19","Low_HMMActual","","","","","","1230.3250000113621","","","","Images/NewTrialWC.png","","3"
"image-button-response","366","481789","0.0-13.0-1.102","19","Low_HMMActual","","","","","","null","","","","Images/WhiteBeadChoice.png","","null"
"image-button-response","367","482291","0.0-13.0-2.102","19","Low_HMMActual","","","","","","null","","","","Images/WhiteBeadChoiceCorrect.png","","null"
"image-button-response","368","482885","0.0-13.0-0.103","19","Low_HMMActual","","","","","","592.3750000074506","","","","Images/NewTrialWC.png","","3"
"image-button-response","369","483187","0.0-13.0-1.103","19","Low_HMMActual","","","","","","null","","","","Images/WhiteBeadChoice.png","","null"
"image-button-response","370","483688","0.0-13.0-2.103","19","Low_HMMActual","","","","","","null","","","","Images/WhiteBeadChoiceWrong.png","","null"
"image-button-response","371","501291","0.0-13.0-0.104","19","Low_HMMActual","","","","","","17601.05499997735","","","","Images/NewTrialBC.png","","1"
"image-button-response","372","501593","0.0-13.0-1.104","19","Low_HMMActual","","","","","","null","","","","Images/BlackBeadChoice.png","","null"
"image-button-response","373","502095","0.0-13.0-2.104","19","Low_HMMActual","","","","","","467.6800000015646","","","","Images/BlackBeadChoiceWrong.png","","1"
"image-button-response","374","502629","0.0-13.0-0.105","19","Low_HMMActual","","","","","","532.2649999870919","","","","Images/NewTrialWC.png","","1"
"image-button-response","375","502930","0.0-13.0-1.105","19","Low_HMMActual","","","","","","null","","","","Images/BlackBeadChoice.png","","null"
"image-button-response","376","503442","0.0-13.0-2.105","19","Low_HMMActual","","","","","","null","","","","Images/BlackBeadChoiceWrong.png","","null"
"image-button-response","377","505056","0.0-13.0-0.106","19","Low_HMMActual","","","","","","1612.2449999675155","","","","Images/NewTrialWC.png","","3"
"image-button-response","378","505368","0.0-13.0-1.106","19","Low_HMMActual","","","","","","null","","","","Images/WhiteBeadChoice.png","","null"
"image-button-response","379","505872","0.0-13.0-2.106","19","Low_HMMActual","","","","","","null","","","","Images/WhiteBeadChoiceCorrect.png","","null"
"image-button-response","380","505981","0.0-13.0-0.107","19","Low_HMMActual","","","","","","106.14500002702698","","","","Images/NewTrialWC.png","","3"
"image-button-response","381","506282","0.0-13.0-1.107","19","Low_HMMActual","","","","","","null","","","","Images/WhiteBeadChoice.png","","null"
"image-button-response","382","506785","0.0-13.0-2.107","19","Low_HMMActual","","","","","","494.47500001406297","","","","Images/WhiteBeadChoiceCorrect.png","","3"
"image-button-response","383","507197","0.0-13.0-0.108","19","Low_HMMActual","","","","","","410.01500003039837","","","","Images/NewTrialWC.png","","3"
"image-button-response","384","507507","0.0-13.0-1.108","19","Low_HMMActual","","","","","","null","","","","Images/WhiteBeadChoice.png","","null"
"image-button-response","385","508015","0.0-13.0-2.108","19","Low_HMMActual","","","","","","null","","","","Images/WhiteBeadChoiceCorrect.png","","null"
"image-button-response","386","508517","0.0-13.0-0.109","19","Low_HMMActual","","","","","","499.4750000187196","","","","Images/NewTrialWC.png","","3"
"image-button-response","387","508818","0.0-13.0-1.109","19","Low_HMMActual","","","","","","null","","","","Images/WhiteBeadChoice.png","","null"
"image-button-response","388","509321","0.0-13.0-2.109","19","Low_HMMActual","","","","","","null","","","","Images/WhiteBeadChoiceCorrect.png","","null"
"image-button-response","389","509857","0.0-13.0-0.110","19","Low_HMMActual","","","","","","534.6699999645352","","","","Images/NewTrialWC.png","","3"
"image-button-response","390","510159","0.0-13.0-1.110","19","Low_HMMActual","","","","","","null","","","","Images/WhiteBeadChoice.png","","null"
"image-button-response","391","510661","0.0-13.0-2.110","19","Low_HMMActual","","","","","","null","","","","Images/WhiteBeadChoiceWrong.png","","null"
"image-button-response","392","510861","0.0-13.0-0.111","19","Low_HMMActual","","","","","","198.72500002384186","","","","Images/NewTrialBC.png","","3"
"image-button-response","393","511175","0.0-13.0-1.111","19","Low_HMMActual","","","","","","null","","","","Images/WhiteBeadChoice.png","","null"
"image-button-response","394","511676","0.0-13.0-2.111","19","Low_HMMActual","","","","","","null","","","","Images/WhiteBeadChoiceWrong.png","","null"
"image-button-response","395","511916","0.0-13.0-0.112","19","Low_HMMActual","","","","","","237.8500000340864","","","","Images/NewTrialBC.png","","1"
"image-button-response","396","512217","0.0-13.0-1.112","19","Low_HMMActual","","","","","","null","","","","Images/BlackBeadChoice.png","","null"
"image-button-response","397","512719","0.0-13.0-2.112","19","Low_HMMActual","","","","","","null","","","","Images/BlackBeadChoiceWrong.png","","null"
"image-button-response","398","513568","0.0-13.0-0.113","19","Low_HMMActual","","","","","","846.5899999719113","","","","Images/NewTrialWC.png","","3"
"image-button-response","399","513877","0.0-13.0-1.113","19","Low_HMMActual","","","","","","null","","","","Images/WhiteBeadChoice.png","","null"
"image-button-response","400","514380","0.0-13.0-2.113","19","Low_HMMActual","","","","","","null","","","","Images/WhiteBeadChoiceCorrect.png","","null"
"image-button-response","401","514873","0.0-13.0-0.114","19","Low_HMMActual","","","","","","491.2999999942258","","","","Images/NewTrialWC.png","","3"
"image-button-response","402","515175","0.0-13.0-1.114","19","Low_HMMActual","","","","","","null","","","","Images/WhiteBeadChoice.png","","null"
"image-button-response","403","515677","0.0-13.0-2.114","19","Low_HMMActual","","","","","","null","","","","Images/WhiteBeadChoiceCorrect.png","","null"
"image-button-response","404","515832","0.0-13.0-0.115","19","Low_HMMActual","","","","","","146.94999996572733","","","","Images/NewTrialWC.png","","3"
"image-button-response","405","516133","0.0-13.0-1.115","19","Low_HMMActual","","","","","","null","","","","Images/WhiteBeadChoice.png","","null"
"image-button-response","406","516644","0.0-13.0-2.115","19","Low_HMMActual","","","","","","null","","","","Images/WhiteBeadChoiceCorrect.png","","null"
"image-button-response","407","516779","0.0-13.0-0.116","19","Low_HMMActual","","","","","","133.32500000251457","","","","Images/NewTrialWC.png","","3"
"image-button-response","408","517080","0.0-13.0-1.116","19","Low_HMMActual","","","","","","null","","","","Images/WhiteBeadChoice.png","","null"
"image-button-response","409","517581","0.0-13.0-2.116","19","Low_HMMActual","","","","","","null","","","","Images/WhiteBeadChoiceWrong.png","","null"
"image-button-response","410","518465","0.0-13.0-0.117","19","Low_HMMActual","","","","","","881.8399999872781","","","","Images/NewTrialBC.png","","0"
"image-button-response","411","518766","0.0-13.0-1.117","19","Low_HMMActual","","","","","","null","","","","Images/BlackBeadChoice.png","","null"
"image-button-response","412","519269","0.0-13.0-2.117","19","Low_HMMActual","","","","","","null","","","","Images/BlackBeadChoiceCorrect.png","","null"
"image-button-response","413","519657","0.0-13.0-0.118","19","Low_HMMActual","","","","","","386.37000002199784","","","","Images/NewTrialBC.png","","0"
"image-button-response","414","519958","0.0-13.0-1.118","19","Low_HMMActual","","","","","","null","","","","Images/BlackBeadChoice.png","","null"
"image-button-response","415","520461","0.0-13.0-2.118","19","Low_HMMActual","","","","","","null","","","","Images/BlackBeadChoiceCorrect.png","","null"
"image-button-response","416","520656","0.0-13.0-0.119","19","Low_HMMActual","","","","","","178.0750000034459","","","","Images/NewTrialBC.png","","0"
"image-button-response","417","520957","0.0-13.0-1.119","19","Low_HMMActual","","","","","","null","","","","Images/BlackBeadChoice.png","","null"
"image-button-response","418","521459","0.0-13.0-2.119","19","Low_HMMActual","","","","","","null","","","","Images/BlackBeadChoiceCorrect.png","","null"
"image-button-response","419","522514","0.0-13.0-0.120","19","Low_HMMActual","","","","","","1054.3850000249222","","","","Images/NewTrialBC.png","","3"
"image-button-response","420","522816","0.0-13.0-1.120","19","Low_HMMActual","","","","","","null","","","","Images/WhiteBeadChoice.png","","null"
"image-button-response","421","523317","0.0-13.0-2.120","19","Low_HMMActual","","","","","","null","","","","Images/WhiteBeadChoiceCorrect.png","","null"
"image-button-response","422","524277","0.0-13.0-0.121","19","Low_HMMActual","","","","","","956.8500000168569","","","","Images/NewTrialWC.png","","3"
"image-button-response","423","524579","0.0-13.0-1.121","19","Low_HMMActual","","","","","","null","","","","Images/WhiteBeadChoice.png","","null"
"image-button-response","424","525081","0.0-13.0-2.121","19","Low_HMMActual","","","","","","null","","","","Images/WhiteBeadChoiceCorrect.png","","null"
"image-button-response","425","525221","0.0-13.0-0.122","19","Low_HMMActual","","","","","","138.79500003531575","","","","Images/NewTrialWC.png","","3"
"image-button-response","426","525523","0.0-13.0-1.122","19","Low_HMMActual","","","","","","null","","","","Images/WhiteBeadChoice.png","","null"
"image-button-response","427","526025","0.0-13.0-2.122","19","Low_HMMActual","","","","","","null","","","","Images/WhiteBeadChoiceCorrect.png","","null"
"image-button-response","428","561019","0.0-13.0-0.123","19","Low_HMMActual","","","","","","34992.26500000805","","","","Images/NewTrialWC.png","","3"
"image-button-response","429","561321","0.0-13.0-1.123","19","Low_HMMActual","","","","","","null","","","","Images/WhiteBeadChoice.png","","null"
"image-button-response","430","561823","0.0-13.0-2.123","19","Low_HMMActual","","","","","","null","","","","Images/WhiteBeadChoiceWrong.png","","null"
"image-button-response","431","563332","0.0-13.0-0.124","19","Low_HMMActual","","","","","","1507.2400000062771","","","","Images/NewTrialBC.png","","3"
"image-button-response","432","563635","0.0-13.0-1.124","19","Low_HMMActual","","","","","","null","","","","Images/WhiteBeadChoice.png","","null"
"image-button-response","433","564136","0.0-13.0-2.124","19","Low_HMMActual","","","","","","null","","","","Images/WhiteBeadChoiceWrong.png","","null"
"image-button-response","434","565133","0.0-13.0-0.125","19","Low_HMMActual","","","","","","994.7500000125729","","","","Images/NewTrialBC.png","","0"
"image-button-response","435","565434","0.0-13.0-1.125","19","Low_HMMActual","","","","","","null","","","","Images/BlackBeadChoice.png","","null"
"image-button-response","436","565936","0.0-13.0-2.125","19","Low_HMMActual","","","","","","null","","","","Images/BlackBeadChoiceWrong.png","","null"
"image-button-response","437","576055","0.0-13.0-0.126","19","Low_HMMActual","","","","","","10117.3950000084","","","","Images/NewTrialWC.png","","3"
"image-button-response","438","576357","0.0-13.0-1.126","19","Low_HMMActual","","","","","","null","","","","Images/WhiteBeadChoice.png","","null"
"image-button-response","439","576860","0.0-13.0-2.126","19","Low_HMMActual","","","","","","null","","","","Images/WhiteBeadChoiceWrong.png","","null"
"image-button-response","440","577224","0.0-13.0-0.127","19","Low_HMMActual","","","","","","361.36500001884997","","","","Images/NewTrialBC.png","","3"
"image-button-response","441","577526","0.0-13.0-1.127","19","Low_HMMActual","","","","","","null","","","","Images/WhiteBeadChoice.png","","null"
"image-button-response","442","578028","0.0-13.0-2.127","19","Low_HMMActual","","","","","","null","","","","Images/WhiteBeadChoiceWrong.png","","null"
"image-button-response","443","578703","0.0-13.0-0.128","19","Low_HMMActual","","","","","","672.6500000222586","","","","Images/NewTrialBC.png","","1"
"image-button-response","444","579004","0.0-13.0-1.128","19","Low_HMMActual","","","","","","null","","","","Images/BlackBeadChoice.png","","null"
"image-button-response","445","579506","0.0-13.0-2.128","19","Low_HMMActual","","","","","","403.37000001454726","","","","Images/BlackBeadChoiceCorrect.png","","1"
"image-button-response","446","579960","0.0-13.0-0.129","19","Low_HMMActual","","","","","","452.3250000202097","","","","Images/NewTrialBC.png","","1"
"image-button-response","447","580275","0.0-13.0-1.129","19","Low_HMMActual","","","","","","null","","","","Images/BlackBeadChoice.png","","null"
"image-button-response","448","580777","0.0-13.0-2.129","19","Low_HMMActual","","","","","","453.29999999376014","","","","Images/BlackBeadChoiceCorrect.png","","1"
"image-button-response","449","581189","0.0-13.0-0.130","19","Low_HMMActual","","","","","","410.0750000216067","","","","Images/NewTrialBC.png","","1"
"image-button-response","450","581502","0.0-13.0-1.130","19","Low_HMMActual","","","","","","null","","","","Images/BlackBeadChoice.png","","null"
"image-button-response","451","582003","0.0-13.0-2.130","19","Low_HMMActual","","","","","","480.44999997364357","","","","Images/BlackBeadChoiceCorrect.png","","1"
"image-button-response","452","582427","0.0-13.0-0.131","19","Low_HMMActual","","","","","","421.9349999912083","","","","Images/NewTrialBC.png","","1"
"image-button-response","453","582728","0.0-13.0-1.131","19","Low_HMMActual","","","","","","null","","","","Images/BlackBeadChoice.png","","null"
"image-button-response","454","583238","0.0-13.0-2.131","19","Low_HMMActual","","","","","","null","","","","Images/BlackBeadChoiceCorrect.png","","null"
"image-button-response","455","583447","0.0-13.0-0.132","19","Low_HMMActual","","","","","","206.72499999636784","","","","Images/NewTrialBC.png","","1"
"image-button-response","456","583749","0.0-13.0-1.132","19","Low_HMMActual","","","","","","null","","","","Images/BlackBeadChoice.png","","null"
"image-button-response","457","584251","0.0-13.0-2.132","19","Low_HMMActual","","","","","","null","","","","Images/BlackBeadChoiceCorrect.png","","null"
"image-button-response","458","584473","0.0-13.0-0.133","19","Low_HMMActual","","","","","","219.83000001637265","","","","Images/NewTrialBC.png","","1"
"image-button-response","459","584775","0.0-13.0-1.133","19","Low_HMMActual","","","","","","null","","","","Images/BlackBeadChoice.png","","null"
"image-button-response","460","585277","0.0-13.0-2.133","19","Low_HMMActual","","","","","","null","","","","Images/BlackBeadChoiceCorrect.png","","null"
"image-button-response","461","585788","0.0-13.0-0.134","19","Low_HMMActual","","","","","","507.9899999545887","","","","Images/NewTrialBC.png","","3"
"image-button-response","462","586089","0.0-13.0-1.134","19","Low_HMMActual","","","","","","null","","","","Images/WhiteBeadChoice.png","","null"
"image-button-response","463","586591","0.0-13.0-2.134","19","Low_HMMActual","","","","","","null","","","","Images/WhiteBeadChoiceWrong.png","","null"
"image-button-response","464","587092","0.0-13.0-0.135","19","Low_HMMActual","","","","","","499.65499999234453","","","","Images/NewTrialBC.png","","1"
"image-button-response","465","587393","0.0-13.0-1.135","19","Low_HMMActual","","","","","","null","","","","Images/BlackBeadChoice.png","","null"
"image-button-response","466","587895","0.0-13.0-2.135","19","Low_HMMActual","","","","","","null","","","","Images/BlackBeadChoiceWrong.png","","null"
"image-button-response","467","599810","0.0-13.0-0.136","19","Low_HMMActual","","","","","","11913.54500001762","","","","Images/NewTrialWC.png","","3"
"image-button-response","468","600112","0.0-13.0-1.136","19","Low_HMMActual","","","","","","null","","","","Images/WhiteBeadChoice.png","","null"
"image-button-response","469","600613","0.0-13.0-2.136","19","Low_HMMActual","","","","","","475.3599999821745","","","","Images/WhiteBeadChoiceCorrect.png","","3"
"image-button-response","470","601253","0.0-13.0-0.137","19","Low_HMMActual","","","","","","630.219999991823","","","","Images/NewTrialWC.png","","3"
"image-button-response","471","601562","0.0-13.0-1.137","19","Low_HMMActual","","","","","","null","","","","Images/WhiteBeadChoice.png","","null"
"image-button-response","472","602064","0.0-13.0-2.137","19","Low_HMMActual","","","","","","null","","","","Images/WhiteBeadChoiceCorrect.png","","null"
"image-button-response","473","602404","0.0-13.0-0.138","19","Low_HMMActual","","","","","","337.790000019595","","","","Images/NewTrialWC.png","","3"
"image-button-response","474","602706","0.0-13.0-1.138","19","Low_HMMActual","","","","","","null","","","","Images/WhiteBeadChoice.png","","null"
"image-button-response","475","603207","0.0-13.0-2.138","19","Low_HMMActual","","","","","","null","","","","Images/WhiteBeadChoiceCorrect.png","","null"
"image-button-response","476","603321","0.0-13.0-0.139","19","Low_HMMActual","","","","","","110.90999998850748","","","","Images/NewTrialWC.png","","3"
"image-button-response","477","603622","0.0-13.0-1.139","19","Low_HMMActual","","","","","","null","","","","Images/WhiteBeadChoice.png","","null"
"image-button-response","478","604124","0.0-13.0-2.139","19","Low_HMMActual","","","","","","null","","","","Images/WhiteBeadChoiceCorrect.png","","null"
"image-button-response","479","604682","0.0-13.0-0.140","19","Low_HMMActual","","","","","","555.9350000112318","","","","Images/NewTrialWC.png","","3"
"image-button-response","480","604984","0.0-13.0-1.140","19","Low_HMMActual","","","","","","null","","","","Images/WhiteBeadChoice.png","","null"
"image-button-response","481","605485","0.0-13.0-2.140","19","Low_HMMActual","","","","","","null","","","","Images/WhiteBeadChoiceCorrect.png","","null"
"image-button-response","482","605737","0.0-13.0-0.141","19","Low_HMMActual","","","","","","249.84000000404194","","","","Images/NewTrialWC.png","","2"
"image-button-response","483","606041","0.0-13.0-1.141","19","Low_HMMActual","","","","","","null","","","","Images/WhiteBeadChoice.png","","null"
"image-button-response","484","606543","0.0-13.0-2.141","19","Low_HMMActual","","","","","","null","","","","Images/WhiteBeadChoiceCorrect.png","","null"
"image-button-response","485","606922","0.0-13.0-0.142","19","Low_HMMActual","","","","","","374.9300000490621","","","","Images/NewTrialWC.png","","2"
"image-button-response","486","607224","0.0-13.0-1.142","19","Low_HMMActual","","","","","","null","","","","Images/WhiteBeadChoice.png","","null"
"image-button-response","487","607725","0.0-13.0-2.142","19","Low_HMMActual","","","","","","null","","","","Images/WhiteBeadChoiceWrong.png","","null"
"image-button-response","488","607965","0.0-13.0-0.143","19","Low_HMMActual","","","","","","238.58000000473112","","","","Images/NewTrialBC.png","","1"
"image-button-response","489","608277","0.0-13.0-1.143","19","Low_HMMActual","","","","","","null","","","","Images/BlackBeadChoice.png","","null"
"image-button-response","490","608778","0.0-13.0-2.143","19","Low_HMMActual","","","","","","null","","","","Images/BlackBeadChoiceWrong.png","","null"
"image-button-response","491","609361","0.0-13.0-0.144","19","Low_HMMActual","","","","","","581.2649999861605","","","","Images/NewTrialWC.png","","1"
"image-button-response","492","609662","0.0-13.0-1.144","19","Low_HMMActual","","","","","","null","","","","Images/BlackBeadChoice.png","","null"
"image-button-response","493","610164","0.0-13.0-2.144","19","Low_HMMActual","","","","","","null","","","","Images/BlackBeadChoiceWrong.png","","null"
"image-button-response","494","612135","0.0-13.0-0.145","19","Low_HMMActual","","","","","","1969.0149999805726","","","","Images/NewTrialWC.png","","2"
"image-button-response","495","612437","0.0-13.0-1.145","19","Low_HMMActual","","","","","","null","","","","Images/WhiteBeadChoice.png","","null"
"image-button-response","496","612939","0.0-13.0-2.145","19","Low_HMMActual","","","","","","492.19000001903623","","","","Images/WhiteBeadChoiceCorrect.png","","2"
"image-button-response","497","613359","0.0-13.0-0.146","19","Low_HMMActual","","","","","","418.2099999743514","","","","Images/NewTrialWC.png","","2"
"image-button-response","498","613661","0.0-13.0-1.146","19","Low_HMMActual","","","","","","null","","","","Images/WhiteBeadChoice.png","","null"
"image-button-response","499","614163","0.0-13.0-2.146","19","Low_HMMActual","","","","","","null","","","","Images/WhiteBeadChoiceWrong.png","","null"
"image-button-response","500","614570","0.0-13.0-0.147","19","Low_HMMActual","","","","","","405.44499998213723","","","","Images/NewTrialBC.png","","2"
"image-button-response","501","614875","0.0-13.0-1.147","19","Low_HMMActual","","","","","","null","","","","Images/WhiteBeadChoice.png","","null"
"image-button-response","502","615377","0.0-13.0-2.147","19","Low_HMMActual","","","","","","null","","","","Images/WhiteBeadChoiceCorrect.png","","null"
"image-button-response","503","615683","0.0-13.0-0.148","19","Low_HMMActual","","","","","","304.2699999641627","","","","Images/NewTrialWC.png","","2"
"image-button-response","504","615985","0.0-13.0-1.148","19","Low_HMMActual","","","","","","null","","","","Images/WhiteBeadChoice.png","","null"
"image-button-response","505","616487","0.0-13.0-2.148","19","Low_HMMActual","","","","","","null","","","","Images/WhiteBeadChoiceCorrect.png","","null"
"image-button-response","506","616637","0.0-13.0-0.149","19","Low_HMMActual","","","","","","148.1350000249222","","","","Images/NewTrialWC.png","","2"
"image-button-response","507","616939","0.0-13.0-1.149","19","Low_HMMActual","","","","","","null","","","","Images/WhiteBeadChoice.png","","null"
"image-button-response","508","617441","0.0-13.0-2.149","19","Low_HMMActual","","","","","","null","","","","Images/WhiteBeadChoiceWrong.png","","null"
"image-button-response","509","618968","0.0-13.0-0.150","19","Low_HMMActual","","","","","","1525.6700000027195","","","","Images/NewTrialBC.png","","1"
"image-button-response","510","619269","0.0-13.0-1.150","19","Low_HMMActual","","","","","","null","","","","Images/BlackBeadChoice.png","","null"
"image-button-response","511","619772","0.0-13.0-2.150","19","Low_HMMActual","","","","","","null","","","","Images/BlackBeadChoiceWrong.png","","null"
"image-button-response","512","620007","0.0-13.0-0.151","19","Low_HMMActual","","","","","","233.47999999532476","","","","Images/NewTrialWC.png","","1"
"image-button-response","513","620310","0.0-13.0-1.151","19","Low_HMMActual","","","","","","null","","","","Images/BlackBeadChoice.png","","null"
"image-button-response","514","620811","0.0-13.0-2.151","19","Low_HMMActual","","","","","","null","","","","Images/BlackBeadChoiceWrong.png","","null"
"image-button-response","515","621343","0.0-13.0-0.152","19","Low_HMMActual","","","","","","530.2000000374392","","","","Images/NewTrialWC.png","","2"
"image-button-response","516","621645","0.0-13.0-1.152","19","Low_HMMActual","","","","","","null","","","","Images/WhiteBeadChoice.png","","null"
"image-button-response","517","622147","0.0-13.0-2.152","19","Low_HMMActual","","","","","","null","","","","Images/WhiteBeadChoiceCorrect.png","","null"
"image-button-response","518","622361","0.0-13.0-0.153","19","Low_HMMActual","","","","","","212.06999995047227","","","","Images/NewTrialWC.png","","2"
"image-button-response","519","622664","0.0-13.0-1.153","19","Low_HMMActual","","","","","","null","","","","Images/WhiteBeadChoice.png","","null"
"image-button-response","520","623167","0.0-13.0-2.153","19","Low_HMMActual","","","","","","null","","","","Images/WhiteBeadChoiceCorrect.png","","null"
"image-button-response","521","623309","0.0-13.0-0.154","19","Low_HMMActual","","","","","","141.22999995015562","","","","Images/NewTrialWC.png","","2"
"image-button-response","522","623611","0.0-13.0-1.154","19","Low_HMMActual","","","","","","null","","","","Images/WhiteBeadChoice.png","","null"
"image-button-response","523","624113","0.0-13.0-2.154","19","Low_HMMActual","","","","","","481.5550000057556","","","","Images/WhiteBeadChoiceCorrect.png","","2"
"image-button-response","524","624699","0.0-13.0-0.155","19","Low_HMMActual","","","","","","574.1949999937788","","","","Images/NewTrialWC.png","","2"
"image-button-response","525","625001","0.0-13.0-1.155","19","Low_HMMActual","","","","","","null","","","","Images/WhiteBeadChoice.png","","null"
"image-button-response","526","625503","0.0-13.0-2.155","19","Low_HMMActual","","","","","","null","","","","Images/WhiteBeadChoiceWrong.png","","null"
"image-button-response","527","626373","0.0-13.0-0.156","19","Low_HMMActual","","","","","","869.280000042636","","","","Images/NewTrialBC.png","","2"
"image-button-response","528","626676","0.0-13.0-1.156","19","Low_HMMActual","","","","","","null","","","","Images/WhiteBeadChoice.png","","null"
"image-button-response","529","627180","0.0-13.0-2.156","19","Low_HMMActual","","","","","","null","","","","Images/WhiteBeadChoiceWrong.png","","null"
"image-button-response","530","627803","0.0-13.0-0.157","19","Low_HMMActual","","","","","","621.3949999655597","","","","Images/NewTrialBC.png","","0"
"image-button-response","531","628105","0.0-13.0-1.157","19","Low_HMMActual","","","","","","null","","","","Images/BlackBeadChoice.png","","null"
"image-button-response","532","628606","0.0-13.0-2.157","19","Low_HMMActual","","","","","","384.7199999727309","","","","Images/BlackBeadChoiceCorrect.png","","0"
"image-button-response","533","628976","0.0-13.0-0.158","19","Low_HMMActual","","","","","","368.97499999031425","","","","Images/NewTrialBC.png","","0"
"image-button-response","534","629278","0.0-13.0-1.158","19","Low_HMMActual","","","","","","null","","","","Images/BlackBeadChoice.png","","null"
"image-button-response","535","629780","0.0-13.0-2.158","19","Low_HMMActual","","","","","","null","","","","Images/BlackBeadChoiceCorrect.png","","null"
"image-button-response","536","630202","0.0-13.0-0.159","19","Low_HMMActual","","","","","","420.8949999883771","","","","Images/NewTrialBC.png","","0"
"image-button-response","537","630505","0.0-13.0-1.159","19","Low_HMMActual","","","","","","null","","","","Images/BlackBeadChoice.png","","null"
"image-button-response","538","631006","0.0-13.0-2.159","19","Low_HMMActual","","","","","","null","","","","Images/BlackBeadChoiceCorrect.png","","null"
"image-button-response","539","631298","0.0-13.0-0.160","19","Low_HMMActual","","","","","","289.19999999925494","","","","Images/NewTrialBC.png","","0"
"image-button-response","540","631600","0.0-13.0-1.160","19","Low_HMMActual","","","","","","null","","","","Images/BlackBeadChoice.png","","null"
"image-button-response","541","632102","0.0-13.0-2.160","19","Low_HMMActual","","","","","","null","","","","Images/BlackBeadChoiceCorrect.png","","null"
"image-button-response","542","632273","0.0-13.0-0.161","19","Low_HMMActual","","","","","","169.79999997420236","","","","Images/NewTrialBC.png","","0"
"image-button-response","543","632575","0.0-13.0-1.161","19","Low_HMMActual","","","","","","null","","","","Images/BlackBeadChoice.png","","null"
"image-button-response","544","633077","0.0-13.0-2.161","19","Low_HMMActual","","","","","","null","","","","Images/BlackBeadChoiceWrong.png","","null"
"image-button-response","545","633796","0.0-13.0-0.162","19","Low_HMMActual","","","","","","718.3349999831989","","","","Images/NewTrialWC.png","","0"
"image-button-response","546","634098","0.0-13.0-1.162","19","Low_HMMActual","","","","","","null","","","","Images/BlackBeadChoice.png","","null"
"image-button-response","547","634599","0.0-13.0-2.162","19","Low_HMMActual","","","","","","null","","","","Images/BlackBeadChoiceWrong.png","","null"
"image-button-response","548","635757","0.0-13.0-0.163","19","Low_HMMActual","","","","","","1155.2900000242516","","","","Images/NewTrialWC.png","","2"
"image-button-response","549","636058","0.0-13.0-1.163","19","Low_HMMActual","","","","","","null","","","","Images/WhiteBeadChoice.png","","null"
"image-button-response","550","636559","0.0-13.0-2.163","19","Low_HMMActual","","","","","","null","","","","Images/WhiteBeadChoiceCorrect.png","","null"
"image-button-response","551","636729","0.0-13.0-0.164","19","Low_HMMActual","","","","","","167.95499995350838","","","","Images/NewTrialWC.png","","2"
"image-button-response","552","637032","0.0-13.0-1.164","19","Low_HMMActual","","","","","","null","","","","Images/WhiteBeadChoice.png","","null"
"image-button-response","553","637534","0.0-13.0-2.164","19","Low_HMMActual","","","","","","420.3700000070967","","","","Images/WhiteBeadChoiceCorrect.png","","2"
"image-button-response","554","638182","0.0-13.0-0.165","19","Low_HMMActual","","","","","","646.2700000265613","","","","Images/NewTrialWC.png","","2"
"image-button-response","555","638484","0.0-13.0-1.165","19","Low_HMMActual","","","","","","null","","","","Images/WhiteBeadChoice.png","","null"
"image-button-response","556","638986","0.0-13.0-2.165","19","Low_HMMActual","","","","","","null","","","","Images/WhiteBeadChoiceCorrect.png","","null"
"image-button-response","557","639456","0.0-13.0-0.166","19","Low_HMMActual","","","","","","467.4599999561906","","","","Images/NewTrialWC.png","","2"
"image-button-response","558","639758","0.0-13.0-1.166","19","Low_HMMActual","","","","","","null","","","","Images/WhiteBeadChoice.png","","null"
"image-button-response","559","640263","0.0-13.0-2.166","19","Low_HMMActual","","","","","","null","","","","Images/WhiteBeadChoiceCorrect.png","","null"
"image-button-response","560","640764","0.0-13.0-0.167","19","Low_HMMActual","","","","","","497.7400000207126","","","","Images/NewTrialWC.png","","2"
"image-button-response","561","641066","0.0-13.0-1.167","19","Low_HMMActual","","","","","","null","","","","Images/WhiteBeadChoice.png","","null"
"image-button-response","562","641568","0.0-13.0-2.167","19","Low_HMMActual","","","","","","null","","","","Images/WhiteBeadChoiceCorrect.png","","null"
"image-button-response","563","641945","0.0-13.0-0.168","19","Low_HMMActual","","","","","","376.30499998340383","","","","Images/NewTrialWC.png","","2"
"image-button-response","564","642247","0.0-13.0-1.168","19","Low_HMMActual","","","","","","null","","","","Images/WhiteBeadChoice.png","","null"
"image-button-response","565","642748","0.0-13.0-2.168","19","Low_HMMActual","","","","","","null","","","","Images/WhiteBeadChoiceWrong.png","","null"
"image-button-response","566","643488","0.0-13.0-0.169","19","Low_HMMActual","","","","","","737.9300000029616","","","","Images/NewTrialBC.png","","0"
"image-button-response","567","643797","0.0-13.0-1.169","19","Low_HMMActual","","","","","","null","","","","Images/BlackBeadChoice.png","","null"
"image-button-response","568","644300","0.0-13.0-2.169","19","Low_HMMActual","","","","","","null","","","","Images/BlackBeadChoiceWrong.png","","null"
"image-button-response","569","644922","0.0-13.0-0.170","19","Low_HMMActual","","","","","","620.2449999982491","","","","Images/NewTrialWC.png","","2"
"image-button-response","570","645224","0.0-13.0-1.170","19","Low_HMMActual","","","","","","null","","","","Images/WhiteBeadChoice.png","","null"
"image-button-response","571","645726","0.0-13.0-2.170","19","Low_HMMActual","","","","","","null","","","","Images/WhiteBeadChoiceCorrect.png","","null"
"image-button-response","572","646160","0.0-13.0-0.171","19","Low_HMMActual","","","","","","433.2449999637902","","","","Images/NewTrialWC.png","","2"
"image-button-response","573","646462","0.0-13.0-1.171","19","Low_HMMActual","","","","","","null","","","","Images/WhiteBeadChoice.png","","null"
"image-button-response","574","646964","0.0-13.0-2.171","19","Low_HMMActual","","","","","","null","","","","Images/WhiteBeadChoiceCorrect.png","","null"
"image-button-response","575","647332","0.0-13.0-0.172","19","Low_HMMActual","","","","","","366.9600000139326","","","","Images/NewTrialWC.png","","2"
"image-button-response","576","647634","0.0-13.0-1.172","19","Low_HMMActual","","","","","","null","","","","Images/WhiteBeadChoice.png","","null"
"image-button-response","577","648136","0.0-13.0-2.172","19","Low_HMMActual","","","","","","null","","","","Images/WhiteBeadChoiceCorrect.png","","null"
"image-button-response","578","648498","0.0-13.0-0.173","19","Low_HMMActual","","","","","","360.45500001637265","","","","Images/NewTrialWC.png","","2"
"image-button-response","579","648800","0.0-13.0-1.173","19","Low_HMMActual","","","","","","null","","","","Images/WhiteBeadChoice.png","","null"
"image-button-response","580","649302","0.0-13.0-2.173","19","Low_HMMActual","","","","","","null","","","","Images/WhiteBeadChoiceCorrect.png","","null"
"image-button-response","581","649633","0.0-13.0-0.174","19","Low_HMMActual","","","","","","329.7550000133924","","","","Images/NewTrialWC.png","","2"
"image-button-response","582","649936","0.0-13.0-1.174","19","Low_HMMActual","","","","","","null","","","","Images/WhiteBeadChoice.png","","null"
"image-button-response","583","650437","0.0-13.0-2.174","19","Low_HMMActual","","","","","","null","","","","Images/WhiteBeadChoiceCorrect.png","","null"
"image-button-response","584","650890","0.0-13.0-0.175","19","Low_HMMActual","","","","","","451.56000001588836","","","","Images/NewTrialWC.png","","2"
"image-button-response","585","651192","0.0-13.0-1.175","19","Low_HMMActual","","","","","","null","","","","Images/WhiteBeadChoice.png","","null"
"image-button-response","586","651694","0.0-13.0-2.175","19","Low_HMMActual","","","","","","null","","","","Images/WhiteBeadChoiceWrong.png","","null"
"image-button-response","587","652718","0.0-13.0-0.176","19","Low_HMMActual","","","","","","1022.7849999791943","","","","Images/NewTrialBC.png","","0"
"image-button-response","588","653020","0.0-13.0-1.176","19","Low_HMMActual","","","","","","null","","","","Images/BlackBeadChoice.png","","null"
"image-button-response","589","653522","0.0-13.0-2.176","19","Low_HMMActual","","","","","","null","","","","Images/BlackBeadChoiceCorrect.png","","null"
"image-button-response","590","653854","0.0-13.0-0.177","19","Low_HMMActual","","","","","","330.13499999651685","","","","Images/NewTrialBC.png","","0"
"image-button-response","591","654158","0.0-13.0-1.177","19","Low_HMMActual","","","","","","null","","","","Images/BlackBeadChoice.png","","null"
"image-button-response","592","654660","0.0-13.0-2.177","19","Low_HMMActual","","","","","","null","","","","Images/BlackBeadChoiceCorrect.png","","null"
"image-button-response","593","654870","0.0-13.0-0.178","19","Low_HMMActual","","","","","","208.46500003244728","","","","Images/NewTrialBC.png","","0"
"image-button-response","594","655172","0.0-13.0-1.178","19","Low_HMMActual","","","","","","null","","","","Images/BlackBeadChoice.png","","null"
"image-button-response","595","655673","0.0-13.0-2.178","19","Low_HMMActual","","","","","","null","","","","Images/BlackBeadChoiceWrong.png","","null"
"image-button-response","596","656926","0.0-13.0-0.179","19","Low_HMMActual","","","","","","1252.1549999946728","","","","Images/NewTrialWC.png","","0"
"image-button-response","597","657228","0.0-13.0-1.179","19","Low_HMMActual","","","","","","null","","","","Images/BlackBeadChoice.png","","null"
"image-button-response","598","657730","0.0-13.0-2.179","19","Low_HMMActual","","","","","","null","","","","Images/BlackBeadChoiceCorrect.png","","null"
"image-button-response","599","657993","0.0-13.0-0.180","19","Low_HMMActual","","","","","","262.24499999079853","","","","Images/NewTrialBC.png","","0"
"image-button-response","600","658295","0.0-13.0-1.180","19","Low_HMMActual","","","","","","null","","","","Images/BlackBeadChoice.png","","null"
"image-button-response","601","658798","0.0-13.0-2.180","19","Low_HMMActual","","","","","","null","","","","Images/BlackBeadChoiceCorrect.png","","null"
"image-button-response","602","659011","0.0-13.0-0.181","19","Low_HMMActual","","","","","","211.74499997869134","","","","Images/NewTrialBC.png","","0"
"image-button-response","603","659313","0.0-13.0-1.181","19","Low_HMMActual","","","","","","null","","","","Images/BlackBeadChoice.png","","null"
"image-button-response","604","659814","0.0-13.0-2.181","19","Low_HMMActual","","","","","","null","","","","Images/BlackBeadChoiceCorrect.png","","null"
"image-button-response","605","660011","0.0-13.0-0.182","19","Low_HMMActual","","","","","","195.75000001350418","","","","Images/NewTrialBC.png","","0"
"image-button-response","606","660326","0.0-13.0-1.182","19","Low_HMMActual","","","","","","null","","","","Images/BlackBeadChoice.png","","null"
"image-button-response","607","660835","0.0-13.0-2.182","19","Low_HMMActual","","","","","","null","","","","Images/BlackBeadChoiceCorrect.png","","null"
"image-button-response","608","661026","0.0-13.0-0.183","19","Low_HMMActual","","","","","","189.56000002799556","","","","Images/NewTrialBC.png","","0"
"image-button-response","609","661328","0.0-13.0-1.183","19","Low_HMMActual","","","","","","null","","","","Images/BlackBeadChoice.png","","null"
"image-button-response","610","661830","0.0-13.0-2.183","19","Low_HMMActual","","","","","","null","","","","Images/BlackBeadChoiceCorrect.png","","null"
"image-button-response","611","662126","0.0-13.0-0.184","19","Low_HMMActual","","","","","","294.0800000214949","","","","Images/NewTrialBC.png","","0"
"image-button-response","612","662429","0.0-13.0-1.184","19","Low_HMMActual","","","","","","null","","","","Images/BlackBeadChoice.png","","null"
"image-button-response","613","662930","0.0-13.0-2.184","19","Low_HMMActual","","","","","","null","","","","Images/BlackBeadChoiceCorrect.png","","null"
"image-button-response","614","663145","0.0-13.0-0.185","19","Low_HMMActual","","","","","","213.51000003051013","","","","Images/NewTrialBC.png","","0"
"image-button-response","615","663447","0.0-13.0-1.185","19","Low_HMMActual","","","","","","null","","","","Images/BlackBeadChoice.png","","null"
"image-button-response","616","663949","0.0-13.0-2.185","19","Low_HMMActual","","","","","","null","","","","Images/BlackBeadChoiceCorrect.png","","null"
"image-button-response","617","664206","0.0-13.0-0.186","19","Low_HMMActual","","","","","","255.64500002656132","","","","Images/NewTrialBC.png","","0"
"image-button-response","618","664516","0.0-13.0-1.186","19","Low_HMMActual","","","","","","null","","","","Images/BlackBeadChoice.png","","null"
"image-button-response","619","665018","0.0-13.0-2.186","19","Low_HMMActual","","","","","","null","","","","Images/BlackBeadChoiceCorrect.png","","null"
"image-button-response","620","665162","0.0-13.0-0.187","19","Low_HMMActual","","","","","","142.28000002913177","","","","Images/NewTrialBC.png","","0"
"image-button-response","621","665464","0.0-13.0-1.187","19","Low_HMMActual","","","","","","null","","","","Images/BlackBeadChoice.png","","null"
"image-button-response","622","665967","0.0-13.0-2.187","19","Low_HMMActual","","","","","","null","","","","Images/BlackBeadChoiceWrong.png","","null"
"image-button-response","623","667700","0.0-13.0-0.188","19","Low_HMMActual","","","","","","1732.190000009723","","","","Images/NewTrialWC.png","","2"
"image-button-response","624","668002","0.0-13.0-1.188","19","Low_HMMActual","","","","","","null","","","","Images/WhiteBeadChoice.png","","null"
"image-button-response","625","668503","0.0-13.0-2.188","19","Low_HMMActual","","","","","","434.0399999637157","","","","Images/WhiteBeadChoiceCorrect.png","","2"
"image-button-response","626","668989","0.0-13.0-0.189","19","Low_HMMActual","","","","","","485.07999995490536","","","","Images/NewTrialWC.png","","2"
"image-button-response","627","669299","0.0-13.0-1.189","19","Low_HMMActual","","","","","","null","","","","Images/WhiteBeadChoice.png","","null"
"image-button-response","628","669802","0.0-13.0-2.189","19","Low_HMMActual","","","","","","null","","","","Images/WhiteBeadChoiceCorrect.png","","null"
"image-button-response","629","670019","0.0-13.0-0.190","19","Low_HMMActual","","","","","","215.85999999661","","","","Images/NewTrialWC.png","","2"
"image-button-response","630","670328","0.0-13.0-1.190","19","Low_HMMActual","","","","","","null","","","","Images/WhiteBeadChoice.png","","null"
"image-button-response","631","670830","0.0-13.0-2.190","19","Low_HMMActual","","","","","","null","","","","Images/WhiteBeadChoiceCorrect.png","","null"
"image-button-response","632","671441","0.0-13.0-0.191","19","Low_HMMActual","","","","","","606.969999964349","","","","Images/NewTrialWC.png","","2"
"image-button-response","633","671743","0.0-13.0-1.191","19","Low_HMMActual","","","","","","null","","","","Images/WhiteBeadChoice.png","","null"
"image-button-response","634","672245","0.0-13.0-2.191","19","Low_HMMActual","","","","","","null","","","","Images/WhiteBeadChoiceCorrect.png","","null"
"image-button-response","635","672448","0.0-13.0-0.192","19","Low_HMMActual","","","","","","202.33500003814697","","","","Images/NewTrialWC.png","","2"
"image-button-response","636","672761","0.0-13.0-1.192","19","Low_HMMActual","","","","","","null","","","","Images/WhiteBeadChoice.png","","null"
"image-button-response","637","673264","0.0-13.0-2.192","19","Low_HMMActual","","","","","","null","","","","Images/WhiteBeadChoiceCorrect.png","","null"
"image-button-response","638","673435","0.0-13.0-0.193","19","Low_HMMActual","","","","","","169.8900000192225","","","","Images/NewTrialWC.png","","2"
"image-button-response","639","673737","0.0-13.0-1.193","19","Low_HMMActual","","","","","","null","","","","Images/WhiteBeadChoice.png","","null"
"image-button-response","640","674238","0.0-13.0-2.193","19","Low_HMMActual","","","","","","null","","","","Images/WhiteBeadChoiceCorrect.png","","null"
"image-button-response","641","674566","0.0-13.0-0.194","19","Low_HMMActual","","","","","","325.2100000390783","","","","Images/NewTrialWC.png","","2"
"image-button-response","642","674867","0.0-13.0-1.194","19","Low_HMMActual","","","","","","null","","","","Images/WhiteBeadChoice.png","","null"
"image-button-response","643","675371","0.0-13.0-2.194","19","Low_HMMActual","","","","","","null","","","","Images/WhiteBeadChoiceCorrect.png","","null"
"image-button-response","644","675490","0.0-13.0-0.195","19","Low_HMMActual","","","","","","118.30000003101304","","","","Images/NewTrialWC.png","","2"
"image-button-response","645","675792","0.0-13.0-1.195","19","Low_HMMActual","","","","","","null","","","","Images/WhiteBeadChoice.png","","null"
"image-button-response","646","676302","0.0-13.0-2.195","19","Low_HMMActual","","","","","","null","","","","Images/WhiteBeadChoiceCorrect.png","","null"
"image-button-response","647","679735","0.0-13.0-0.196","19","Low_HMMActual","","","","","","3431.8700000294484","","","","Images/NewTrialWC.png","","2"
"image-button-response","648","680047","0.0-13.0-1.196","19","Low_HMMActual","","","","","","null","","","","Images/WhiteBeadChoice.png","","null"
"image-button-response","649","680550","0.0-13.0-2.196","19","Low_HMMActual","","","","","","null","","","","Images/WhiteBeadChoiceCorrect.png","","null"
"image-button-response","650","680988","0.0-13.0-0.197","19","Low_HMMActual","","","","","","435.95999997342005","","","","Images/NewTrialWC.png","","2"
"image-button-response","651","681291","0.0-13.0-1.197","19","Low_HMMActual","","","","","","null","","","","Images/WhiteBeadChoice.png","","null"
"image-button-response","652","681793","0.0-13.0-2.197","19","Low_HMMActual","","","","","","null","","","","Images/WhiteBeadChoiceCorrect.png","","null"
"image-button-response","653","683367","0.0-13.0-0.198","19","Low_HMMActual","","","","","","1571.590000006836","","","","Images/NewTrialWC.png","","2"
"image-button-response","654","683677","0.0-13.0-1.198","19","Low_HMMActual","","","","","","null","","","","Images/WhiteBeadChoice.png","","null"
"image-button-response","655","684178","0.0-13.0-2.198","19","Low_HMMActual","","","","","","null","","","","Images/WhiteBeadChoiceWrong.png","","null"
"image-button-response","656","688048","0.0-13.0-0.199","19","Low_HMMActual","","","","","","3867.8250000230037","","","","Images/NewTrialBC.png","","2"
"image-button-response","657","688350","0.0-13.0-1.199","19","Low_HMMActual","","","","","","null","","","","Images/WhiteBeadChoice.png","","null"
"image-button-response","658","688852","0.0-13.0-2.199","19","Low_HMMActual","","","","","","null","","","","Images/WhiteBeadChoiceCorrect.png","","null"
"image-button-response","659","689595","0.0-13.0-0.200","19","Low_HMMActual","","","","","","739.739999989979","","","","Images/NewTrialWC.png","","2"
"image-button-response","660","689896","0.0-13.0-1.200","19","Low_HMMActual","","","","","","null","","","","Images/WhiteBeadChoice.png","","null"
